time,header_stamp_secs,header_stamp_nsecs,header_frame_id,orientation_x,orientation_y,orientation_z,orientation_w,orientation_covariance_0,orientation_covariance_1,orientation_covariance_2,orientation_covariance_3,orientation_covariance_4,orientation_covariance_5,orientation_covariance_6,orientation_covariance_7,orientation_covariance_8,angular_velocity_x,angular_velocity_y,angular_velocity_z,angular_velocity_covariance_0,angular_velocity_covariance_1,angular_velocity_covariance_2,angular_velocity_covariance_3,angular_velocity_covariance_4,angular_velocity_covariance_5,angular_velocity_covariance_6,angular_velocity_covariance_7,angular_velocity_covariance_8,linear_acceleration_x,linear_acceleration_y,linear_acceleration_z,linear_acceleration_covariance_0,linear_acceleration_covariance_1,linear_acceleration_covariance_2,linear_acceleration_covariance_3,linear_acceleration_covariance_4,linear_acceleration_covariance_5,linear_acceleration_covariance_6,linear_acceleration_covariance_7,linear_acceleration_covariance_8
2025/05/25 18:29:14.571259126,1748190554,570931423,mA1/imu,0.982919363798987,0.18403446296949516,-0.0002633984874104298,0.0008782538133725248,0.0,0.0,0.0,0.0,0.0,0.0,0.0,0.0,0.0,-0.0006512995773517354,-0.00013197288893468926,0.0003252369392161725,0.0,0.0,0.0,0.0,0.0,0.0,0.0,0.0,0.0,0.008496697512338596,-0.07009433056417641,9.810875251644216,0.0,0.0,0.0,0.0,0.0,0.0,0.0,0.0,0.0
2025/05/25 18:29:14.621312345,1748190554,621144719,mA1/imu,0.9829208395943799,0.18402660575889182,-0.0002678085821404601,0.0008716320921026458,0.0,0.0,0.0,0.0,0.0,0.0,0.0,0.0,0.0,-0.0007782245513932037,-0.00010335544579531295,0.000316124112316612,0.0,0.0,0.0,0.0,0.0,0.0,0.0,0.0,0.0,0.008043213394334737,0.550326509807995,9.810387498110025,0.0,0.0,0.0,0.0,0.0,0.0,0.0,0.0,0.0
2025/05/25 18:29:14.673363812,1748190554,672958949,mA1/imu,0.9829222751928771,0.18401896909000515,-0.00027181507544832425,0.0008637483861193259,0.0,0.0,0.0,0.0,0.0,0.0,0.0,0.0,0.0,0.0008181628860983167,-8.506988332794224e-05,0.00030707144890340985,0.0,0.0,0.0,0.0,0.0,0.0,0.0,0.0,0.0,0.0075986614792128825,0.030841742468233263,9.8094565552588,0.0,0.0,0.0,0.0,0.0,0.0,0.0,0.0,0.0
2025/05/25 18:29:14.723311607,1748190554,722995846,mA1/imu,0.9829236645130572,0.18401154773322811,-0.0002735873367684756,0.0008632444693237361,0.0,0.0,0.0,0.0,0.0,0.0,0.0,0.0,0.0,0.0009457172051672739,-6.156883463598977e-05,0.00029827849172756727,0.0,0.0,0.0,0.0,0.0,0.0,0.0,0.0,0.0,0.008372013046980514,0.036594322686357386,9.809097942266726,0.0,0.0,0.0,0.0,0.0,0.0,0.0,0.0,0.0
2025/05/25 18:29:14.768835675,1748190554,765680299,mA1/imu,0.982925014961832,0.18400433345558426,-0.0002743624083328259,0.0008631089833941854,0.0,0.0,0.0,0.0,0.0,0.0,0.0,0.0,0.0,0.001088607460337204,-2.334973462672503e-05,0.0002901273039547327,0.0,0.0,0.0,0.0,0.0,0.0,0.0,0.0,0.0,0.007881872899332622,-0.580375496429224,9.80834772503446,0.0,0.0,0.0,0.0,0.0,0.0,0.0,0.0,0.0
2025/05/25 18:29:14.815945976,1748190554,815567702,mA1/imu,0.9829263270381617,0.18399732224692264,-0.0002741186480539874,0.0008636435591659848,0.0,0.0,0.0,0.0,0.0,0.0,0.0,0.0,0.0,-0.0005017431266194088,1.6998011604668736e-05,0.00028215870861613904,0.0,0.0,0.0,0.0,0.0,0.0,0.0,0.0,0.0,0.00847873067825145,-0.06207714914510066,9.81113620789906,0.0,0.0,0.0,0.0,0.0,0.0,0.0,0.0,0.0
2025/05/25 18:29:14.867021971,1748190554,866634207,mA1/imu,0.9829276091000673,0.18399050590410726,-0.0002744470428953877,0.0008565540244435119,0.0,0.0,0.0,0.0,0.0,0.0,0.0,0.0,0.0,-0.0006332515444781696,5.66549593450924e-05,0.00027435226075888487,0.0,0.0,0.0,0.0,0.0,0.0,0.0,0.0,0.0,0.008508605347127171,-0.0701485893599883,9.811563780331337,0.0,0.0,0.0,0.0,0.0,0.0,0.0,0.0,0.0
2025/05/25 18:29:14.919824201,1748190554,919196622,mA1/imu,0.9829288556578575,0.18398388088256393,-0.00027405892051834285,0.0008492244892791659,0.0,0.0,0.0,0.0,0.0,0.0,0.0,0.0,0.0,-0.0008028721834641985,9.273879449207771e-05,0.0002667366460245259,0.0,0.0,0.0,0.0,0.0,0.0,0.0,0.0,0.0,0.008055251718665042,0.5503127428859117,9.81105919999338,0.0,0.0,0.0,0.0,0.0,0.0,0.0,0.0,0.0
2025/05/25 18:29:14.971682295,1748190554,971191280,mA1/imu,0.9829300676373572,0.18397744201928667,-0.0002730785480668629,0.0008416594125616367,0.0,0.0,0.0,0.0,0.0,0.0,0.0,0.0,0.0,0.0007526143183936374,0.00010578662408399331,0.00025907136556511663,0.0,0.0,0.0,0.0,0.0,0.0,0.0,0.0,0.0,0.007679537399310189,0.030815704556072653,9.810091898492912,0.0,0.0,0.0,0.0,0.0,0.0,0.0,0.0,0.0
2025/05/25 18:29:15.21684350,1748190555,21363875,mA1/imu,0.9829312388146675,0.18397118550132954,-0.0002699622678842689,0.0008424890934176933,0.0,0.0,0.0,0.0,0.0,0.0,0.0,0.0,0.0,0.0008425576681998635,0.00011343503381322667,0.00025155030186040333,0.0,0.0,0.0,0.0,0.0,0.0,0.0,0.0,0.0,0.008493054410766549,0.0365883316968355,9.80966698389221,0.0,0.0,0.0,0.0,0.0,0.0,0.0,0.0,0.0
2025/05/25 18:29:15.73126745,1748190555,72616037,mA1/imu,0.9829323761932449,0.18396510413235437,-0.00026621875790655986,0.0008446420818071763,0.0,0.0,0.0,0.0,0.0,0.0,0.0,0.0,0.0,0.0009529775693921574,0.0001267044478164047,0.0002446532645569065,0.0,0.0,0.0,0.0,0.0,0.0,0.0,0.0,0.0,0.008036431835866118,-0.5803587316825819,9.808745192880727,0.0,0.0,0.0,0.0,0.0,0.0,0.0,0.0,0.0
2025/05/25 18:29:15.123516856,1748190555,123147824,mA1/imu,0.9829334800345312,0.1839591952488416,-0.0002620625873657216,0.0008483123273637842,0.0,0.0,0.0,0.0,0.0,0.0,0.0,0.0,0.0,-0.0006638949932950759,0.00013383487397913385,0.00023789544548260776,0.0,0.0,0.0,0.0,0.0,0.0,0.0,0.0,0.0,0.0086350264341856,-0.06205767867482724,9.811380113851131,0.0,0.0,0.0,0.0,0.0,0.0,0.0,0.0,0.0
2025/05/25 18:29:15.177445425,1748190555,175266484,mA1/imu,0.9829345584875768,0.18395345164142973,-0.0002592934651184753,0.0008450603148040044,0.0,0.0,0.0,0.0,0.0,0.0,0.0,0.0,0.0,-0.0008138191337266573,0.00013432316360381896,0.00023130358627977438,0.0,0.0,0.0,0.0,0.0,0.0,0.0,0.0,0.0,0.008672499592835364,-0.07010876025781472,9.811605678282543,0.0,0.0,0.0,0.0,0.0,0.0,0.0,0.0,0.0
2025/05/25 18:29:15.215117251,1748190555,215001086,mA1/imu,0.9829356061792554,0.18394787048487296,-0.0002567629185141118,0.0008420937621360106,0.0,0.0,0.0,0.0,0.0,0.0,0.0,0.0,0.0,-0.0009938469864874478,0.00012798865773823792,0.000224891699631104,0.0,0.0,0.0,0.0,0.0,0.0,0.0,0.0,0.0,0.00818806027037354,0.5503113408154381,9.81097631587281,0.0,0.0,0.0,0.0,0.0,0.0,0.0,0.0,0.0
2025/05/25 18:29:15.266484232,1748190555,266075388,mA1/imu,0.9829366241366997,0.1839424469897257,-0.00025466959448821745,0.0008392077083035313,0.0,0.0,0.0,0.0,0.0,0.0,0.0,0.0,0.0,0.0005607105538312191,9.807493050097355e-05,0.00021829998320318467,0.0,0.0,0.0,0.0,0.0,0.0,0.0,0.0,0.0,0.007802284390843581,0.030848612873010512,9.8098008342843,0.0,0.0,0.0,0.0,0.0,0.0,0.0,0.0,0.0
2025/05/25 18:29:15.316104579,1748190555,315949851,mA1/imu,0.9829376063739251,0.18393717678983423,-0.00025149570537367426,0.0008448197405204695,0.0,0.0,0.0,0.0,0.0,0.0,0.0,0.0,0.0,0.0006580116132670924,6.415989124197465e-05,0.00021186025182370996,0.0,0.0,0.0,0.0,0.0,0.0,0.0,0.0,0.0,0.00860919850904798,0.036617440720013696,9.809233059980007,0.0,0.0,0.0,0.0,0.0,0.0,0.0,0.0,0.0
2025/05/25 18:29:15.367301697,1748190555,367069433,mA1/imu,0.9829385599979035,0.1839320530185431,-0.00024871003592742306,0.0008516366299776207,0.0,0.0,0.0,0.0,0.0,0.0,0.0,0.0,0.0,0.0007836345298556785,4.02955558905729e-05,0.00020608402131156966,0.0,0.0,0.0,0.0,0.0,0.0,0.0,0.0,0.0,0.008105993152427424,-0.5802994751990608,9.80815641394334,0.0,0.0,0.0,0.0,0.0,0.0,0.0,0.0,0.0
2025/05/25 18:29:15.417171673,1748190555,416958358,mA1/imu,0.9829394854453055,0.1839270731907876,-0.0002464324051542577,0.0008596342583353693,0.0,0.0,0.0,0.0,0.0,0.0,0.0,0.0,0.0,-0.0008106030209691305,1.624112283458077e-05,0.00020043869414143362,0.0,0.0,0.0,0.0,0.0,0.0,0.0,0.0,0.0,0.00868232795392893,-0.0619923951194863,9.810737657832673,0.0,0.0,0.0,0.0,0.0,0.0,0.0,0.0,0.0
2025/05/25 18:29:15.468455601,1748190555,468168238,mA1/imu,0.9829403912153456,0.18392223020017143,-0.00024630911953497665,0.000860167097821286,0.0,0.0,0.0,0.0,0.0,0.0,0.0,0.0,0.0,-0.0009311486037120065,-6.0516358557439515e-06,0.00019501758456533274,0.0,0.0,0.0,0.0,0.0,0.0,0.0,0.0,0.0,0.008646497719087924,-0.07000979939307879,9.81091949635772,0.0,0.0,0.0,0.0,0.0,0.0,0.0,0.0,0.0
2025/05/25 18:29:15.518996615,1748190555,518788803,mA1/imu,0.9829412720194358,0.18391752141992077,-0.0002470070462047486,0.0008602691936891389,0.0,0.0,0.0,0.0,0.0,0.0,0.0,0.0,0.0,-0.0010769733454558904,-2.662846988473491e-05,0.00018974729495224143,0.0,0.0,0.0,0.0,0.0,0.0,0.0,0.0,0.0,0.008160961399290654,0.5503011254713057,9.81031261520676,0.0,0.0,0.0,0.0,0.0,0.0,0.0,0.0,0.0
2025/05/25 18:29:15.570102658,1748190555,569829236,mA1/imu,0.9829421290537084,0.1839129420717833,-0.00024852331914789133,0.0008595964306785794,0.0,0.0,0.0,0.0,0.0,0.0,0.0,0.0,0.0,0.0005154606909959123,-6.123939609562838e-05,0.00018427640142838135,0.0,0.0,0.0,0.0,0.0,0.0,0.0,0.0,0.0,0.007715733534283852,0.03081922659853413,9.809202183541206,0.0,0.0,0.0,0.0,0.0,0.0,0.0,0.0,0.0
2025/05/25 18:29:15.619931629,1748190555,619711586,mA1/imu,0.9829429562192036,0.1839084881453252,-0.0002491050045437972,0.0008664605302157796,0.0,0.0,0.0,0.0,0.0,0.0,0.0,0.0,0.0,0.0006525278601062764,-8.939480831477204e-05,0.0001789711894669391,0.0,0.0,0.0,0.0,0.0,0.0,0.0,0.0,0.0,0.008463134395629148,0.03674209874705642,9.808713553966347,0.0,0.0,0.0,0.0,0.0,0.0,0.0,0.0,0.0
2025/05/25 18:29:15.671015206,1748190555,670784758,mA1/imu,0.9829437607327797,0.18390415361037102,-0.00025000192552735313,0.0008735103837464934,0.0,0.0,0.0,0.0,0.0,0.0,0.0,0.0,0.0,0.0008173050889991108,-9.99361968960795e-05,0.0001742959228917374,0.0,0.0,0.0,0.0,0.0,0.0,0.0,0.0,0.0,0.007928121326051285,-0.5801787730193089,9.807801124646254,0.0,0.0,0.0,0.0,0.0,0.0,0.0,0.0,0.0
2025/05/25 18:29:15.724123001,1748190555,723737934,mA1/imu,0.982944542978389,0.18389993664197712,-0.0002511405498638934,0.000880715906070317,0.0,0.0,0.0,0.0,0.0,0.0,0.0,0.0,0.0,-0.0007393582222403762,-0.00010328454314420033,0.0001697459932064766,0.0,0.0,0.0,0.0,0.0,0.0,0.0,0.0,0.0,0.008516359862730853,-0.06188443877300503,9.81049817764142,0.0,0.0,0.0,0.0,0.0,0.0,0.0,0.0,0.0
2025/05/25 18:29:15.766953348,1748190555,766106925,mA1/imu,0.9829453115223852,0.18389583080597266,-0.00025397407158696375,0.000879468881265262,0.0,0.0,0.0,0.0,0.0,0.0,0.0,0.0,0.0,-0.000826115192985739,-9.772883745465097e-05,0.00016532119785350443,0.0,0.0,0.0,0.0,0.0,0.0,0.0,0.0,0.0,0.008456104185492096,-0.06993845041217871,9.810867850799424,0.0,0.0,0.0,0.0,0.0,0.0,0.0,0.0,0.0
2025/05/25 18:29:15.816267248,1748190555,816103394,mA1/imu,0.9829460608466802,0.18389183364130957,-0.00025701806723943865,0.0008768852516827139,0.0,0.0,0.0,0.0,0.0,0.0,0.0,0.0,0.0,-0.0009432534629238005,-8.634712911951818e-05,0.00016100882683378598,0.0,0.0,0.0,0.0,0.0,0.0,0.0,0.0,0.0,0.0080104548707864,0.5503068226420809,9.81037171417325,0.0,0.0,0.0,0.0,0.0,0.0,0.0,0.0,0.0
2025/05/25 18:29:15.868237516,1748190555,867916067,mA1/imu,0.9829467044620532,0.18388840758271655,-0.0002604935735180849,0.0008728613749599151,0.0,0.0,0.0,0.0,0.0,0.0,0.0,0.0,0.0,0.0006624079449137114,-0.00016522178964101686,6.16128795548478e-05,0.0,0.0,0.0,0.0,0.0,0.0,0.0,0.0,0.0,0.023419556022659015,0.020312674783120977,9.809825214925226,0.0,0.0,0.0,0.0,0.0,0.0,0.0,0.0,0.0
2025/05/25 18:29:15.917866048,1748190555,917726255,mA1/imu,0.9829457670209242,0.18389337561383004,-0.0002705978198261846,0.0008787933873050455,0.0,0.0,0.0,0.0,0.0,0.0,0.0,0.0,0.0,0.0007351564728149029,-0.0005592300210142037,-0.00030349316615238466,0.0,0.0,0.0,0.0,0.0,0.0,0.0,0.0,0.0,0.013431604526283928,0.0348254860664142,9.808273991724757,0.0,0.0,0.0,0.0,0.0,0.0,0.0,0.0,0.0
2025/05/25 18:29:15.970392445,1748190555,969217008,mA1/imu,0.9829440914872533,0.1839022772961724,-0.00028371412666013444,0.0008859581674098123,0.0,0.0,0.0,0.0,0.0,0.0,0.0,0.0,0.0,0.000906168172271467,-0.000568825003856217,-0.0003867066320266914,0.0,0.0,0.0,0.0,0.0,0.0,0.0,0.0,0.0,0.008358236438224685,-0.5773748489511266,9.808056078751298,0.0,0.0,0.0,0.0,0.0,0.0,0.0,0.0,0.0
2025/05/25 18:29:16.19280443,1748190556,19123666,mA1/imu,0.9829424166446843,0.18391116863618637,-0.0002955318394065222,0.0008945795167959748,0.0,0.0,0.0,0.0,0.0,0.0,0.0,0.0,0.0,-0.0007081610298839954,-0.0005377025582847812,-0.0003415660298905438,0.0,0.0,0.0,0.0,0.0,0.0,0.0,0.0,0.0,0.012223564370877847,-0.06498212862461694,9.812343132499455,0.0,0.0,0.0,0.0,0.0,0.0,0.0,0.0,0.0
2025/05/25 18:29:16.70833216,1748190556,70572103,mA1/imu,0.9829409345955653,0.18391907659891618,-0.0003076820449115607,0.0008931355764379003,0.0,0.0,0.0,0.0,0.0,0.0,0.0,0.0,0.0,-0.0007278824240285511,-0.00043698773013479004,-0.00030340775377356554,0.0,0.0,0.0,0.0,0.0,0.0,0.0,0.0,0.0,0.012059526850443775,-0.0701786681931602,9.812760404893035,0.0,0.0,0.0,0.0,0.0,0.0,0.0,0.0,0.0
2025/05/25 18:29:16.120540669,1748190556,120371719,mA1/imu,0.9829396597553625,0.1839258628339397,-0.0003169175455692808,0.0008954462979185134,0.0,0.0,0.0,0.0,0.0,0.0,0.0,0.0,0.0,-0.0011159301936031815,-0.0003087166568618364,-0.0002616880536874758,0.0,0.0,0.0,0.0,0.0,0.0,0.0,0.0,0.0,0.00784193614632643,-0.09764453350256144,9.809586111331486,0.0,0.0,0.0,0.0,0.0,0.0,0.0,0.0,0.0
2025/05/25 18:29:16.172485308,1748190556,172188702,mA1/imu,0.9829386299526949,0.18393141228679757,-0.0003260608847498682,0.0008826127137849382,0.0,0.0,0.0,0.0,0.0,0.0,0.0,0.0,0.0,-0.00142672763138445,-0.00017753397523882073,-0.00020536352148385595,0.0,0.0,0.0,0.0,0.0,0.0,0.0,0.0,0.0,0.00809962095355307,0.5024193805519034,9.80970414193627,0.0,0.0,0.0,0.0,0.0,0.0,0.0,0.0,0.0
2025/05/25 18:29:16.223564388,1748190556,223275944,mA1/imu,0.9829378364224167,0.18393567334403235,-0.0003305870353929787,0.0008766486797658881,0.0,0.0,0.0,0.0,0.0,0.0,0.0,0.0,0.0,-0.00022834445870108063,-6.963421414595724e-05,-0.00014810845461506425,0.0,0.0,0.0,0.0,0.0,0.0,0.0,0.0,0.0,0.008166756484591904,0.5860977580892258,9.810030930414992,0.0,0.0,0.0,0.0,0.0,0.0,0.0,0.0,0.0
2025/05/25 18:29:16.274659998,1748190556,274346667,mA1/imu,0.9829372441613415,0.18393886579579238,-0.00033127637650291546,0.0008706010723091291,0.0,0.0,0.0,0.0,0.0,0.0,0.0,0.0,0.0,0.0014872372777711383,6.510800187428781e-05,-0.00011637454828374311,0.0,0.0,0.0,0.0,0.0,0.0,0.0,0.0,0.0,0.007733916337408352,-0.5373463012048755,9.80822780547766,0.0,0.0,0.0,0.0,0.0,0.0,0.0,0.0,0.0
2025/05/25 18:29:16.314730602,1748190556,314556260,mA1/imu,0.9829368133354647,0.1839411852611631,-0.00032767921245830224,0.0008683207783432182,0.0,0.0,0.0,0.0,0.0,0.0,0.0,0.0,0.0,0.0004562608639890592,0.00017169965080995073,-7.557061322930456e-05,0.0,0.0,0.0,0.0,0.0,0.0,0.0,0.0,0.0,0.012057126488697039,-0.0020129467893973373,9.812275523965763,0.0,0.0,0.0,0.0,0.0,0.0,0.0,0.0,0.0
2025/05/25 18:29:16.365833045,1748190556,365574375,mA1/imu,0.98293657972851,0.18394249550648423,-0.00032262554209477195,0.000857024634944531,0.0,0.0,0.0,0.0,0.0,0.0,0.0,0.0,0.0,0.00036356484067287276,0.0003319481603557094,-3.950950128345256e-05,0.0,0.0,0.0,0.0,0.0,0.0,0.0,0.0,0.0,0.011364690270427434,-0.006442530495161077,9.812878936258734,0.0,0.0,0.0,0.0,0.0,0.0,0.0,0.0,0.0
2025/05/25 18:29:16.417015074,1748190556,416484701,mA1/imu,0.9829364965155547,0.18394296917548522,-0.00031331762515002243,0.0008542486168862057,0.0,0.0,0.0,0.0,0.0,0.0,0.0,0.0,0.0,-9.655210088399108e-05,0.0004320337442009119,-6.865472645186486e-06,0.0,0.0,0.0,0.0,0.0,0.0,0.0,0.0,0.0,0.008864968347384178,-0.03812068737884305,9.808831722705778,0.0,0.0,0.0,0.0,0.0,0.0,0.0,0.0,0.0
2025/05/25 18:29:16.467942803,1748190556,467666307,mA1/imu,0.9829365941010614,0.183942530857727,-0.00030483274441737854,0.0008392828232378775,0.0,0.0,0.0,0.0,0.0,0.0,0.0,0.0,0.0,0.0004308722631250015,0.0004790390721254589,3.499711947049522e-05,0.0,0.0,0.0,0.0,0.0,0.0,0.0,0.0,0.0,0.009331051768963185,0.0002186645700705276,9.808782464392735,0.0,0.0,0.0,0.0,0.0,0.0,0.0,0.0,0.0
2025/05/25 18:29:16.518353872,1748190556,517747068,mA1/imu,0.9829369044174365,0.18394093764901512,-0.0002952668896144447,0.0008283770473128805,0.0,0.0,0.0,0.0,0.0,0.0,0.0,0.0,0.0,0.0004544431358328659,0.0004579736348160175,8.647761689066024e-05,0.0,0.0,0.0,0.0,0.0,0.0,0.0,0.0,0.0,0.010111328643187102,0.6325531129156606,9.809991378635951,0.0,0.0,0.0,0.0,0.0,0.0,0.0,0.0,0.0
2025/05/25 18:29:16.574674867,1748190556,574443683,mA1/imu,0.9829374252466956,0.18393817874426144,-0.00028418926356529834,0.0008268531326776637,0.0,0.0,0.0,0.0,0.0,0.0,0.0,0.0,0.0,0.0005311582650207103,0.000418870556148463,0.0001317104397855781,0.0,0.0,0.0,0.0,0.0,0.0,0.0,0.0,0.0,0.009798127888248019,0.01427055751164298,9.808329592517062,0.0,0.0,0.0,0.0,0.0,0.0,0.0,0.0,0.0
2025/05/25 18:29:16.615999863,1748190556,615684653,mA1/imu,0.9829381315340268,0.18393442771793617,-0.0002738428980797025,0.0008251584931111503,0.0,0.0,0.0,0.0,0.0,0.0,0.0,0.0,0.0,6.396169929309564e-06,0.0003880166874372693,0.00016606093972310648,0.0,0.0,0.0,0.0,0.0,0.0,0.0,0.0,0.0,0.01216553250877997,-0.02024645418239885,9.811342303930337,0.0,0.0,0.0,0.0,0.0,0.0,0.0,0.0,0.0
2025/05/25 18:29:16.667871148,1748190556,667488151,mA1/imu,0.9829389847945645,0.18392989049015857,-0.0002645437831021761,0.0008231475541128094,0.0,0.0,0.0,0.0,0.0,0.0,0.0,0.0,0.0,6.633374342305747e-06,0.0003572876525152136,0.00019719702291696585,0.0,0.0,0.0,0.0,0.0,0.0,0.0,0.0,0.0,0.012205865652277336,-0.016757838461878165,9.81225453621116,0.0,0.0,0.0,0.0,0.0,0.0,0.0,0.0,0.0
2025/05/25 18:29:16.718099306,1748190556,717897211,mA1/imu,0.9829399778297064,0.18392459594020516,-0.0002564345770581308,0.0008229420856939955,0.0,0.0,0.0,0.0,0.0,0.0,0.0,0.0,0.0,-0.0012605594170301934,0.0003145330359999423,0.0002286416100967953,0.0,0.0,0.0,0.0,0.0,0.0,0.0,0.0,0.0,0.009843585241732277,0.5286796289885165,9.809671906528582,0.0,0.0,0.0,0.0,0.0,0.0,0.0,0.0,0.0
2025/05/25 18:29:16.772195038,1748190556,771679320,mA1/imu,0.9829415344666935,0.18391630995583114,-0.0002486494386815923,0.0008178789332251375,0.0,0.0,0.0,0.0,0.0,0.0,0.0,0.0,0.0,-0.0003439974169983633,0.0005135040385910307,0.00047611639164998583,0.0,0.0,0.0,0.0,0.0,0.0,0.0,0.0,0.0,-0.008128469241969137,-0.032666016937265646,9.807715262106312,0.0,0.0,0.0,0.0,0.0,0.0,0.0,0.0,0.0
2025/05/25 18:29:16.823696133,1748190556,823099742,mA1/imu,0.9829448580199337,0.18389856121520687,-0.0002278456609373247,0.0008205860735108346,0.0,0.0,0.0,0.0,0.0,0.0,0.0,0.0,0.0,-0.00020870720872432895,0.0009727538525564597,0.0008852030806836098,0.0,0.0,0.0,0.0,0.0,0.0,0.0,0.0,0.0,-0.007305532720626305,-0.018422217224743492,9.807934403473576,0.0,0.0,0.0,0.0,0.0,0.0,0.0,0.0,0.0
2025/05/25 18:29:16.874784086,1748190556,874461727,mA1/imu,0.9829497387283742,0.18387253449868204,-0.0002010375180161843,0.0008134954014275367,0.0,0.0,0.0,0.0,0.0,0.0,0.0,0.0,0.0,0.00020808778195966716,0.0011773240632242676,0.0011719826878450923,0.0,0.0,0.0,0.0,0.0,0.0,0.0,0.0,0.0,-0.009961377777238701,0.021844303416995454,9.808041792205369,0.0,0.0,0.0,0.0,0.0,0.0,0.0,0.0,0.0
2025/05/25 18:29:16.914378797,1748190556,914255226,mA1/imu,0.9829563695044239,0.1838371033002045,-0.00016380394837304475,0.0008174773017859947,0.0,0.0,0.0,0.0,0.0,0.0,0.0,0.0,0.0,-0.00023824357748010534,0.0015827730210145245,0.0016335913914187572,0.0,0.0,0.0,0.0,0.0,0.0,0.0,0.0,0.0,-0.01026449219534308,-0.05275877921204788,9.813024134998049,0.0,0.0,0.0,0.0,0.0,0.0,0.0,0.0,0.0
2025/05/25 18:29:16.965554373,1748190556,965224219,mA1/imu,0.9829641520513247,0.18379553131973167,-0.00012799112858918833,0.0008136751124396454,0.0,0.0,0.0,0.0,0.0,0.0,0.0,0.0,0.0,-0.0002491427529832983,0.001296199890749396,0.0017388079766402914,0.0,0.0,0.0,0.0,0.0,0.0,0.0,0.0,0.0,0.012320372012038922,-0.653588131665722,9.811421200054092,0.0,0.0,0.0,0.0,0.0,0.0,0.0,0.0,0.0
2025/05/25 18:29:17.15464537,1748190557,15133815,mA1/imu,0.9829737466644315,0.1837442667900408,-8.961626888931846e-05,0.0008060764261541325,0.0,0.0,0.0,0.0,0.0,0.0,0.0,0.0,0.0,-0.0008171881028949284,0.001723801243346074,0.0022949323706989893,0.0,0.0,0.0,0.0,0.0,0.0,0.0,0.0,0.0,-0.0030672591353747046,0.2055251773766712,9.809132709478577,0.0,0.0,0.0,0.0,0.0,0.0,0.0,0.0,0.0
2025/05/25 18:29:17.66336553,1748190557,66086606,mA1/imu,0.9829845005782155,0.18368677235696537,-5.56555697567642e-05,0.0007988657800099202,0.0,0.0,0.0,0.0,0.0,0.0,0.0,0.0,0.0,-0.0004664597674308527,0.001172236865051952,0.00235774198632196,0.0,0.0,0.0,0.0,0.0,0.0,0.0,0.0,0.0,0.01286083909603751,0.03569087968402889,9.809099660897738,0.0,0.0,0.0,0.0,0.0,0.0,0.0,0.0,0.0
2025/05/25 18:29:17.121714440,1748190557,121333288,mA1/imu,0.9829954156268542,0.1836283675430478,-3.644299461532912e-05,0.0007963428731948163,0.0,0.0,0.0,0.0,0.0,0.0,0.0,0.0,0.0,0.00038458192167854224,0.0005390471219466105,0.002403855031244758,0.0,0.0,0.0,0.0,0.0,0.0,0.0,0.0,0.0,0.010109424748267105,0.02510032940060941,9.8093556779527,0.0,0.0,0.0,0.0,0.0,0.0,0.0,0.0,0.0
2025/05/25 18:29:17.173901154,1748190557,173682343,mA1/imu,0.9830066440237696,0.18356823540196301,-3.098748966977137e-05,0.0007998726842199893,0.0,0.0,0.0,0.0,0.0,0.0,0.0,0.0,0.0,0.0010839617989338716,-6.449792875113376e-05,0.002477237624005758,0.0,0.0,0.0,0.0,0.0,0.0,0.0,0.0,0.0,0.009830163901664177,-0.3138380327569512,9.808367285198663,0.0,0.0,0.0,0.0,0.0,0.0,0.0,0.0,0.0
2025/05/25 18:29:17.215150241,1748190557,214974906,mA1/imu,0.9830181825434205,0.18350639221163262,-3.8819931357153694e-05,0.0008095057219623366,0.0,0.0,0.0,0.0,0.0,0.0,0.0,0.0,0.0,-0.00022399671130423805,-0.0005978161894850875,0.0025462499609092237,0.0,0.0,0.0,0.0,0.0,0.0,0.0,0.0,0.0,0.010117950815074796,-0.017864213851924295,9.811849254924404,0.0,0.0,0.0,0.0,0.0,0.0,0.0,0.0,0.0
2025/05/25 18:29:17.266709155,1748190557,266457469,mA1/imu,0.9830300489529235,0.18344278523302265,-6.022638275293227e-05,0.0008147234787322684,0.0,0.0,0.0,0.0,0.0,0.0,0.0,0.0,0.0,-0.00034356428782838567,-0.0010726836408721505,0.002615822821273294,0.0,0.0,0.0,0.0,0.0,0.0,0.0,0.0,0.0,0.009979467534307911,-0.026859256558235782,9.812859104966202,0.0,0.0,0.0,0.0,0.0,0.0,0.0,0.0,0.0
2025/05/25 18:29:17.316587144,1748190557,316314256,mA1/imu,0.983042055014292,0.18337837325229395,-9.177540344827874e-05,0.0008257565593656124,0.0,0.0,0.0,0.0,0.0,0.0,0.0,0.0,0.0,-0.0001747191951433752,-0.001467482590386297,0.002598298080770392,0.0,0.0,0.0,0.0,0.0,0.0,0.0,0.0,0.0,0.008087263699218155,-0.017428156249935985,9.809780149371965,0.0,0.0,0.0,0.0,0.0,0.0,0.0,0.0,0.0
2025/05/25 18:29:17.367693730,1748190557,367345597,mA1/imu,0.9830537699037587,0.1833154839055902,-0.00013095476590059877,0.0008376689780211128,0.0,0.0,0.0,0.0,0.0,0.0,0.0,0.0,0.0,-0.0001856035328033355,-0.0016886473741482477,0.0025348926851302333,0.0,0.0,0.0,0.0,0.0,0.0,0.0,0.0,0.0,-0.0010460134330612008,-0.019716451204030268,9.809234676024387,0.0,0.0,0.0,0.0,0.0,0.0,0.0,0.0,0.0
2025/05/25 18:29:17.418163469,1748190557,417937149,mA1/imu,0.9830652945833084,0.18325358979045722,-0.0001709055430072019,0.0008480601626184093,0.0,0.0,0.0,0.0,0.0,0.0,0.0,0.0,0.0,-0.00014185176763783442,-0.0016712857834532613,0.0024965170404594793,0.0,0.0,0.0,0.0,0.0,0.0,0.0,0.0,0.0,0.007455321753756747,-0.01230531471444906,9.809943153316977,0.0,0.0,0.0,0.0,0.0,0.0,0.0,0.0,0.0
2025/05/25 18:29:17.469295785,1748190557,468922494,mA1/imu,0.9830765060241756,0.18319331861361637,-0.00021188709947069152,0.0008639574562872257,0.0,0.0,0.0,0.0,0.0,0.0,0.0,0.0,0.0,-0.00033135289521410194,-0.0017548908335956268,0.0024023827963995065,0.0,0.0,0.0,0.0,0.0,0.0,0.0,0.0,0.0,0.006475466911971376,-0.028781470096876777,9.80888350256891,0.0,0.0,0.0,0.0,0.0,0.0,0.0,0.0,0.0
2025/05/25 18:29:17.518937013,1748190557,518758830,mA1/imu,0.98308715477328,0.18313609090277053,-0.00025569682047579947,0.000867725627746074,0.0,0.0,0.0,0.0,0.0,0.0,0.0,0.0,0.0,0.0007861057746962552,-0.0017385923954173557,0.0022978461771728624,0.0,0.0,0.0,0.0,0.0,0.0,0.0,0.0,0.0,0.006791864141572507,0.04983335048242989,9.811778757379688,0.0,0.0,0.0,0.0,0.0,0.0,0.0,0.0,0.0
2025/05/25 18:29:17.570079478,1748190557,569831407,mA1/imu,0.9830974712234505,0.18308053023289805,-0.0002934891317281794,0.0008918451812187198,0.0,0.0,0.0,0.0,0.0,0.0,0.0,0.0,0.0,0.0008610117972644098,-0.001610967624553956,0.002233697568608621,0.0,0.0,0.0,0.0,0.0,0.0,0.0,0.0,0.0,0.004255988663431683,-0.5728549633179227,9.808026709299098,0.0,0.0,0.0,0.0,0.0,0.0,0.0,0.0,0.0
2025/05/25 18:29:17.620654625,1748190557,620357330,mA1/imu,0.9831072999232184,0.18302765314104283,-0.00033127512476015513,0.0008973740316353261,0.0,0.0,0.0,0.0,0.0,0.0,0.0,0.0,0.0,-0.00029128881197689724,-0.0014957566682923275,0.0020762735187368794,0.0,0.0,0.0,0.0,0.0,0.0,0.0,0.0,0.0,0.011363215595156842,-0.02913003794469797,9.810726534687852,0.0,0.0,0.0,0.0,0.0,0.0,0.0,0.0,0.0
2025/05/25 18:29:17.671644569,1748190557,671340709,mA1/imu,0.9831163063511378,0.18297918492837734,-0.00036638186670762547,0.0009010181852783831,0.0,0.0,0.0,0.0,0.0,0.0,0.0,0.0,0.0,0.0013838003717513132,-0.001270460902078303,0.0019182513961912924,0.0,0.0,0.0,0.0,0.0,0.0,0.0,0.0,0.0,-0.004139912775139315,0.09050655585403398,9.809752158397188,0.0,0.0,0.0,0.0,0.0,0.0,0.0,0.0,0.0
2025/05/25 18:29:17.721417170,1748190557,721152899,mA1/imu,0.9831241936364944,0.18293666361769512,-0.0003896991733891724,0.0009193071157715744,0.0,0.0,0.0,0.0,0.0,0.0,0.0,0.0,0.0,0.0011871637395683308,-0.0008989385762341582,0.0016272313509307743,0.0,0.0,0.0,0.0,0.0,0.0,0.0,0.0,0.0,-0.001066834112620237,-0.5583083519121697,9.808398936073184,0.0,0.0,0.0,0.0,0.0,0.0,0.0,0.0,0.0
2025/05/25 18:29:17.772515909,1748190557,772185818,mA1/imu,0.9831314243754392,0.1828977562077713,-0.00040103888105025905,0.0009232266777992648,0.0,0.0,0.0,0.0,0.0,0.0,0.0,0.0,0.0,-0.0008998992771769585,-0.0004192446832603046,0.001412506060606722,0.0,0.0,0.0,0.0,0.0,0.0,0.0,0.0,0.0,0.039569108323200576,-0.0865259444622387,9.811519201814448,0.0,0.0,0.0,0.0,0.0,0.0,0.0,0.0,0.0
2025/05/25 18:29:17.823660548,1748190557,823460244,mA1/imu,0.983136693980305,0.18286939451518022,-0.0004090608554481443,0.0009263737603078535,0.0,0.0,0.0,0.0,0.0,0.0,0.0,0.0,0.0,-0.0006789417797918965,-6.728679890256057e-05,0.0011208149323362088,0.0,0.0,0.0,0.0,0.0,0.0,0.0,0.0,0.0,-0.002684551597530215,0.5736851809152957,9.809602299798776,0.0,0.0,0.0,0.0,0.0,0.0,0.0,0.0,0.0
2025/05/25 18:29:17.865188762,1748190557,865068420,mA1/imu,0.9831416849552606,0.18284255795102783,-0.0003994719003146454,0.0009309819854554732,0.0,0.0,0.0,0.0,0.0,0.0,0.0,0.0,0.0,-0.0007973591731534515,0.0006092796831648134,0.0010510475199414077,0.0,0.0,0.0,0.0,0.0,0.0,0.0,0.0,0.0,-0.002242274471201509,-0.07540492373842755,9.811480319355056,0.0,0.0,0.0,0.0,0.0,0.0,0.0,0.0,0.0
2025/05/25 18:29:17.915119052,1748190557,914920622,mA1/imu,0.983146079021068,0.18281904059781098,-0.0003760110957487927,0.0009188667212594141,0.0,0.0,0.0,0.0,0.0,0.0,0.0,0.0,0.0,0.0009691628307991726,0.0012577279758323244,0.0009278583514093488,0.0,0.0,0.0,0.0,0.0,0.0,0.0,0.0,0.0,-0.0011852832271905412,-0.5523577146323713,9.80951232561719,0.0,0.0,0.0,0.0,0.0,0.0,0.0,0.0,0.0
2025/05/25 18:29:17.966585924,1748190557,966285757,mA1/imu,0.9831502545828292,0.1827967119439086,-0.00033784749288993,0.0009082264503868848,0.0,0.0,0.0,0.0,0.0,0.0,0.0,0.0,0.0,0.0009650137465105003,0.0017686353389721016,0.0008982068107904302,0.0,0.0,0.0,0.0,0.0,0.0,0.0,0.0,0.0,-0.0003866594331063105,0.046081889349770234,9.810108255713821,0.0,0.0,0.0,0.0,0.0,0.0,0.0,0.0,0.0
2025/05/25 18:29:18.18826849,1748190558,16305589,mA1/imu,0.983154096943771,0.18277615402128622,-0.00028754255667373966,0.0009036056348571414,0.0,0.0,0.0,0.0,0.0,0.0,0.0,0.0,0.0,0.0002700751529873337,0.002159574639726421,0.0008014978858567705,0.0,0.0,0.0,0.0,0.0,0.0,0.0,0.0,0.0,-0.00044168833009052694,-0.007287364811503478,9.808774846680594,0.0,0.0,0.0,0.0,0.0,0.0,0.0,0.0,0.0
2025/05/25 18:29:18.67535636,1748190558,67349868,mA1/imu,0.983157699588303,0.18275696277731868,-0.00023257392800721062,0.0008810255466514325,0.0,0.0,0.0,0.0,0.0,0.0,0.0,0.0,0.0,0.00017776468058889472,0.0024194157958947167,0.0007537838203878599,0.0,0.0,0.0,0.0,0.0,0.0,0.0,0.0,0.0,0.0006224107232431289,-0.020644471412446262,9.808658709092171,0.0,0.0,0.0,0.0,0.0,0.0,0.0,0.0,0.0
2025/05/25 18:29:18.117377427,1748190558,117143741,mA1/imu,0.9831609178719332,0.18273976525868185,-0.0001715432794912188,0.000870824507552429,0.0,0.0,0.0,0.0,0.0,0.0,0.0,0.0,0.0,0.00021595918462130758,0.0024934308055386185,0.0006877704124988208,0.0,0.0,0.0,0.0,0.0,0.0,0.0,0.0,0.0,0.0015008914604371197,-0.015057748630357741,9.809760755942653,0.0,0.0,0.0,0.0,0.0,0.0,0.0,0.0,0.0
2025/05/25 18:29:18.168327744,1748190558,168164283,mA1/imu,0.9831640227604753,0.1827231902446984,-0.00011188578288579297,0.0008529817179368756,0.0,0.0,0.0,0.0,0.0,0.0,0.0,0.0,0.0,0.0004990837118021194,0.0024365017615189397,0.000668889405166015,0.0,0.0,0.0,0.0,0.0,0.0,0.0,0.0,0.0,0.0033745460426466605,-0.5346870144586705,9.80948955776884,0.0,0.0,0.0,0.0,0.0,0.0,0.0,0.0,0.0
2025/05/25 18:29:18.218154861,1748190558,218003133,mA1/imu,0.9831670377227283,0.18270706471996345,-5.591815454233955e-05,0.0008374425892752793,0.0,0.0,0.0,0.0,0.0,0.0,0.0,0.0,0.0,0.0005668481687540395,0.0022067086302996627,0.0006508154154869438,0.0,0.0,0.0,0.0,0.0,0.0,0.0,0.0,0.0,0.004114851453889163,-0.00018559239007598718,9.809849162568788,0.0,0.0,0.0,0.0,0.0,0.0,0.0,0.0,0.0
2025/05/25 18:29:18.270243173,1748190558,269910655,mA1/imu,0.9831699715578874,0.18269136151120716,-7.602946827336857e-06,0.0008206084567332549,0.0,0.0,0.0,0.0,0.0,0.0,0.0,0.0,0.0,-9.535400250220834e-05,0.0018762200551155424,0.0006333264551569514,0.0,0.0,0.0,0.0,0.0,0.0,0.0,0.0,0.0,0.004264952601791447,-0.04149868514264735,9.809332766538908,0.0,0.0,0.0,0.0,0.0,0.0,0.0,0.0,0.0
2025/05/25 18:29:18.320061107,1748190558,319786038,mA1/imu,0.9831728679908668,0.18267581880133418,3.384713344137941e-05,0.0008097692554933901,0.0,0.0,0.0,0.0,0.0,0.0,0.0,0.0,0.0,-0.0002573075211988697,0.001589910325959841,0.0006333926918637129,0.0,0.0,0.0,0.0,0.0,0.0,0.0,0.0,0.0,0.001120668552051215,-0.050126731236158406,9.808844771697677,0.0,0.0,0.0,0.0,0.0,0.0,0.0,0.0,0.0
2025/05/25 18:29:18.371231542,1748190558,371034146,mA1/imu,0.9831757135561133,0.18266052440874692,6.475193304252301e-05,0.0008030587377031683,0.0,0.0,0.0,0.0,0.0,0.0,0.0,0.0,0.0,1.0340820223701372e-05,0.0010327224046917571,0.000616738496483877,0.0,0.0,0.0,0.0,0.0,0.0,0.0,0.0,0.0,0.0053689570983172785,-0.6636416315351493,9.809550717286951,0.0,0.0,0.0,0.0,0.0,0.0,0.0,0.0,0.0
2025/05/25 18:29:18.425051877,1748190558,424556950,mA1/imu,0.9831784976812802,0.1826456226821179,7.800335631673577e-05,0.0007823859142393557,0.0,0.0,0.0,0.0,0.0,0.0,0.0,0.0,0.0,0.0013085158691416845,0.0004289462769805701,0.000600051624416901,0.0,0.0,0.0,0.0,0.0,0.0,0.0,0.0,0.0,0.004717635164505062,-0.5712966381178782,9.809954983442603,0.0,0.0,0.0,0.0,0.0,0.0,0.0,0.0,0.0
2025/05/25 18:29:18.467760021,1748190558,465867254,mA1/imu,0.9831811790439301,0.18263120622554058,7.905584991261505e-05,0.0007780980428025252,0.0,0.0,0.0,0.0,0.0,0.0,0.0,0.0,0.0,-0.0003293012210670392,-0.00018258241366311942,0.0005666100567852943,0.0,0.0,0.0,0.0,0.0,0.0,0.0,0.0,0.0,0.008095381402208307,0.5780243286577111,9.810480239734751,0.0,0.0,0.0,0.0,0.0,0.0,0.0,0.0,0.0
2025/05/25 18:29:18.515989607,1748190558,515773855,mA1/imu,0.9831836279699887,0.18261803492285517,6.446298809210734e-05,0.0007764387990620107,0.0,0.0,0.0,0.0,0.0,0.0,0.0,0.0,0.0,-5.5353468121735254e-05,-0.0007940811466429531,0.0005270524870754604,0.0,0.0,0.0,0.0,0.0,0.0,0.0,0.0,0.0,0.004119830889378879,-0.032118003414903104,9.808928700936706,0.0,0.0,0.0,0.0,0.0,0.0,0.0,0.0,0.0
2025/05/25 18:29:18.567716567,1748190558,567395303,mA1/imu,0.9831859964258518,0.18260529949526466,3.5722481340206714e-05,0.0007744367333787732,0.0,0.0,0.0,0.0,0.0,0.0,0.0,0.0,0.0,0.0011783212060923033,-0.0013200761058797224,0.0005107373974778621,0.0,0.0,0.0,0.0,0.0,0.0,0.0,0.0,0.0,0.003915341120183007,-0.575695533830878,9.810061650769516,0.0,0.0,0.0,0.0,0.0,0.0,0.0,0.0,0.0
2025/05/25 18:29:18.617527157,1748190558,617284105,mA1/imu,0.9831880748569655,0.18259409466195917,-3.5551941549219056e-06,0.0007784863481290433,0.0,0.0,0.0,0.0,0.0,0.0,0.0,0.0,0.0,0.0016209789678710111,-0.0017592501581911637,0.00041739073556625885,0.0,0.0,0.0,0.0,0.0,0.0,0.0,0.0,0.0,0.004537543254651189,-0.5445750633009578,9.809629436358428,0.0,0.0,0.0,0.0,0.0,0.0,0.0,0.0,0.0
2025/05/25 18:29:18.669388594,1748190558,669243091,mA1/imu,0.9831899397111625,0.1825839850878555,-5.04657430880192e-05,0.0007926496118218562,0.0,0.0,0.0,0.0,0.0,0.0,0.0,0.0,0.0,-0.0004010971274305565,-0.002081335397020493,0.0004047376646814407,0.0,0.0,0.0,0.0,0.0,0.0,0.0,0.0,0.0,0.003673511270670293,-0.04567904391018337,9.809094889987817,0.0,0.0,0.0,0.0,0.0,0.0,0.0,0.0,0.0
2025/05/25 18:29:18.721312051,1748190558,721057418,mA1/imu,0.9831919577255742,0.182573045329683,-0.000105518386131234,0.0008038959312558243,0.0,0.0,0.0,0.0,0.0,0.0,0.0,0.0,0.0,-0.0018481751065862959,-0.002315529171299508,0.00046888262142008737,0.0,0.0,0.0,0.0,0.0,0.0,0.0,0.0,0.0,0.00302956911485056,0.49103378807147524,9.809651097724275,0.0,0.0,0.0,0.0,0.0,0.0,0.0,0.0,0.0
2025/05/25 18:29:18.772462868,1748190558,772119546,mA1/imu,0.9831952643398656,0.1825551973042141,-0.00015631364027960643,0.0008047875043782111,0.0,0.0,0.0,0.0,0.0,0.0,0.0,0.0,0.0,-0.00035361172814741865,-0.0014672729406376957,0.001106624283986309,0.0,0.0,0.0,0.0,0.0,0.0,0.0,0.0,0.0,-0.040690861058104925,-0.03392343368858371,9.812375214010004,0.0,0.0,0.0,0.0,0.0,0.0,0.0,0.0,0.0
2025/05/25 18:29:18.824002797,1748190558,823720439,mA1/imu,0.9832014517894515,0.1825218476010271,-0.000189079119777346,0.0008028676781345523,0.0,0.0,0.0,0.0,0.0,0.0,0.0,0.0,0.0,0.001051584949322868,-0.0013451742681664823,0.0013965942631077404,0.0,0.0,0.0,0.0,0.0,0.0,0.0,0.0,0.0,0.007138761376502717,0.05598246019150848,9.811787739979911,0.0,0.0,0.0,0.0,0.0,0.0,0.0,0.0,0.0
2025/05/25 18:29:18.865370819,1748190558,865124744,mA1/imu,0.9832077051115292,0.1824880830500469,-0.00022253915339889388,0.0008115604503780521,0.0,0.0,0.0,0.0,0.0,0.0,0.0,0.0,0.0,0.001054210396311078,-0.0014022585223669789,0.0013566579437750538,0.0,0.0,0.0,0.0,0.0,0.0,0.0,0.0,0.0,0.004709911529003498,0.06259123090819518,9.80958577601976,0.0,0.0,0.0,0.0,0.0,0.0,0.0,0.0,0.0
2025/05/25 18:29:18.915642819,1748190558,915003700,mA1/imu,0.9832137682409325,0.1824552888484402,-0.00025439005483710747,0.0008299387915827151,0.0,0.0,0.0,0.0,0.0,0.0,0.0,0.0,0.0,-0.00039483461173214367,-0.0013766077349475316,0.001317733246349132,0.0,0.0,0.0,0.0,0.0,0.0,0.0,0.0,0.0,0.005191095654802895,-0.03515687622511144,9.80837048944043,0.0,0.0,0.0,0.0,0.0,0.0,0.0,0.0,0.0
2025/05/25 18:29:18.966287359,1748190558,965946240,mA1/imu,0.9832196637942502,0.1824234147513555,-0.0002855580519113867,0.0008419830018813651,0.0,0.0,0.0,0.0,0.0,0.0,0.0,0.0,0.0,-0.0003685558385641563,-0.0012717653814544433,0.0012810040205204778,0.0,0.0,0.0,0.0,0.0,0.0,0.0,0.0,0.0,0.005430901501619182,-0.6608506799336236,9.809605565206207,0.0,0.0,0.0,0.0,0.0,0.0,0.0,0.0,0.0
2025/05/25 18:29:19.16914359,1748190559,16549934,mA1/imu,0.983224786085846,0.18239572760896713,-0.0003165639571328269,0.0008475633892886247,0.0,0.0,0.0,0.0,0.0,0.0,0.0,0.0,0.0,-0.0006051651655613049,-0.0012302737184623047,0.0010371905540429121,0.0,0.0,0.0,0.0,0.0,0.0,0.0,0.0,0.0,0.006239925007161152,-0.04476859742473073,9.810767670828511,0.0,0.0,0.0,0.0,0.0,0.0,0.0,0.0,0.0
2025/05/25 18:29:19.68061621,1748190559,67684578,mA1/imu,0.9832294281057695,0.18237062852694927,-0.0003430794425811157,0.00085314358873054,0.0,0.0,0.0,0.0,0.0,0.0,0.0,0.0,0.0,-0.0008526484131846641,-0.0009709636048161725,0.0010089046205108898,0.0,0.0,0.0,0.0,0.0,0.0,0.0,0.0,0.0,0.004403193130889507,0.5737374734722753,9.809685378291357,0.0,0.0,0.0,0.0,0.0,0.0,0.0,0.0,0.0
2025/05/25 18:29:19.117821077,1748190559,117525347,mA1/imu,0.9832339375907038,0.18234622281427368,-0.00036129338552252097,0.0008651371781480992,0.0,0.0,0.0,0.0,0.0,0.0,0.0,0.0,0.0,-0.0008332552635364616,-0.0006760785552632481,0.000981252527928865,0.0,0.0,0.0,0.0,0.0,0.0,0.0,0.0,0.0,0.004397134134836668,0.577816635950951,9.810116603392993,0.0,0.0,0.0,0.0,0.0,0.0,0.0,0.0,0.0
2025/05/25 18:29:19.168840143,1748190559,168536828,mA1/imu,0.9832383287646996,0.18232247189590314,-0.0003716452692186986,0.0008757679841725858,0.0,0.0,0.0,0.0,0.0,0.0,0.0,0.0,0.0,0.0009413829925347187,-0.0003524228470656041,0.0009561291081897353,0.0,0.0,0.0,0.0,0.0,0.0,0.0,0.0,0.0,0.003696363896934977,-0.5584426229397421,9.809977090785475,0.0,0.0,0.0,0.0,0.0,0.0,0.0,0.0,0.0
2025/05/25 18:29:19.218545535,1748190559,218384933,mA1/imu,0.9832426098885414,0.18229932987434289,-0.00037336954495466497,0.0008860147391067631,0.0,0.0,0.0,0.0,0.0,0.0,0.0,0.0,0.0,0.0009972249533665286,-2.7740320057217446e-05,0.0009318571966525057,0.0,0.0,0.0,0.0,0.0,0.0,0.0,0.0,0.0,0.005469532273670882,-0.5584594386565925,9.808946610141964,0.0,0.0,0.0,0.0,0.0,0.0,0.0,0.0,0.0
2025/05/25 18:29:19.269881806,1748190559,269626751,mA1/imu,0.9832467574886143,0.18227692484944302,-0.00036667134157145347,0.0008956046470637287,0.0,0.0,0.0,0.0,0.0,0.0,0.0,0.0,0.0,-0.0006347480534543041,0.0003232449679235224,0.0008794625814057995,0.0,0.0,0.0,0.0,0.0,0.0,0.0,0.0,0.0,0.00489273236139429,-0.04241530658172177,9.808356196207571,0.0,0.0,0.0,0.0,0.0,0.0,0.0,0.0,0.0
2025/05/25 18:29:19.320040621,1748190559,319321980,mA1/imu,0.9832503788465855,0.18225737881578644,-0.000351952260768041,0.0009036010464684525,0.0,0.0,0.0,0.0,0.0,0.0,0.0,0.0,0.0,-0.002277603188539484,0.000658628840457198,0.0007699038117029667,0.0,0.0,0.0,0.0,0.0,0.0,0.0,0.0,0.0,0.004925494483949423,0.48031072629540666,9.809889553282469,0.0,0.0,0.0,0.0,0.0,0.0,0.0,0.0,0.0
2025/05/25 18:29:19.370585363,1748190559,370354718,mA1/imu,0.9832538438329499,0.18223873542557306,-0.0003321349277701152,0.0009008799068700628,0.0,0.0,0.0,0.0,0.0,0.0,0.0,0.0,0.0,-0.0007200763903389941,0.0009083267184596121,0.000752113309965243,0.0,0.0,0.0,0.0,0.0,0.0,0.0,0.0,0.0,0.005345063417202181,-0.04779310159485044,9.810800918384732,0.0,0.0,0.0,0.0,0.0,0.0,0.0,0.0,0.0
2025/05/25 18:29:19.421644134,1748190559,421441964,mA1/imu,0.9832572347518044,0.18222051039576276,-0.00030662124366355665,0.0008954790649395522,0.0,0.0,0.0,0.0,0.0,0.0,0.0,0.0,0.0,0.0008352174093864393,0.0011262248705412484,0.0007361697220270461,0.0,0.0,0.0,0.0,0.0,0.0,0.0,0.0,0.0,0.00506707874633471,0.05465256878309489,9.811445456547006,0.0,0.0,0.0,0.0,0.0,0.0,0.0,0.0,0.0
2025/05/25 18:29:19.473017747,1748190559,472615375,mA1/imu,0.9832605152511247,0.18220285384446033,-0.00027543245238533193,0.0008962901266513543,0.0,0.0,0.0,0.0,0.0,0.0,0.0,0.0,0.0,0.000874817889371387,0.001278782488061599,0.0006868837506775553,0.0,0.0,0.0,0.0,0.0,0.0,0.0,0.0,0.0,0.003409057773005807,0.09133188250884693,9.809241209567965,0.0,0.0,0.0,0.0,0.0,0.0,0.0,0.0,0.0
2025/05/25 18:29:19.523804439,1748190559,523524423,mA1/imu,0.9832633974906194,0.1821873123675358,-0.00023951950381616378,0.0009038793644145555,0.0,0.0,0.0,0.0,0.0,0.0,0.0,0.0,0.0,-0.0003958228910902443,0.001375802068756323,0.0006231223816001483,0.0,0.0,0.0,0.0,0.0,0.0,0.0,0.0,0.0,0.005916426614588095,-0.03673335258218915,9.808754694114679,0.0,0.0,0.0,0.0,0.0,0.0,0.0,0.0,0.0
2025/05/25 18:29:19.566872402,1748190559,564774326,mA1/imu,0.9832662044706713,0.18217221736256747,-0.00020486087792812854,0.0009013318292524675,0.0,0.0,0.0,0.0,0.0,0.0,0.0,0.0,0.0,-0.00021408090905998092,0.0013612496555543525,0.000610017516102067,0.0,0.0,0.0,0.0,0.0,0.0,0.0,0.0,0.0,0.0077652511023338,-0.6613469730997936,9.810017027274444,0.0,0.0,0.0,0.0,0.0,0.0,0.0,0.0,0.0
2025/05/25 18:29:19.615334122,1748190559,614547957,mA1/imu,0.9832689581071552,0.18215744399895828,-0.00017385709522699168,0.0008896023527775359,0.0,0.0,0.0,0.0,0.0,0.0,0.0,0.0,0.0,-0.0003258205119391517,0.0012639273792998344,0.0005969393731274975,0.0,0.0,0.0,0.0,0.0,0.0,0.0,0.0,0.0,0.006865909894005904,-0.04355032886196723,9.811184770523909,0.0,0.0,0.0,0.0,0.0,0.0,0.0,0.0,0.0
2025/05/25 18:29:19.665849522,1748190559,665534603,mA1/imu,0.9832716271166528,0.18214312572341151,-0.00014648653254135155,0.0008761282848949245,0.0,0.0,0.0,0.0,0.0,0.0,0.0,0.0,0.0,-0.0004515403127544065,0.0011255347464372574,0.0005541223211194498,0.0,0.0,0.0,0.0,0.0,0.0,0.0,0.0,0.0,0.0053050353828866855,0.5703343885042886,9.80967157733953,0.0,0.0,0.0,0.0,0.0,0.0,0.0,0.0,0.0
2025/05/25 18:29:19.717954926,1748190559,717782643,mA1/imu,0.9832737309272411,0.18213181759533106,-0.0001232038481064995,0.0008694300756438289,0.0,0.0,0.0,0.0,0.0,0.0,0.0,0.0,0.0,-0.000377796891185325,0.0008567127218778698,0.00043286253506510133,0.0,0.0,0.0,0.0,0.0,0.0,0.0,0.0,0.0,0.007515576130907281,0.5781938722681698,9.810804882900564,0.0,0.0,0.0,0.0,0.0,0.0,0.0,0.0,0.0
2025/05/25 18:29:19.769214252,1748190559,768793154,mA1/imu,0.9832758760557528,0.18212028243520761,-0.00010600614510455461,0.00086200650180064,0.0,0.0,0.0,0.0,0.0,0.0,0.0,0.0,0.0,0.0015017389205752463,0.0008274173617563417,0.0006355125483045643,0.0,0.0,0.0,0.0,0.0,0.0,0.0,0.0,0.0,-0.037937571810179684,-0.546364282294028,9.812329302013744,0.0,0.0,0.0,0.0,0.0,0.0,0.0,0.0,0.0
2025/05/25 18:29:19.819364246,1748190559,818816294,mA1/imu,0.9832802843680111,0.18209654158034527,-8.330621727141817e-05,0.00085145623189374,0.0,0.0,0.0,0.0,0.0,0.0,0.0,0.0,0.0,0.0016600660997873752,0.000758069617357,0.0010547837720183053,0.0,0.0,0.0,0.0,0.0,0.0,0.0,0.0,0.0,0.01521347149563856,-0.5558089167620284,9.810090576205834,0.0,0.0,0.0,0.0,0.0,0.0,0.0,0.0,0.0
2025/05/25 18:29:19.870087247,1748190559,869747894,mA1/imu,0.9832855290624262,0.18206826586748479,-7.300879017860438e-05,0.0008423598686567764,0.0,0.0,0.0,0.0,0.0,0.0,0.0,0.0,0.0,9.66288351039482e-05,0.00030966841891449573,0.0012571092553325456,0.0,0.0,0.0,0.0,0.0,0.0,0.0,0.0,0.0,-0.005899013298132733,-0.02560667181019713,9.806850607316152,0.0,0.0,0.0,0.0,0.0,0.0,0.0,0.0,0.0
2025/05/25 18:29:19.920083800,1748190559,919803491,mA1/imu,0.9832924928005176,0.1820307034776777,-6.816092548998293e-05,0.0008318339102520473,0.0,0.0,0.0,0.0,0.0,0.0,0.0,0.0,0.0,-0.0014312956539798433,0.0002695722172370681,0.0017098046046810304,0.0,0.0,0.0,0.0,0.0,0.0,0.0,0.0,0.0,-0.0051574641923727085,0.49320420177208724,9.809302029334527,0.0,0.0,0.0,0.0,0.0,0.0,0.0,0.0,0.0
2025/05/25 18:29:19.972696149,1748190559,972236330,mA1/imu,0.9833006952796962,0.18198647071650506,-7.600090477059693e-05,0.0008132419562574362,0.0,0.0,0.0,0.0,0.0,0.0,0.0,0.0,0.0,0.00010531320757753796,-0.00036102694790720734,0.0018923936127186645,0.0,0.0,0.0,0.0,0.0,0.0,0.0,0.0,0.0,0.0011682567268482009,-0.03936344128039283,9.811913053178547,0.0,0.0,0.0,0.0,0.0,0.0,0.0,0.0,0.0
2025/05/25 18:29:20.22552159,1748190560,21785769,mA1/imu,0.9833099855270364,0.18193635176758893,-9.580588539026029e-05,0.0007918898608141349,0.0,0.0,0.0,0.0,0.0,0.0,0.0,0.0,0.0,0.0017129777763797245,-0.0008686255930163246,0.0020859141004271565,0.0,0.0,0.0,0.0,0.0,0.0,0.0,0.0,0.0,0.01528235679583098,0.06387183519122466,9.81188696207813,0.0,0.0,0.0,0.0,0.0,0.0,0.0,0.0,0.0
2025/05/25 18:29:20.73823268,1748190560,73548022,mA1/imu,0.9833197208486117,0.18188370996070527,-0.00012663524704483394,0.0007915836360376302,0.0,0.0,0.0,0.0,0.0,0.0,0.0,0.0,0.0,0.00017044180273745324,-0.0014395274688317453,0.00213198133857284,0.0,0.0,0.0,0.0,0.0,0.0,0.0,0.0,0.0,0.010127632107082195,0.5881960214343854,9.809477958224026,0.0,0.0,0.0,0.0,0.0,0.0,0.0,0.0,0.0
2025/05/25 18:29:20.123629718,1748190560,123448141,mA1/imu,0.9833290969023659,0.1818329713549206,-0.0001692611522877353,0.0007931356002322015,0.0,0.0,0.0,0.0,0.0,0.0,0.0,0.0,0.0,-9.237649145370997e-05,-0.0018533527753493797,0.0020384200685854286,0.0,0.0,0.0,0.0,0.0,0.0,0.0,0.0,0.0,0.011593187424920676,-0.04798929588331538,9.808770886975923,0.0,0.0,0.0,0.0,0.0,0.0,0.0,0.0,0.0
2025/05/25 18:29:20.165471167,1748190560,164525729,mA1/imu,0.9833381916549437,0.1817836964955515,-0.00022030468604937882,0.0007999919022832822,0.0,0.0,0.0,0.0,0.0,0.0,0.0,0.0,0.0,-6.871824511138635e-06,-0.002182715547657307,0.0019798302957159297,0.0,0.0,0.0,0.0,0.0,0.0,0.0,0.0,0.0,0.012446931545241447,-0.6680905619377558,9.809320764314963,0.0,0.0,0.0,0.0,0.0,0.0,0.0,0.0,0.0
2025/05/25 18:29:20.216190311,1748190560,215770912,mA1/imu,0.9833470295956366,0.18173582333083524,-0.00028004445981997313,0.0007946564051991153,0.0,0.0,0.0,0.0,0.0,0.0,0.0,0.0,0.0,0.0011994435770067869,-0.0023765140648978923,0.0019221836988104458,0.0,0.0,0.0,0.0,0.0,0.0,0.0,0.0,0.0,0.011309623302263644,-0.5736375273301689,9.809586198721405,0.0,0.0,0.0,0.0,0.0,0.0,0.0,0.0,0.0
2025/05/25 18:29:20.267174686,1748190560,266833916,mA1/imu,0.9833555935576009,0.18168933360727518,-0.00033881839172157657,0.0008049064665852909,0.0,0.0,0.0,0.0,0.0,0.0,0.0,0.0,0.0,-0.00045037748716654334,-0.0023799395847554305,0.0018670344163226515,0.0,0.0,0.0,0.0,0.0,0.0,0.0,0.0,0.0,0.010124166383657878,0.580869287604186,9.81010776277678,0.0,0.0,0.0,0.0,0.0,0.0,0.0,0.0,0.0
2025/05/25 18:29:20.319108698,1748190560,317028848,mA1/imu,0.9833638941692051,0.18164422132084015,-0.0003949230397721277,0.0008200859190518179,0.0,0.0,0.0,0.0,0.0,0.0,0.0,0.0,0.0,-0.0006009632552709446,-0.002253935129449201,0.0018110147299157738,0.0,0.0,0.0,0.0,0.0,0.0,0.0,0.0,0.0,0.00937393536274204,-0.04865670981875656,9.808937190301966,0.0,0.0,0.0,0.0,0.0,0.0,0.0,0.0,0.0
2025/05/25 18:29:20.368828475,1748190560,368468111,mA1/imu,0.9833719431846394,0.18160045368350436,-0.00044599812930718537,0.0008352633599420372,0.0,0.0,0.0,0.0,0.0,0.0,0.0,0.0,0.0,4.851520718785545e-05,-0.002016412480691638,0.0017571811571250378,0.0,0.0,0.0,0.0,0.0,0.0,0.0,0.0,0.0,0.009726920289557003,-0.6288798087680795,9.809379870814794,0.0,0.0,0.0,0.0,0.0,0.0,0.0,0.0,0.0
2025/05/25 18:29:20.418873158,1748190560,418643533,mA1/imu,0.983379783643411,0.181557863939682,-0.0004872961371991572,0.0008400628384992381,0.0,0.0,0.0,0.0,0.0,0.0,0.0,0.0,0.0,0.0012929825022910848,-0.0013982359449313977,0.0017205367085965607,0.0,0.0,0.0,0.0,0.0,0.0,0.0,0.0,0.0,-0.0005756083758210774,-0.5407840723784766,9.81008700569573,0.0,0.0,0.0,0.0,0.0,0.0,0.0,0.0,0.0
2025/05/25 18:29:20.471486120,1748190560,470963269,mA1/imu,0.9833874455216755,0.18151622932545017,-0.0005076164583979141,0.0008560416785453818,0.0,0.0,0.0,0.0,0.0,0.0,0.0,0.0,0.0,-0.0006725841787979072,-0.0006267616889919896,0.0016638620680205624,0.0,0.0,0.0,0.0,0.0,0.0,0.0,0.0,0.0,0.0010146829520680072,0.6013422723919333,9.809501115874227,0.0,0.0,0.0,0.0,0.0,0.0,0.0,0.0,0.0
2025/05/25 18:29:20.521319589,1748190560,521106771,mA1/imu,0.983394616179526,0.18147726701343345,-0.0005092606961639035,0.0008781116110331739,0.0,0.0,0.0,0.0,0.0,0.0,0.0,0.0,0.0,-0.0021224385707293027,6.0793264757324285e-05,0.0015334755006246867,0.0,0.0,0.0,0.0,0.0,0.0,0.0,0.0,0.0,0.0012650092236314563,0.5066270125159876,9.809100682013945,0.0,0.0,0.0,0.0,0.0,0.0,0.0,0.0,0.0
2025/05/25 18:29:20.573751201,1748190560,573451097,mA1/imu,0.9834018593660935,0.1814380369735952,-0.000491904157470943,0.0008830429085426441,0.0,0.0,0.0,0.0,0.0,0.0,0.0,0.0,0.0,4.523524718439988e-05,0.0011624747556663465,0.0017078115629033477,0.0,0.0,0.0,0.0,0.0,0.0,0.0,0.0,0.0,-0.01749241407726393,-0.6101068350482941,9.810146198750108,0.0,0.0,0.0,0.0,0.0,0.0,0.0,0.0,0.0
2025/05/25 18:29:20.623850726,1748190560,623627045,mA1/imu,0.9834104569952677,0.18139154385584652,-0.0004441654984443231,0.0008852157709806965,0.0,0.0,0.0,0.0,0.0,0.0,0.0,0.0,0.0,0.00032946342410787447,0.002315289942850421,0.00201670022098849,0.0,0.0,0.0,0.0,0.0,0.0,0.0,0.0,0.0,-0.016819456900061057,-0.43889568693898384,9.81141829550967,0.0,0.0,0.0,0.0,0.0,0.0,0.0,0.0,0.0
2025/05/25 18:29:20.665726681,1748190560,665212294,mA1/imu,0.9834195152410987,0.18134257634928666,-0.0003765235841899164,0.0008861579748446312,0.0,0.0,0.0,0.0,0.0,0.0,0.0,0.0,0.0,-0.0005774740269248397,0.002835388505141931,0.0019970854393846597,0.0,0.0,0.0,0.0,0.0,0.0,0.0,0.0,0.0,0.002845428113967357,0.322941780693533,9.809435423777616,0.0,0.0,0.0,0.0,0.0,0.0,0.0,0.0,0.0
2025/05/25 18:29:20.716558202,1748190560,715011523,mA1/imu,0.9834293828880848,0.1812892020849865,-0.00029499882901576043,0.0008871614513323887,0.0,0.0,0.0,0.0,0.0,0.0,0.0,0.0,0.0,-0.001732535563058049,0.0034882416831713446,0.0023288617275989956,0.0,0.0,0.0,0.0,0.0,0.0,0.0,0.0,0.0,-0.011104879116267834,0.5130189821693886,9.809957494756928,0.0,0.0,0.0,0.0,0.0,0.0,0.0,0.0,0.0
2025/05/25 18:29:20.766376346,1748190560,766040485,mA1/imu,0.9834411690542192,0.18122543492203017,-0.00020064765594315527,0.0008766339656322661,0.0,0.0,0.0,0.0,0.0,0.0,0.0,0.0,0.0,-0.0005791201974695884,0.003972881503121868,0.0027678061094171774,0.0,0.0,0.0,0.0,0.0,0.0,0.0,0.0,0.0,-0.00953578753966295,-0.44734077745122364,9.810158227653599,0.0,0.0,0.0,0.0,0.0,0.0,0.0,0.0,0.0
2025/05/25 18:29:20.816374687,1748190560,815875760,mA1/imu,0.9834548069207104,0.18115157596555584,-9.935165172863123e-05,0.0008598831275227765,0.0,0.0,0.0,0.0,0.0,0.0,0.0,0.0,0.0,1.0809792139079443e-05,0.004142649650606319,0.0031594007580354813,0.0,0.0,0.0,0.0,0.0,0.0,0.0,0.0,0.0,-0.006376464425074328,-0.001168933219926855,9.811650903984935,0.0,0.0,0.0,0.0,0.0,0.0,0.0,0.0,0.0
2025/05/25 18:29:20.868123999,1748190560,867400608,mA1/imu,0.9834699354828461,0.1810695071811256,9.717931321798071e-07,0.0008482744876678712,0.0,0.0,0.0,0.0,0.0,0.0,0.0,0.0,0.0,-0.0013716858794235736,0.003839804116748898,0.0034053655443320335,0.0,0.0,0.0,0.0,0.0,0.0,0.0,0.0,0.0,0.009461790191079773,0.5013356160120401,9.809505389746656,0.0,0.0,0.0,0.0,0.0,0.0,0.0,0.0,0.0
2025/05/25 18:29:20.917028623,1748190560,916789453,mA1/imu,0.9834854683969814,0.18098518341541636,8.341090027643534e-05,0.0008305893571244227,0.0,0.0,0.0,0.0,0.0,0.0,0.0,0.0,0.0,-0.0011875289606661451,0.0030768939679251235,0.0034444425946134546,0.0,0.0,0.0,0.0,0.0,0.0,0.0,0.0,0.0,0.007722634046362281,0.5371413988260983,9.809636080010625,0.0,0.0,0.0,0.0,0.0,0.0,0.0,0.0,0.0
2025/05/25 18:29:20.968296072,1748190560,968013207,mA1/imu,0.9835011664995766,0.18089991809380937,0.0001421248829899196,0.0008092763080680396,0.0,0.0,0.0,0.0,0.0,0.0,0.0,0.0,0.0,0.0010765901134919533,0.0020544970394762974,0.003485215783713409,0.0,0.0,0.0,0.0,0.0,0.0,0.0,0.0,0.0,0.01115485399745107,-0.44536059645673387,9.811173167050834,0.0,0.0,0.0,0.0,0.0,0.0,0.0,0.0,0.0
2025/05/25 18:29:21.18835894,1748190561,18620674,mA1/imu,0.9835170290477854,0.18081370773616198,0.0001744376477598091,0.0007913527824758874,0.0,0.0,0.0,0.0,0.0,0.0,0.0,0.0,0.0,0.0011165458659394536,0.0009345557543802762,0.00352187215717119,0.0,0.0,0.0,0.0,0.0,0.0,0.0,0.0,0.0,0.01225169437778711,0.03854474086874403,9.811689728191169,0.0,0.0,0.0,0.0,0.0,0.0,0.0,0.0,0.0
2025/05/25 18:29:21.71974580,1748190561,71530427,mA1/imu,0.9835330324850249,0.18072667075238516,0.00017945560179479197,0.0007824865856527306,0.0,0.0,0.0,0.0,0.0,0.0,0.0,0.0,0.0,-0.00032691966388732663,-0.0002017691551309133,0.003553302465663265,0.0,0.0,0.0,0.0,0.0,0.0,0.0,0.0,0.0,0.010735683081628136,0.5649205017991084,9.809471354463486,0.0,0.0,0.0,0.0,0.0,0.0,0.0,0.0,0.0
2025/05/25 18:29:21.123625275,1748190561,121700124,mA1/imu,0.9835491866379638,0.18063879184788356,0.00015579027127622148,0.0007746437427149554,0.0,0.0,0.0,0.0,0.0,0.0,0.0,0.0,0.0,-5.923518332685972e-05,-0.0013082832270623608,0.0035856217610392735,0.0,0.0,0.0,0.0,0.0,0.0,0.0,0.0,0.0,0.010064537135321643,-0.0510384951491362,9.808412936369505,0.0,0.0,0.0,0.0,0.0,0.0,0.0,0.0,0.0
2025/05/25 18:29:21.173654173,1748190561,173422931,mA1/imu,0.9835655002745515,0.18055004151212373,0.00010394586050470591,0.0007605096316998812,0.0,0.0,0.0,0.0,0.0,0.0,0.0,0.0,0.0,0.0016519163874116072,-0.002334211191912422,0.0036217058607634365,0.0,0.0,0.0,0.0,0.0,0.0,0.0,0.0,0.0,0.010442198073489822,-0.5725973077163596,9.810300364458064,0.0,0.0,0.0,0.0,0.0,0.0,0.0,0.0,0.0
2025/05/25 18:29:21.214600628,1748190561,214325556,mA1/imu,0.9835819646586973,0.18046040424367044,2.8981769009992552e-05,0.0007486376996285936,0.0,0.0,0.0,0.0,0.0,0.0,0.0,0.0,0.0,0.001620261167205055,-0.003205395795182876,0.0036592672519199054,0.0,0.0,0.0,0.0,0.0,0.0,0.0,0.0,0.0,0.01081879203509455,0.05006475081009196,9.811182200390336,0.0,0.0,0.0,0.0,0.0,0.0,0.0,0.0,0.0
2025/05/25 18:29:21.266727486,1748190561,266476718,mA1/imu,0.983598569470224,0.18036985213267637,-6.153796613745109e-05,0.0007528551283589313,0.0,0.0,0.0,0.0,0.0,0.0,0.0,0.0,0.0,-0.0004911944182591589,-0.0038480242049184835,0.0036981063138521557,0.0,0.0,0.0,0.0,0.0,0.0,0.0,0.0,0.0,0.010238016173718044,0.537459129674104,9.80997664283694,0.0,0.0,0.0,0.0,0.0,0.0,0.0,0.0,0.0
2025/05/25 18:29:21.316801050,1748190561,316333124,mA1/imu,0.9836153823903627,0.18027810338707792,-0.00016782528668800436,0.0007461895817580154,0.0,0.0,0.0,0.0,0.0,0.0,0.0,0.0,0.0,0.0017691002358841614,-0.004301193799942493,0.0037486953291708787,0.0,0.0,0.0,0.0,0.0,0.0,0.0,0.0,0.0,0.008400561913679916,-0.5575636031537597,9.809842347448681,0.0,0.0,0.0,0.0,0.0,0.0,0.0,0.0,0.0
2025/05/25 18:29:21.370133103,1748190561,369893609,mA1/imu,0.9836323664000035,0.1801852454779959,-0.0002778970183055946,0.0007535619488106644,0.0,0.0,0.0,0.0,0.0,0.0,0.0,0.0,0.0,0.0019140394890427492,-0.004443603914447239,0.0037947382145837854,0.0,0.0,0.0,0.0,0.0,0.0,0.0,0.0,0.0,0.007414737677060707,-0.5486813435570038,9.808789574205521,0.0,0.0,0.0,0.0,0.0,0.0,0.0,0.0,0.0
2025/05/25 18:29:21.420166543,1748190561,419976285,mA1/imu,0.9836495487042156,0.18009122514784878,-0.00038969634642960964,0.0007510629117643004,0.0,0.0,0.0,0.0,0.0,0.0,0.0,0.0,0.0,-0.0005350530344328813,-0.00431092304270624,0.0038368825250667035,0.0,0.0,0.0,0.0,0.0,0.0,0.0,0.0,0.0,0.00783374599622501,0.5462183874199212,9.809755752680974,0.0,0.0,0.0,0.0,0.0,0.0,0.0,0.0,0.0
2025/05/25 18:29:21.471412649,1748190561,471145163,mA1/imu,0.9836669587982663,0.17999585128333015,-0.0004952625156662277,0.0007499362639492192,0.0,0.0,0.0,0.0,0.0,0.0,0.0,0.0,0.0,0.001416060149257238,-0.003979783021660528,0.0038974851517442105,0.0,0.0,0.0,0.0,0.0,0.0,0.0,0.0,0.0,0.003865923075454405,0.06339489378174538,9.808074747465064,0.0,0.0,0.0,0.0,0.0,0.0,0.0,0.0,0.0
2025/05/25 18:29:21.521343469,1748190561,521111388,mA1/imu,0.9836846563347502,0.1798987650162458,-0.0005849357166355395,0.0007675203067670072,0.0,0.0,0.0,0.0,0.0,0.0,0.0,0.0,0.0,0.00033363279710750743,-0.0034360372480223378,0.003979154050628453,0.0,0.0,0.0,0.0,0.0,0.0,0.0,0.0,0.0,0.005295225579013567,-0.15921704535475603,9.812247441025091,0.0,0.0,0.0,0.0,0.0,0.0,0.0,0.0,0.0
2025/05/25 18:29:21.573099203,1748190561,572246398,mA1/imu,0.9837027260788129,0.17979968018123804,-0.0006618442376208865,0.0007639856291551345,0.0,0.0,0.0,0.0,0.0,0.0,0.0,0.0,0.0,-0.0002542840778276006,-0.0026794983140359867,0.004052472201316936,0.0,0.0,0.0,0.0,0.0,0.0,0.0,0.0,0.0,0.0046497757332719415,0.5982177897995575,9.809848530191271,0.0,0.0,0.0,0.0,0.0,0.0,0.0,0.0,0.0
2025/05/25 18:29:21.622585046,1748190561,622143086,mA1/imu,0.9837210489724074,0.17969913398022722,-0.0007144732434220673,0.0007801175343184266,0.0,0.0,0.0,0.0,0.0,0.0,0.0,0.0,0.0,0.0005612804807197355,-0.0018714462917686827,0.004113962484928124,0.0,0.0,0.0,0.0,0.0,0.0,0.0,0.0,0.0,0.006336495376963831,0.03256834458869572,9.810593389729693,0.0,0.0,0.0,0.0,0.0,0.0,0.0,0.0,0.0
2025/05/25 18:29:21.674248326,1748190561,673963567,mA1/imu,0.9837396250224012,0.17959724984418382,-0.0007460036761531548,0.0007883449159697543,0.0,0.0,0.0,0.0,0.0,0.0,0.0,0.0,0.0,-0.000757051723732293,-0.0009435412431804188,0.004159414659775798,0.0,0.0,0.0,0.0,0.0,0.0,0.0,0.0,0.0,0.007484174682140347,-0.046386302350134426,9.812154155480947,0.0,0.0,0.0,0.0,0.0,0.0,0.0,0.0,0.0
2025/05/25 18:29:21.714193826,1748190561,713975327,mA1/imu,0.9837584070507389,0.17949429841881262,-0.0007567561626960378,0.0007878529311655565,0.0,0.0,0.0,0.0,0.0,0.0,0.0,0.0,0.0,-0.00016164708650998186,-4.201903176374932e-05,0.00419740836802233,0.0,0.0,0.0,0.0,0.0,0.0,0.0,0.0,0.0,0.006963646258558862,0.4748030727514314,9.809899081796173,0.0,0.0,0.0,0.0,0.0,0.0,0.0,0.0,0.0
2025/05/25 18:29:21.767432323,1748190561,767112856,mA1/imu,0.9837773659584373,0.17939034390691147,-0.0007417350426990385,0.0008053384167790453,0.0,0.0,0.0,0.0,0.0,0.0,0.0,0.0,0.0,-0.00040729839661936593,0.0007698819599764289,0.0042381677281597184,0.0,0.0,0.0,0.0,0.0,0.0,0.0,0.0,0.0,0.013280067059028861,0.001911240605124086,9.810584678769798,0.0,0.0,0.0,0.0,0.0,0.0,0.0,0.0,0.0
2025/05/25 18:29:21.817234754,1748190561,816921475,mA1/imu,0.9837962608347817,0.17928683872204304,-0.0007120657423188372,0.0007997442947772103,0.0,0.0,0.0,0.0,0.0,0.0,0.0,0.0,0.0,-0.0012065451275905757,0.001455189794433732,0.0041751723192229445,0.0,0.0,0.0,0.0,0.0,0.0,0.0,0.0,0.0,0.017267956505561146,0.32543583365464185,9.8091450302799,0.0,0.0,0.0,0.0,0.0,0.0,0.0,0.0,0.0
2025/05/25 18:29:21.868355406,1748190561,868041611,mA1/imu,0.9838145827141833,0.1791863840496403,-0.0006668041365283768,0.000813622993654739,0.0,0.0,0.0,0.0,0.0,0.0,0.0,0.0,0.0,-0.0015269058669529273,0.0018405136446779879,0.004030047823454994,0.0,0.0,0.0,0.0,0.0,0.0,0.0,0.0,0.0,0.017540955401181488,0.5665876204390171,9.809690297313018,0.0,0.0,0.0,0.0,0.0,0.0,0.0,0.0,0.0
2025/05/25 18:29:21.918216232,1748190561,917900656,mA1/imu,0.9838322397779679,0.17908959945166975,-0.0006142769273506004,0.000813637243495116,0.0,0.0,0.0,0.0,0.0,0.0,0.0,0.0,0.0,-0.0018390550737364163,0.0022404624315944693,0.003868357279482914,0.0,0.0,0.0,0.0,0.0,0.0,0.0,0.0,0.0,0.015135701531328032,0.5517011816410724,9.80934410556405,0.0,0.0,0.0,0.0,0.0,0.0,0.0,0.0,0.0
2025/05/25 18:29:21.970043868,1748190561,969746287,mA1/imu,0.9838491409129227,0.17899687542902715,-0.0005529892822969489,0.000825054181851109,0.0,0.0,0.0,0.0,0.0,0.0,0.0,0.0,0.0,-0.000783654299827491,0.0023917694191564406,0.003716538412319427,0.0,0.0,0.0,0.0,0.0,0.0,0.0,0.0,0.0,0.01931744724509546,-0.0058970780124241555,9.810797203488141,0.0,0.0,0.0,0.0,0.0,0.0,0.0,0.0,0.0
2025/05/25 18:29:22.21265402,1748190562,19553276,mA1/imu,0.9838654132726161,0.17890756627145146,-0.0004899840936610895,0.0008313917959733675,0.0,0.0,0.0,0.0,0.0,0.0,0.0,0.0,0.0,-0.0008052255434863649,0.0024341345908283087,0.003574141526183023,0.0,0.0,0.0,0.0,0.0,0.0,0.0,0.0,0.0,0.019430212128818288,0.16734965115912942,9.81090092792174,0.0,0.0,0.0,0.0,0.0,0.0,0.0,0.0,0.0
2025/05/25 18:29:22.71593011,1748190562,71271313,mA1/imu,0.9838810471126902,0.1788216780044039,-0.0004267848322132573,0.000842889573227401,0.0,0.0,0.0,0.0,0.0,0.0,0.0,0.0,0.0,-0.0021113267122000864,0.0023683155223257935,0.0034400546589570167,0.0,0.0,0.0,0.0,0.0,0.0,0.0,0.0,0.0,0.019558068559208323,0.5322483807204189,9.81136424296867,0.0,0.0,0.0,0.0,0.0,0.0,0.0,0.0,0.0
2025/05/25 18:29:22.122341377,1748190562,121889314,mA1/imu,0.9838960597737041,0.1787391845085022,-0.0003688085800295459,0.0008434828075951679,0.0,0.0,0.0,0.0,0.0,0.0,0.0,0.0,0.0,4.1937723841632976e-05,0.002190501353877568,0.0032978351719987597,0.0,0.0,0.0,0.0,0.0,0.0,0.0,0.0,0.0,0.019011783487362606,-0.34442414624332923,9.808616146868815,0.0,0.0,0.0,0.0,0.0,0.0,0.0,0.0,0.0
2025/05/25 18:29:22.173287419,1748190562,172960606,mA1/imu,0.9839103598333501,0.17866053668145981,-0.00031644231324962297,0.0008463507325126936,0.0,0.0,0.0,0.0,0.0,0.0,0.0,0.0,0.0,0.0001967871359010505,0.0019214005182519253,0.003131379974860107,0.0,0.0,0.0,0.0,0.0,0.0,0.0,0.0,0.0,0.017472175016573624,0.05448198011577026,9.810410740296662,0.0,0.0,0.0,0.0,0.0,0.0,0.0,0.0,0.0
2025/05/25 18:29:22.223139741,1748190562,222923400,mA1/imu,0.9839238935371458,0.17858602469019383,-0.00027108222663023906,0.0008544158726835265,0.0,0.0,0.0,0.0,0.0,0.0,0.0,0.0,0.0,-0.00031213874010443883,0.0015896908501604867,0.0029657833436681174,0.0,0.0,0.0,0.0,0.0,0.0,0.0,0.0,0.0,0.0170307775958849,0.12165798679386897,9.810462017895574,0.0,0.0,0.0,0.0,0.0,0.0,0.0,0.0,0.0
2025/05/25 18:29:22.264780230,1748190562,264563698,mA1/imu,0.9839367210758246,0.17851534175689585,-0.00023455272039902409,0.0008640954780372541,0.0,0.0,0.0,0.0,0.0,0.0,0.0,0.0,0.0,-0.0009486713555372666,0.0012049217145373283,0.002809514173586411,0.0,0.0,0.0,0.0,0.0,0.0,0.0,0.0,0.0,0.017741363115882567,-0.04466703601500248,9.809411449063523,0.0,0.0,0.0,0.0,0.0,0.0,0.0,0.0,0.0
2025/05/25 18:29:22.316221984,1748190562,314399591,mA1/imu,0.9839487852726615,0.17844887690306807,-0.00021072117597209478,0.0008613298285705419,0.0,0.0,0.0,0.0,0.0,0.0,0.0,0.0,0.0,0.00047381535937428054,0.0007773487089346583,0.002630852244419605,0.0,0.0,0.0,0.0,0.0,0.0,0.0,0.0,0.0,0.01665147244121258,-0.48796085114361765,9.808600232628342,0.0,0.0,0.0,0.0,0.0,0.0,0.0,0.0,0.0
2025/05/25 18:29:22.365896817,1748190562,365459629,mA1/imu,0.9839600402498643,0.17838682667210942,-0.00019741235044622927,0.0008604008973384456,0.0,0.0,0.0,0.0,0.0,0.0,0.0,0.0,0.0,-0.00015337672141559443,0.00036369325810596504,0.002447289633643665,0.0,0.0,0.0,0.0,0.0,0.0,0.0,0.0,0.0,0.013820906529021557,0.45417442990662066,9.810185238600038,0.0,0.0,0.0,0.0,0.0,0.0,0.0,0.0,0.0
2025/05/25 18:29:22.415885613,1748190562,415422459,mA1/imu,0.9839704723320956,0.1783293033006642,-0.00019491199845629898,0.0008550860572370169,0.0,0.0,0.0,0.0,0.0,0.0,0.0,0.0,0.0,0.0012714004547651403,-2.758453166799284e-05,0.00226561305047992,0.0,0.0,0.0,0.0,0.0,0.0,0.0,0.0,0.0,0.01334271445189577,-0.42242733662602416,9.80990206650418,0.0,0.0,0.0,0.0,0.0,0.0,0.0,0.0,0.0
2025/05/25 18:29:22.469760674,1748190562,467619557,mA1/imu,0.9839800707885611,0.17827631613471517,-0.000199445429559008,0.0008576816973276843,0.0,0.0,0.0,0.0,0.0,0.0,0.0,0.0,0.0,-0.0005160064229036484,-0.00028803828883170834,0.002117541512964898,0.0,0.0,0.0,0.0,0.0,0.0,0.0,0.0,0.0,0.0030148969824146596,0.5361058354464472,9.80968988746063,0.0,0.0,0.0,0.0,0.0,0.0,0.0,0.0,0.0
2025/05/25 18:29:22.518572047,1748190562,518238822,mA1/imu,0.9839895859784835,0.17822380114797415,-0.0002099871669941748,0.0008528163046088683,0.0,0.0,0.0,0.0,0.0,0.0,0.0,0.0,0.0,0.00047619283057652516,-0.0004959965534095441,0.0021212742418534286,0.0,0.0,0.0,0.0,0.0,0.0,0.0,0.0,0.0,0.01248430764650883,-0.6210282679085469,9.809305894969702,0.0,0.0,0.0,0.0,0.0,0.0,0.0,0.0,0.0
2025/05/25 18:29:22.570007961,1748190562,569649624,mA1/imu,0.983998915527826,0.17817232065223168,-0.00022879407390593827,0.0008402658700010343,0.0,0.0,0.0,0.0,0.0,0.0,0.0,0.0,0.0,0.00017821917575565162,-0.0007494758459481257,0.0020728133393126823,0.0,0.0,0.0,0.0,0.0,0.0,0.0,0.0,0.0,0.01242796834238315,-0.025664299743815427,9.809740363901184,0.0,0.0,0.0,0.0,0.0,0.0,0.0,0.0,0.0
2025/05/25 18:29:22.620590787,1748190562,620256943,mA1/imu,0.9840078258828572,0.1781231295213287,-0.0002530774820375132,0.0008278179803857055,0.0,0.0,0.0,0.0,0.0,0.0,0.0,0.0,0.0,0.0005564869592267495,-0.0009444940667320408,0.001951031274947979,0.0,0.0,0.0,0.0,0.0,0.0,0.0,0.0,0.0,0.011638294499839611,-0.3949803839444734,9.809753848015418,0.0,0.0,0.0,0.0,0.0,0.0,0.0,0.0,0.0
2025/05/25 18:29:22.671514323,1748190562,671223047,mA1/imu,0.9840163925852053,0.17807583985474149,-0.000282479017388043,0.0008090668896487546,0.0,0.0,0.0,0.0,0.0,0.0,0.0,0.0,0.0,0.0010232656434318007,-0.0010728795977652504,0.0018994322923521756,0.0,0.0,0.0,0.0,0.0,0.0,0.0,0.0,0.0,0.01228383395703534,0.019527246814807997,9.808840335511528,0.0,0.0,0.0,0.0,0.0,0.0,0.0,0.0,0.0
2025/05/25 18:29:22.721819254,1748190562,721577117,mA1/imu,0.9840248815935981,0.178028937378477,-0.0003140094713260091,0.0007945178709713375,0.0,0.0,0.0,0.0,0.0,0.0,0.0,0.0,0.0,0.0021092242683393137,-0.0011885367976059895,0.0019097808531337364,0.0,0.0,0.0,0.0,0.0,0.0,0.0,0.0,0.0,0.012868584750844236,-0.23130222804446052,9.809516039223361,0.0,0.0,0.0,0.0,0.0,0.0,0.0,0.0,0.0
2025/05/25 18:29:22.772734829,1748190562,772483931,mA1/imu,0.9840337058271443,0.17798016700225258,-0.0003445302228127429,0.0007792617487485693,0.0,0.0,0.0,0.0,0.0,0.0,0.0,0.0,0.0,0.0005707599987987099,-0.0009441962595672876,0.0021171790373342627,0.0,0.0,0.0,0.0,0.0,0.0,0.0,0.0,0.0,-0.0021991127854753944,-0.013165839752267965,9.810591287113889,0.0,0.0,0.0,0.0,0.0,0.0,0.0,0.0,0.0
2025/05/25 18:29:22.814710285,1748190562,814580575,mA1/imu,0.984043381274367,0.17792670317247525,-0.00037071122821588615,0.0007580510998841147,0.0,0.0,0.0,0.0,0.0,0.0,0.0,0.0,0.0,0.0012102629631132555,-0.0008979401843746289,0.0021514617228107383,0.0,0.0,0.0,0.0,0.0,0.0,0.0,0.0,0.0,0.013867143020155554,-0.0574173870492296,9.809587335510988,0.0,0.0,0.0,0.0,0.0,0.0,0.0,0.0,0.0
2025/05/25 18:29:22.865309854,1748190562,865145617,mA1/imu,0.9840528210209262,0.17787449639237315,-0.000396234517627688,0.0007429482644390014,0.0,0.0,0.0,0.0,0.0,0.0,0.0,0.0,0.0,0.00014682300010875003,-0.0008950377168843193,0.0021007814905812518,0.0,0.0,0.0,0.0,0.0,0.0,0.0,0.0,0.0,0.013861989103765248,0.29939068832602445,9.810975545020614,0.0,0.0,0.0,0.0,0.0,0.0,0.0,0.0,0.0
2025/05/25 18:29:22.915690344,1748190562,915093925,mA1/imu,0.9840621957449706,0.17782265268046907,-0.00042047751874382496,0.0007227018228812256,0.0,0.0,0.0,0.0,0.0,0.0,0.0,0.0,0.0,0.001779540297481952,-0.0007571895300080352,0.0021088587086222615,0.0,0.0,0.0,0.0,0.0,0.0,0.0,0.0,0.0,0.012139938078360165,-0.5537248675045053,9.808881392946232,0.0,0.0,0.0,0.0,0.0,0.0,0.0,0.0,0.0
2025/05/25 18:29:22.967211209,1748190562,966806422,mA1/imu,0.9840714524404842,0.1777714302700733,-0.00044088061567084796,0.0007075985379321728,0.0,0.0,0.0,0.0,0.0,0.0,0.0,0.0,0.0,0.0015097230152682928,-0.0006548969441246392,0.0020632441157764476,0.0,0.0,0.0,0.0,0.0,0.0,0.0,0.0,0.0,0.013231039667902027,0.06625570300905927,9.810288780112517,0.0,0.0,0.0,0.0,0.0,0.0,0.0,0.0,0.0
2025/05/25 18:29:23.17127202,1748190563,16620030,mA1/imu,0.9840804983977464,0.17772130605152855,-0.0004551188692785909,0.0007091652815767386,0.0,0.0,0.0,0.0,0.0,0.0,0.0,0.0,0.0,-0.00047294003561673144,-0.0005186158146290218,0.0020195719108281273,0.0,0.0,0.0,0.0,0.0,0.0,0.0,0.0,0.0,0.013349918131637448,-0.0576232686715086,9.808782583144614,0.0,0.0,0.0,0.0,0.0,0.0,0.0,0.0,0.0
2025/05/25 18:29:23.70493755,1748190563,70131709,mA1/imu,0.9840893647287142,0.17767221706838554,-0.0004680005446484364,0.0006974850036965104,0.0,0.0,0.0,0.0,0.0,0.0,0.0,0.0,0.0,-0.00047284897898629,-0.0003450173930529536,0.001977771170602131,0.0,0.0,0.0,0.0,0.0,0.0,0.0,0.0,0.0,0.013214926305486888,0.49617614662154014,9.809960394867812,0.0,0.0,0.0,0.0,0.0,0.0,0.0,0.0,0.0
2025/05/25 18:29:23.120559345,1748190563,120305786,mA1/imu,0.9840980445951818,0.17762415000068357,-0.0004754614430774079,0.0006884016926757762,0.0,0.0,0.0,0.0,0.0,0.0,0.0,0.0,0.0,0.0007535698014836993,-0.00014513622060633393,0.0019373017442476743,0.0,0.0,0.0,0.0,0.0,0.0,0.0,0.0,0.0,0.012620928172795202,0.05295650017299407,9.810876849729265,0.0,0.0,0.0,0.0,0.0,0.0,0.0,0.0,0.0
2025/05/25 18:29:23.173384401,1748190563,173064409,mA1/imu,0.984106532484635,0.17757708132311176,-0.00047411726076625405,0.0006986577531061669,0.0,0.0,0.0,0.0,0.0,0.0,0.0,0.0,0.0,0.00012966647134496736,5.375416737964449e-05,0.001897925832361506,0.0,0.0,0.0,0.0,0.0,0.0,0.0,0.0,0.0,0.012992880564847554,0.024243729060943332,9.810660168168146,0.0,0.0,0.0,0.0,0.0,0.0,0.0,0.0,0.0
2025/05/25 18:29:23.223147148,1748190563,222831179,mA1/imu,0.9841148450552331,0.1775309759561549,-0.00046737494365749915,0.0007112514548383941,0.0,0.0,0.0,0.0,0.0,0.0,0.0,0.0,0.0,-0.0008828153135578341,0.00025311120393602826,0.0018590798978154978,0.0,0.0,0.0,0.0,0.0,0.0,0.0,0.0,0.0,0.012741695445403944,-0.29914291705445467,9.8110384575788,0.0,0.0,0.0,0.0,0.0,0.0,0.0,0.0,0.0
2025/05/25 18:29:23.266811598,1748190563,266445414,mA1/imu,0.9841229902674383,0.17748580495420796,-0.00045634260444007643,0.0007216773930462452,0.0,0.0,0.0,0.0,0.0,0.0,0.0,0.0,0.0,-0.0010946379375435342,0.00042930647501505616,0.0018213154625689714,0.0,0.0,0.0,0.0,0.0,0.0,0.0,0.0,0.0,0.0135849519373998,-0.03537759520563824,9.810620199657604,0.0,0.0,0.0,0.0,0.0,0.0,0.0,0.0,0.0
2025/05/25 18:29:23.318560569,1748190563,317374941,mA1/imu,0.9841307581717095,0.17744273106919925,-0.00044109946840281754,0.000730371370627882,0.0,0.0,0.0,0.0,0.0,0.0,0.0,0.0,0.0,-0.0014430497980435532,0.000622164607753071,0.0017050028065423834,0.0,0.0,0.0,0.0,0.0,0.0,0.0,0.0,0.0,0.011826125717397976,-0.04829230738413186,9.808921468602586,0.0,0.0,0.0,0.0,0.0,0.0,0.0,0.0,0.0
2025/05/25 18:29:23.368692875,1748190563,368446933,mA1/imu,0.9841382006108703,0.17740145131961108,-0.00042154075636126396,0.0007412634381892312,0.0,0.0,0.0,0.0,0.0,0.0,0.0,0.0,0.0,-0.0003388057315229776,0.000740764431031565,0.001660523925307335,0.0,0.0,0.0,0.0,0.0,0.0,0.0,0.0,0.0,0.01304172277018769,0.03520857216232777,9.809118056104172,0.0,0.0,0.0,0.0,0.0,0.0,0.0,0.0,0.0
2025/05/25 18:29:23.418600697,1748190563,418300596,mA1/imu,0.9841454428368972,0.1773612682184366,-0.0003989893924368202,0.0007541132407737045,0.0,0.0,0.0,0.0,0.0,0.0,0.0,0.0,0.0,0.001146389136224694,0.000813293972684954,0.0016170089350648145,0.0,0.0,0.0,0.0,0.0,0.0,0.0,0.0,0.0,0.013226844064016917,-0.48994457174311073,9.809377526492828,0.0,0.0,0.0,0.0,0.0,0.0,0.0,0.0,0.0
2025/05/25 18:29:23.470195655,1748190563,469848837,mA1/imu,0.984152495685549,0.17732208290146068,-0.0003727466543511504,0.0007779532922262223,0.0,0.0,0.0,0.0,0.0,0.0,0.0,0.0,0.0,-0.0004397470855361875,0.0008881142890215919,0.0015899398060533682,0.0,0.0,0.0,0.0,0.0,0.0,0.0,0.0,0.0,0.009462318216166608,0.03354631905487748,9.811034465601367,0.0,0.0,0.0,0.0,0.0,0.0,0.0,0.0,0.0
2025/05/25 18:29:23.520288274,1748190563,519823317,mA1/imu,0.9841595776206589,0.1772827212506246,-0.00034438504850205535,0.0008024477789420472,0.0,0.0,0.0,0.0,0.0,0.0,0.0,0.0,0.0,-0.0019491615447566099,0.000943761209727249,0.0015926848747628939,0.0,0.0,0.0,0.0,0.0,0.0,0.0,0.0,0.0,0.013455851374815633,-0.06918298203705107,9.811137948747083,0.0,0.0,0.0,0.0,0.0,0.0,0.0,0.0,0.0
2025/05/25 18:29:23.571906891,1748190563,571489952,mA1/imu,0.9841665230139676,0.17724413541739087,-0.00031894794209381386,0.0008183586925281154,0.0,0.0,0.0,0.0,0.0,0.0,0.0,0.0,0.0,-0.001958991430896368,0.0008246119664672985,0.0015629206460027695,0.0,0.0,0.0,0.0,0.0,0.0,0.0,0.0,0.0,0.01926198987991809,-0.07388582496516856,9.81073730786206,0.0,0.0,0.0,0.0,0.0,0.0,0.0,0.0,0.0
2025/05/25 18:29:23.622405826,1748190563,621948904,mA1/imu,0.9841734198279063,0.17720583847741206,-0.000300029154207184,0.0008249219766588891,0.0,0.0,0.0,0.0,0.0,0.0,0.0,0.0,0.0,-0.00047078326648786005,0.0006380788752448829,0.0015427974937624476,0.0,0.0,0.0,0.0,0.0,0.0,0.0,0.0,0.0,0.014673239428446136,0.019617465232426134,9.80821140792423,0.0,0.0,0.0,0.0,0.0,0.0,0.0,0.0,0.0
2025/05/25 18:29:23.673919203,1748190563,673658398,mA1/imu,0.9841801451365543,0.17716845424039504,-0.0002845008614434692,0.0008365406862554211,0.0,0.0,0.0,0.0,0.0,0.0,0.0,0.0,0.0,-1.4226337688431448e-05,0.0004500295935388895,0.0015045805627831384,0.0,0.0,0.0,0.0,0.0,0.0,0.0,0.0,0.0,0.014710650491491855,0.09350309985566002,9.80906989524799,0.0,0.0,0.0,0.0,0.0,0.0,0.0,0.0,0.0
2025/05/25 18:29:23.714123787,1748190563,713941457,mA1/imu,0.984186698071016,0.1771319939229859,-0.00027351139581650115,0.0008516222487654777,0.0,0.0,0.0,0.0,0.0,0.0,0.0,0.0,0.0,-0.00016389949801022815,0.00024043679266705874,0.0014676874159931272,0.0,0.0,0.0,0.0,0.0,0.0,0.0,0.0,0.0,0.01466123829485707,0.021761581341238966,9.810208544610171,0.0,0.0,0.0,0.0,0.0,0.0,0.0,0.0,0.0
2025/05/25 18:29:23.765811520,1748190563,765322665,mA1/imu,0.9841930917328269,0.1770964218265724,-0.0002685588813765537,0.0008622283520971744,0.0,0.0,0.0,0.0,0.0,0.0,0.0,0.0,0.0,0.0006835237705804801,3.102210141411514e-05,0.001432083133077296,0.0,0.0,0.0,0.0,0.0,0.0,0.0,0.0,0.0,0.014506342360200134,-0.5605070070637661,9.808623054696572,0.0,0.0,0.0,0.0,0.0,0.0,0.0,0.0,0.0
2025/05/25 18:29:23.815464400,1748190563,815310796,mA1/imu,0.9841993375634065,0.1770616964171275,-0.0002705817548952585,0.0008639370084594067,0.0,0.0,0.0,0.0,0.0,0.0,0.0,0.0,0.0,-8.847200392168588e-05,-0.0001807535741678552,0.0013976124106796488,0.0,0.0,0.0,0.0,0.0,0.0,0.0,0.0,0.0,0.014942470782534918,-0.0002632144437235903,9.810202798024587,0.0,0.0,0.0,0.0,0.0,0.0,0.0,0.0,0.0
2025/05/25 18:29:23.868191637,1748190563,867291383,mA1/imu,0.9842054217044043,0.177027858509932,-0.00027788160916164897,0.0008648588640651063,0.0,0.0,0.0,0.0,0.0,0.0,0.0,0.0,0.0,0.00020021307660946194,-0.00035756596720813776,0.001352119201787184,0.0,0.0,0.0,0.0,0.0,0.0,0.0,0.0,0.0,0.011485450090451953,0.005930819384827462,9.809824044815343,0.0,0.0,0.0,0.0,0.0,0.0,0.0,0.0,0.0
2025/05/25 18:29:23.917726569,1748190563,917237747,mA1/imu,0.9842112175992008,0.17699565595531194,-0.00028942884466796393,0.0008562451700422645,0.0,0.0,0.0,0.0,0.0,0.0,0.0,0.0,0.0,0.001063665181905609,-0.00044385537733803197,0.0012884394246442028,0.0,0.0,0.0,0.0,0.0,0.0,0.0,0.0,0.0,0.0134732442572646,-0.5749796939039888,9.809514614490519,0.0,0.0,0.0,0.0,0.0,0.0,0.0,0.0,0.0
2025/05/25 18:29:23.970040763,1748190563,969772452,mA1/imu,0.9842168154730027,0.17696453926271882,-0.0003036560673754981,0.0008483965511280002,0.0,0.0,0.0,0.0,0.0,0.0,0.0,0.0,0.0,0.00045019582472132554,-0.0005511829430027303,0.001248051850413811,0.0,0.0,0.0,0.0,0.0,0.0,0.0,0.0,0.0,0.013075907303842386,0.0007213564832715506,9.810396722595573,0.0,0.0,0.0,0.0,0.0,0.0,0.0,0.0,0.0
2025/05/25 18:29:24.22217419,1748190564,21692516,mA1/imu,0.9842226783590612,0.17693196722370752,-0.00031744635901666143,0.0008352280372229328,0.0,0.0,0.0,0.0,0.0,0.0,0.0,0.0,0.0,0.0008155233240070343,-0.00040276542522106563,0.0013656480553937312,0.0,0.0,0.0,0.0,0.0,0.0,0.0,0.0,0.0,0.010599723503946173,-0.22803260985345436,9.810272568617997,0.0,0.0,0.0,0.0,0.0,0.0,0.0,0.0,0.0
2025/05/25 18:29:24.71604535,1748190564,71159781,mA1/imu,0.9842286496364435,0.1768988136894178,-0.0003321747156643421,0.0008152361976467594,0.0,0.0,0.0,0.0,0.0,0.0,0.0,0.0,0.0,0.0003367129439295063,-0.00045752961335817526,0.0013345155277957085,0.0,0.0,0.0,0.0,0.0,0.0,0.0,0.0,0.0,0.013305968487821833,0.32499629681499775,9.810518303785283,0.0,0.0,0.0,0.0,0.0,0.0,0.0,0.0,0.0
2025/05/25 18:29:24.121674699,1748190564,121095077,mA1/imu,0.9842344852903605,0.17686639163399553,-0.00034743823254591285,0.0007979738489418766,0.0,0.0,0.0,0.0,0.0,0.0,0.0,0.0,0.0,0.0002333419475919868,-0.0004834604934296478,0.0013054238960348806,0.0,0.0,0.0,0.0,0.0,0.0,0.0,0.0,0.0,0.012675130047745557,-0.041986637271008015,9.810505908658815,0.0,0.0,0.0,0.0,0.0,0.0,0.0,0.0,0.0
2025/05/25 18:29:24.173428677,1748190564,172266451,mA1/imu,0.9842401991718587,0.1768346748558874,-0.00036441846800501374,0.0007715581202055008,0.0,0.0,0.0,0.0,0.0,0.0,0.0,0.0,0.0,-0.0007681376122783101,-0.0004678141917490405,0.0012767195050519828,0.0,0.0,0.0,0.0,0.0,0.0,0.0,0.0,0.0,0.013426334933167668,0.5103542671186854,9.810935794770133,0.0,0.0,0.0,0.0,0.0,0.0,0.0,0.0,0.0
2025/05/25 18:29:24.222498765,1748190564,222184034,mA1/imu,0.9842457870409077,0.1768036560472831,-0.0003812087018493269,0.0007433575611108478,0.0,0.0,0.0,0.0,0.0,0.0,0.0,0.0,0.0,0.0006470492868607746,-0.00044333305063409264,0.0012485490299113053,0.0,0.0,0.0,0.0,0.0,0.0,0.0,0.0,0.0,0.012697520288403331,0.3625665216132907,9.810476909734312,0.0,0.0,0.0,0.0,0.0,0.0,0.0,0.0,0.0
2025/05/25 18:29:24.265781473,1748190564,265555552,mA1/imu,0.9842512516523422,0.1767733123093983,-0.0003967169084991489,0.0007157455245706223,0.0,0.0,0.0,0.0,0.0,0.0,0.0,0.0,0.0,0.0003588936880498136,-0.00038641187322818456,0.001221612933414553,0.0,0.0,0.0,0.0,0.0,0.0,0.0,0.0,0.0,0.012583052656649467,0.5888009121981681,9.810218780356239,0.0,0.0,0.0,0.0,0.0,0.0,0.0,0.0,0.0
2025/05/25 18:29:24.315598082,1748190564,315405128,mA1/imu,0.9842565928070128,0.17674363459338946,-0.0004095725569337464,0.0006923849862488696,0.0,0.0,0.0,0.0,0.0,0.0,0.0,0.0,0.0,0.0008650524248550648,-0.0003108261528227814,0.0011948031688047756,0.0,0.0,0.0,0.0,0.0,0.0,0.0,0.0,0.0,0.012837348559760922,0.4594087129359028,9.811608153013223,0.0,0.0,0.0,0.0,0.0,0.0,0.0,0.0,0.0
2025/05/25 18:29:24.367628315,1748190564,367241447,mA1/imu,0.9842618265768996,0.17671453267513496,-0.00041905531036490456,0.0006745943677421004,0.0,0.0,0.0,0.0,0.0,0.0,0.0,0.0,0.0,0.0003769955128239612,-0.00019363090825290526,0.0011847341929527482,0.0,0.0,0.0,0.0,0.0,0.0,0.0,0.0,0.0,0.009183807229533991,-0.028686528962169597,9.810248757555915,0.0,0.0,0.0,0.0,0.0,0.0,0.0,0.0,0.0
2025/05/25 18:29:24.417708052,1748190564,417200223,mA1/imu,0.9842671742394612,0.176684831967642,-0.00042611695985756966,0.0006467546433707424,0.0,0.0,0.0,0.0,0.0,0.0,0.0,0.0,0.0,0.0007914015208737318,-1.4081166229610475e-05,0.0012054214290218178,0.0,0.0,0.0,0.0,0.0,0.0,0.0,0.0,0.0,0.011810720980570028,0.012593596558810274,9.810478388119966,0.0,0.0,0.0,0.0,0.0,0.0,0.0,0.0,0.0
2025/05/25 18:29:24.473302362,1748190564,472862980,mA1/imu,0.9842724434252856,0.17665552319000774,-0.00042712605589320836,0.0006330903685726752,0.0,0.0,0.0,0.0,0.0,0.0,0.0,0.0,0.0,0.0009664184597288631,9.863991113535118e-05,0.0011816903072623104,0.0,0.0,0.0,0.0,0.0,0.0,0.0,0.0,0.0,0.012142498067785997,-0.3230126534325359,9.809974643879187,0.0,0.0,0.0,0.0,0.0,0.0,0.0,0.0,0.0
2025/05/25 18:29:24.523249717,1748190564,522944524,mA1/imu,0.9842776133580354,0.17662677616815914,-0.0004258344121966218,0.0006168044310139914,0.0,0.0,0.0,0.0,0.0,0.0,0.0,0.0,0.0,0.0011091743039132334,0.0002105553635509041,0.0011590754612676875,0.0,0.0,0.0,0.0,0.0,0.0,0.0,0.0,0.0,0.011986639819974072,-0.17086671678698928,9.809007563455799,0.0,0.0,0.0,0.0,0.0,0.0,0.0,0.0,0.0
2025/05/25 18:29:24.574392570,1748190564,573916449,mA1/imu,0.9842826880920793,0.17659853496636305,-0.0004196724830417997,0.000609298754201379,0.0,0.0,0.0,0.0,0.0,0.0,0.0,0.0,0.0,-0.00021779406422026335,0.0003525843109617555,0.0011409163339925394,0.0,0.0,0.0,0.0,0.0,0.0,0.0,0.0,0.0,0.011157571123385973,0.6093797126551156,9.810629264958987,0.0,0.0,0.0,0.0,0.0,0.0,0.0,0.0,0.0
2025/05/25 18:29:24.624070546,1748190564,623820278,mA1/imu,0.9842876849282873,0.17657071347690634,-0.0004090464092660133,0.0006075539513079115,0.0,0.0,0.0,0.0,0.0,0.0,0.0,0.0,0.0,-0.000695908758438163,0.0004808029696489753,0.0011243059953353074,0.0,0.0,0.0,0.0,0.0,0.0,0.0,0.0,0.0,0.010851235796114226,-0.03676857491044854,9.810161748712611,0.0,0.0,0.0,0.0,0.0,0.0,0.0,0.0,0.0
2025/05/25 18:29:24.667563740,1748190564,666618712,mA1/imu,0.9842926109440844,0.17654329312477884,-0.0003963644962456386,0.0006038118265093845,0.0,0.0,0.0,0.0,0.0,0.0,0.0,0.0,0.0,-0.00011803801445535064,0.000560559264208603,0.001108840737592741,0.0,0.0,0.0,0.0,0.0,0.0,0.0,0.0,0.0,0.010733240477413995,0.01672703850476698,9.809104708804647,0.0,0.0,0.0,0.0,0.0,0.0,0.0,0.0,0.0
2025/05/25 18:29:24.720680205,1748190564,718546159,mA1/imu,0.9842970046729093,0.17651879485609143,-0.00038147088451744536,0.0006132980160235258,0.0,0.0,0.0,0.0,0.0,0.0,0.0,0.0,0.0,-0.0008274030075165438,0.0004762086338710579,0.0009093429847931901,0.0,0.0,0.0,0.0,0.0,0.0,0.0,0.0,0.0,0.015669830356137934,-0.016965976113500973,9.810216779815288,0.0,0.0,0.0,0.0,0.0,0.0,0.0,0.0,0.0
2025/05/25 18:29:24.771149937,1748190564,770831985,mA1/imu,0.9843008523209447,0.17649735315046666,-0.0003685969345252632,0.0006169176939887337,0.0,0.0,0.0,0.0,0.0,0.0,0.0,0.0,0.0,-0.00013434087729634754,0.0005087298251749429,0.0008606885518814022,0.0,0.0,0.0,0.0,0.0,0.0,0.0,0.0,0.0,0.009701493546936191,0.04456206884069254,9.809616475625791,0.0,0.0,0.0,0.0,0.0,0.0,0.0,0.0,0.0
2025/05/25 18:29:24.820987170,1748190564,820698678,mA1/imu,0.9843045919007365,0.17647649129128218,-0.00035272941805168114,0.0006276675874785101,0.0,0.0,0.0,0.0,0.0,0.0,0.0,0.0,0.0,0.000814914031175749,0.0005599194830273604,0.0008402062970284705,0.0,0.0,0.0,0.0,0.0,0.0,0.0,0.0,0.0,0.00992088892222203,-0.5107534208463749,9.809280552707115,0.0,0.0,0.0,0.0,0.0,0.0,0.0,0.0,0.0
2025/05/25 18:29:24.872124001,1748190564,871902951,mA1/imu,0.984308249029786,0.1764560458075833,-0.0003333243018802809,0.0006509107301634781,0.0,0.0,0.0,0.0,0.0,0.0,0.0,0.0,0.0,-0.00032948419609987885,0.0006282241583314423,0.0008381860942381018,0.0,0.0,0.0,0.0,0.0,0.0,0.0,0.0,0.0,0.0054784243796674615,0.048594832934880164,9.810965366023302,0.0,0.0,0.0,0.0,0.0,0.0,0.0,0.0,0.0
2025/05/25 18:29:24.922043637,1748190564,921703018,mA1/imu,0.9843120572714392,0.17643478465126577,-0.0003132138135391235,0.0006652610281935853,0.0,0.0,0.0,0.0,0.0,0.0,0.0,0.0,0.0,-0.0002780419743286434,0.0006888205826621494,0.0008654255368683367,0.0,0.0,0.0,0.0,0.0,0.0,0.0,0.0,0.0,0.010546018327772294,0.14419974074731046,9.81101343752705,0.0,0.0,0.0,0.0,0.0,0.0,0.0,0.0,0.0
2025/05/25 18:29:24.973669800,1748190564,973345524,mA1/imu,0.9843158122575381,0.17641379437002006,-0.00029268396923871047,0.0006850049997035262,0.0,0.0,0.0,0.0,0.0,0.0,0.0,0.0,0.0,-0.00089917217068308,0.0006489871772678906,0.0008459384499534034,0.0,0.0,0.0,0.0,0.0,0.0,0.0,0.0,0.0,0.010113718156897811,0.3894552105587603,9.810631697268324,0.0,0.0,0.0,0.0,0.0,0.0,0.0,0.0,0.0
2025/05/25 18:29:25.23665643,1748190565,23267746,mA1/imu,0.9843194779397038,0.1763932785572238,-0.0002731808468715547,0.0007085199838761823,0.0,0.0,0.0,0.0,0.0,0.0,0.0,0.0,0.0,-0.0023957898683947296,0.0005787643639298892,0.0008267140832813563,0.0,0.0,0.0,0.0,0.0,0.0,0.0,0.0,0.0,0.009900256976973346,0.5427962415401631,9.80971503845317,0.0,0.0,0.0,0.0,0.0,0.0,0.0,0.0,0.0
2025/05/25 18:29:25.74633206,1748190565,74176413,mA1/imu,0.9843230659991073,0.17637321616397753,-0.0002580082115317786,0.0007237360394183317,0.0,0.0,0.0,0.0,0.0,0.0,0.0,0.0,0.0,8.115599294896629e-05,0.00044436561494434995,0.0008086454091784007,0.0,0.0,0.0,0.0,0.0,0.0,0.0,0.0,0.0,0.010027053143490068,-0.1549757038141867,9.809026122488953,0.0,0.0,0.0,0.0,0.0,0.0,0.0,0.0,0.0
2025/05/25 18:29:25.114308796,1748190565,114170212,mA1/imu,0.9843265733716692,0.17635358661342743,-0.0002454168101139397,0.0007410894397408666,0.0,0.0,0.0,0.0,0.0,0.0,0.0,0.0,0.0,-0.0007269009523208392,0.0003114160586792838,0.0007912305622036178,0.0,0.0,0.0,0.0,0.0,0.0,0.0,0.0,0.0,0.010941632706439778,0.29547925674947284,9.810471700635022,0.0,0.0,0.0,0.0,0.0,0.0,0.0,0.0,0.0
2025/05/25 18:29:25.165498227,1748190565,165225860,mA1/imu,0.9843299997417643,0.17633438361940867,-0.0002358721302886064,0.0007623163907043483,0.0,0.0,0.0,0.0,0.0,0.0,0.0,0.0,0.0,-0.0018502402576192683,0.0001697934380827865,0.0007734998903066732,0.0,0.0,0.0,0.0,0.0,0.0,0.0,0.0,0.0,0.010706530100757457,0.5558896878461109,9.81128118834767,0.0,0.0,0.0,0.0,0.0,0.0,0.0,0.0,0.0
2025/05/25 18:29:25.216202510,1748190565,216044027,mA1/imu,0.9843333551985565,0.17631562032784595,-0.000232316837625433,0.0007706496260057595,0.0,0.0,0.0,0.0,0.0,0.0,0.0,0.0,0.0,0.00022854272301567154,2.090059310023698e-05,0.0007554195325892335,0.0,0.0,0.0,0.0,0.0,0.0,0.0,0.0,0.0,0.009741521082080845,-0.5682505475235488,9.809555067468208,0.0,0.0,0.0,0.0,0.0,0.0,0.0,0.0,0.0
2025/05/25 18:29:25.267521727,1748190565,267043275,mA1/imu,0.9843366279966066,0.17629729858886936,-0.00023188986672064097,0.0007819984825714882,0.0,0.0,0.0,0.0,0.0,0.0,0.0,0.0,0.0,0.0003466865866601434,-0.00013191656104985402,0.0007372894924941576,0.0,0.0,0.0,0.0,0.0,0.0,0.0,0.0,0.0,0.010398635099728583,-0.5755452277644717,9.811153023208716,0.0,0.0,0.0,0.0,0.0,0.0,0.0,0.0,0.0
2025/05/25 18:29:25.317334113,1748190565,316907484,mA1/imu,0.9843398249703751,0.1762794177842411,-0.00023672933130848236,0.0007872751512424209,0.0,0.0,0.0,0.0,0.0,0.0,0.0,0.0,0.0,-0.0003710379825276989,-0.0002880158490604887,0.0007194424715505366,0.0,0.0,0.0,0.0,0.0,0.0,0.0,0.0,0.0,0.010329016935989402,-0.007167142815787232,9.808392241904816,0.0,0.0,0.0,0.0,0.0,0.0,0.0,0.0,0.0
2025/05/25 18:29:25.370621749,1748190565,369624565,mA1/imu,0.984342938986274,0.1762620273510056,-0.0002465628275216161,0.0007844671759738681,0.0,0.0,0.0,0.0,0.0,0.0,0.0,0.0,0.0,-0.0008666942726069641,-0.0004238433538304569,0.0006873578978993454,0.0,0.0,0.0,0.0,0.0,0.0,0.0,0.0,0.0,0.013467872687684311,0.5472923070837615,9.809906929629959,0.0,0.0,0.0,0.0,0.0,0.0,0.0,0.0,0.0
2025/05/25 18:29:25.419958219,1748190565,419694693,mA1/imu,0.9843457815352062,0.17624614258952176,-0.0002606373522138389,0.0007820897191642452,0.0,0.0,0.0,0.0,0.0,0.0,0.0,0.0,0.0,0.0009963473888309985,-0.0005860528966133958,0.0006312559241267066,0.0,0.0,0.0,0.0,0.0,0.0,0.0,0.0,0.0,0.00910953199306961,-0.5648532302924838,9.809012222924705,0.0,0.0,0.0,0.0,0.0,0.0,0.0,0.0,0.0
2025/05/25 18:29:25.471435507,1748190565,470712591,mA1/imu,0.9843485349720846,0.1762307602493712,-0.0002768738551614798,0.0007772908772096792,0.0,0.0,0.0,0.0,0.0,0.0,0.0,0.0,0.0,-0.00021579109223239718,-0.0005996365570340384,0.0006298940094203252,0.0,0.0,0.0,0.0,0.0,0.0,0.0,0.0,0.0,0.005925681022868733,0.5956444887626468,9.810999302520061,0.0,0.0,0.0,0.0,0.0,0.0,0.0,0.0,0.0
2025/05/25 18:29:25.522319626,1748190565,521487583,mA1/imu,0.9843514526250889,0.17621447897231202,-0.0002926848313288908,0.000767757112281678,0.0,0.0,0.0,0.0,0.0,0.0,0.0,0.0,0.0,0.00018691311754896772,-0.0005393614510275763,0.0006657814003395377,0.0,0.0,0.0,0.0,0.0,0.0,0.0,0.0,0.0,0.009006125755992628,0.17325014306175496,9.810164788231935,0.0,0.0,0.0,0.0,0.0,0.0,0.0,0.0,0.0
2025/05/25 18:29:25.572749081,1748190565,572514688,mA1/imu,0.9843543388720732,0.176198405751479,-0.00030981223222861966,0.000749246782887487,0.0,0.0,0.0,0.0,0.0,0.0,0.0,0.0,0.0,0.0016526735049792066,-0.0005456712260193322,0.0006299923184917461,0.0,0.0,0.0,0.0,0.0,0.0,0.0,0.0,0.0,0.012380479646543867,0.08267860747772018,9.811550193611478,0.0,0.0,0.0,0.0,0.0,0.0,0.0,0.0,0.0
2025/05/25 18:29:25.623060316,1748190565,622632159,mA1/imu,0.9843569652111173,0.1761837392716105,-0.000324964990418471,0.0007412519055760333,0.0,0.0,0.0,0.0,0.0,0.0,0.0,0.0,0.0,0.0008303339333104762,-0.0005236736965357039,0.0005873524974876667,0.0,0.0,0.0,0.0,0.0,0.0,0.0,0.0,0.0,0.008952515647066842,0.01933734546381294,9.809045455812814,0.0,0.0,0.0,0.0,0.0,0.0,0.0,0.0,0.0
2025/05/25 18:29:25.674343493,1748190565,674057532,mA1/imu,0.984359515089258,0.17616949516344504,-0.00033873090686670286,0.0007343626287585732,0.0,0.0,0.0,0.0,0.0,0.0,0.0,0.0,0.0,0.0013139711022130908,-0.0005161279882729462,0.0005772499340408733,0.0,0.0,0.0,0.0,0.0,0.0,0.0,0.0,0.0,0.015527894472139547,-0.5746178103453636,9.809488921139481,0.0,0.0,0.0,0.0,0.0,0.0,0.0,0.0,0.0
2025/05/25 18:29:25.714617140,1748190565,714234111,mA1/imu,0.9843622382272108,0.17615433502641778,-0.00035697362809875694,0.0007118802884990653,0.0,0.0,0.0,0.0,0.0,0.0,0.0,0.0,0.0,0.00121784398174463,-0.000598858888477143,0.0006551650026691316,0.0,0.0,0.0,0.0,0.0,0.0,0.0,0.0,0.0,0.014962992597327137,-0.13538778415289715,9.810646376410771,0.0,0.0,0.0,0.0,0.0,0.0,0.0,0.0,0.0
2025/05/25 18:29:25.765373650,1748190565,765150962,mA1/imu,0.9843653439633825,0.17613701544097818,-0.00037476600985550553,0.0006935025838092594,0.0,0.0,0.0,0.0,0.0,0.0,0.0,0.0,0.0,0.0015098128968610849,-0.00045880139121948384,0.0007670922681706366,0.0,0.0,0.0,0.0,0.0,0.0,0.0,0.0,0.0,-0.0075764588673928445,0.16942883076980214,9.80962242163951,0.0,0.0,0.0,0.0,0.0,0.0,0.0,0.0,0.0
2025/05/25 18:29:25.816527153,1748190565,816352060,mA1/imu,0.9843696329660931,0.17611307234437712,-0.00038200754863429854,0.0006822857581692818,0.0,0.0,0.0,0.0,0.0,0.0,0.0,0.0,0.0,0.000791247012386538,-0.00021957132272445927,0.0010323866627399685,0.0,0.0,0.0,0.0,0.0,0.0,0.0,0.0,0.0,0.019876710989094097,0.015651072674927678,9.81191509782888,0.0,0.0,0.0,0.0,0.0,0.0,0.0,0.0,0.0
2025/05/25 18:29:25.867841425,1748190565,867529374,mA1/imu,0.9843741307404508,0.17608795695743634,-0.00039208199622153806,0.0006696381458394428,0.0,0.0,0.0,0.0,0.0,0.0,0.0,0.0,0.0,0.0002160277177799307,-0.00038561577178426563,0.001004956526127838,0.0,0.0,0.0,0.0,0.0,0.0,0.0,0.0,0.0,0.020570707897594544,-0.17941372949406442,9.8119975500615,0.0,0.0,0.0,0.0,0.0,0.0,0.0,0.0,0.0
2025/05/25 18:29:25.917624718,1748190565,917461883,mA1/imu,0.9843785819471952,0.17606310355610014,-0.000407870002545505,0.0006516225012752402,0.0,0.0,0.0,0.0,0.0,0.0,0.0,0.0,0.0,0.0012139485140649465,-0.0005685787430876589,0.0009808076678503403,0.0,0.0,0.0,0.0,0.0,0.0,0.0,0.0,0.0,0.019857594287161655,-0.4635591089872389,9.807684858012845,0.0,0.0,0.0,0.0,0.0,0.0,0.0,0.0,0.0
2025/05/25 18:29:25.971717526,1748190565,971430951,mA1/imu,0.9843827226751728,0.17603994983082272,-0.00042506320028214806,0.0006408458871341529,0.0,0.0,0.0,0.0,0.0,0.0,0.0,0.0,0.0,0.0002132689229429639,-0.00053741843924896,0.0009911024391728212,0.0,0.0,0.0,0.0,0.0,0.0,0.0,0.0,0.0,-0.0033596721446988824,0.0045728484790109655,9.806622686828932,0.0,0.0,0.0,0.0,0.0,0.0,0.0,0.0,0.0
2025/05/25 18:29:26.23078845,1748190566,21746395,mA1/imu,0.9843879718701064,0.1760105862324175,-0.00043371463200014257,0.0006373877920615969,0.0,0.0,0.0,0.0,0.0,0.0,0.0,0.0,0.0,-0.0009933126036332817,-0.00029622420957224166,0.001220653981261715,0.0,0.0,0.0,0.0,0.0,0.0,0.0,0.0,0.0,0.02011657570186922,0.10072857215833514,9.809603416215145,0.0,0.0,0.0,0.0,0.0,0.0,0.0,0.0,0.0
2025/05/25 18:29:26.73048963,1748190566,72830112,mA1/imu,0.9843931917210821,0.17598139145066674,-0.0004452500249421066,0.0006290538001749897,0.0,0.0,0.0,0.0,0.0,0.0,0.0,0.0,0.0,0.0002257714955110127,-0.0003576079726326876,0.0012265670029620497,0.0,0.0,0.0,0.0,0.0,0.0,0.0,0.0,0.0,0.002424475633587178,0.026024752570039538,9.809881925968911,0.0,0.0,0.0,0.0,0.0,0.0,0.0,0.0,0.0
2025/05/25 18:29:26.123619385,1748190566,123244682,mA1/imu,0.9843989700307676,0.17594903887107188,-0.00045224159293700005,0.00063166466708428,0.0,0.0,0.0,0.0,0.0,0.0,0.0,0.0,0.0,1.33964086961288e-05,-0.0003379985050306766,0.0013092954418844386,0.0,0.0,0.0,0.0,0.0,0.0,0.0,0.0,0.0,0.021445101628715213,0.1453555464365045,9.810133644338189,0.0,0.0,0.0,0.0,0.0,0.0,0.0,0.0,0.0
2025/05/25 18:29:26.174524237,1748190566,174208541,mA1/imu,0.9844046040796159,0.17591743003997037,-0.00045951090362101823,0.000649711255758671,0.0,0.0,0.0,0.0,0.0,0.0,0.0,0.0,0.0,-0.0021312821403752145,-0.0004641362167787399,0.001283849588585515,0.0,0.0,0.0,0.0,0.0,0.0,0.0,0.0,0.0,0.02177614187647447,0.48570806856022786,9.810635546133852,0.0,0.0,0.0,0.0,0.0,0.0,0.0,0.0,0.0
2025/05/25 18:29:26.214066029,1748190566,213914919,mA1/imu,0.9844103009058931,0.17588547639981464,-0.0004707849839644,0.0006610775130555035,0.0,0.0,0.0,0.0,0.0,0.0,0.0,0.0,0.0,-0.001298938555641305,-0.0005550307452554302,0.0012843749484461868,0.0,0.0,0.0,0.0,0.0,0.0,0.0,0.0,0.0,0.021911130603831434,-0.040555461967837214,9.81057270770712,0.0,0.0,0.0,0.0,0.0,0.0,0.0,0.0,0.0
2025/05/25 18:29:26.265549707,1748190566,265165612,mA1/imu,0.9844158211258718,0.17585446714388864,-0.0004831006415921171,0.0006812608786896876,0.0,0.0,0.0,0.0,0.0,0.0,0.0,0.0,0.0,-0.0008246775084717788,-0.0006545066020992383,0.0012467627406445845,0.0,0.0,0.0,0.0,0.0,0.0,0.0,0.0,0.0,0.020914187581545455,0.0040491126059387945,9.809832034666451,0.0,0.0,0.0,0.0,0.0,0.0,0.0,0.0,0.0
2025/05/25 18:29:26.315135571,1748190566,315046303,mA1/imu,0.9844211940619685,0.17582425158778361,-0.0004956064746881646,0.0007068305500765931,0.0,0.0,0.0,0.0,0.0,0.0,0.0,0.0,0.0,-0.0010031767670308138,-0.0006790206714845923,0.0012147136304571206,0.0,0.0,0.0,0.0,0.0,0.0,0.0,0.0,0.0,0.020744436578098796,0.003605306273737995,9.810251321058715,0.0,0.0,0.0,0.0,0.0,0.0,0.0,0.0,0.0
2025/05/25 18:29:26.366459113,1748190566,366153469,mA1/imu,0.9844264179011532,0.17579484343427845,-0.0005071513234528636,0.0007372636957505708,0.0,0.0,0.0,0.0,0.0,0.0,0.0,0.0,0.0,-0.001180803731860127,-0.0006576111686963955,0.0011817116655905885,0.0,0.0,0.0,0.0,0.0,0.0,0.0,0.0,0.0,0.020362283403080002,0.00031011754840665727,9.81010394478432,0.0,0.0,0.0,0.0,0.0,0.0,0.0,0.0,0.0
2025/05/25 18:29:26.417879418,1748190566,417755774,mA1/imu,0.984431490336834,0.17576626368796677,-0.0005170091931560022,0.0007707683610573348,0.0,0.0,0.0,0.0,0.0,0.0,0.0,0.0,0.0,-0.0012859963590004955,-0.0005965838941717786,0.0011478809848345548,0.0,0.0,0.0,0.0,0.0,0.0,0.0,0.0,0.0,0.020189060972835245,-0.0013521676495412277,9.810452455789388,0.0,0.0,0.0,0.0,0.0,0.0,0.0,0.0,0.0
2025/05/25 18:29:26.471883390,1748190566,471540760,mA1/imu,0.9844364088028394,0.17573853637965356,-0.000524476888085692,0.000805467876291463,0.0,0.0,0.0,0.0,0.0,0.0,0.0,0.0,0.0,-0.001322701508447018,-0.0004949936395227578,0.0011131073225988514,0.0,0.0,0.0,0.0,0.0,0.0,0.0,0.0,0.0,0.019873314197348453,-0.001798641223967782,9.809997982545081,0.0,0.0,0.0,0.0,0.0,0.0,0.0,0.0,0.0
2025/05/25 18:29:26.521895208,1748190566,521577395,mA1/imu,0.9844411728267016,0.17571167498045814,-0.0005289834374967052,0.0008394615374582697,0.0,0.0,0.0,0.0,0.0,0.0,0.0,0.0,0.0,-0.0012875396376300632,-0.00036167306243194646,0.0010772897951935524,0.0,0.0,0.0,0.0,0.0,0.0,0.0,0.0,0.0,0.019748964145737333,-0.0016295036513837118,9.810382242895887,0.0,0.0,0.0,0.0,0.0,0.0,0.0,0.0,0.0
2025/05/25 18:29:26.572742051,1748190566,572491154,mA1/imu,0.9844449053935713,0.17569057784103023,-0.0005370983739875624,0.0008721398192276128,0.0,0.0,0.0,0.0,0.0,0.0,0.0,0.0,0.0,-0.0013418352832074106,-0.0008370425649194086,0.0005970404539568431,0.0,0.0,0.0,0.0,0.0,0.0,0.0,0.0,0.0,0.036083470430770245,-0.014617415095438336,9.81049180207733,0.0,0.0,0.0,0.0,0.0,0.0,0.0,0.0,0.0
2025/05/25 18:29:26.623602206,1748190566,623207557,mA1/imu,0.9844471786386759,0.17567768716840707,-0.0005518367662570795,0.0008934079101029517,0.0,0.0,0.0,0.0,0.0,0.0,0.0,0.0,0.0,-0.001658486782890447,-0.0005411362996091651,0.0005337439038871071,0.0,0.0,0.0,0.0,0.0,0.0,0.0,0.0,0.0,0.012619530047769384,0.5850115754868176,9.809431819533813,0.0,0.0,0.0,0.0,0.0,0.0,0.0,0.0,0.0
2025/05/25 18:29:26.665583741,1748190566,665205898,mA1/imu,0.9844495553767959,0.17566418901196246,-0.0005529781304779664,0.0009272714736215815,0.0,0.0,0.0,0.0,0.0,0.0,0.0,0.0,0.0,-0.0017815267438141412,-0.00010447340404711616,0.0005589690075920864,0.0,0.0,0.0,0.0,0.0,0.0,0.0,0.0,0.0,0.013056898154989092,0.2892530777129381,9.811021723195923,0.0,0.0,0.0,0.0,0.0,0.0,0.0,0.0,0.0
2025/05/25 18:29:26.717739772,1748190566,717491145,mA1/imu,0.9844514247511237,0.17565364263231295,-0.0005498299421105117,0.0009422433429351492,0.0,0.0,0.0,0.0,0.0,0.0,0.0,0.0,0.0,-0.0002165089503431983,5.417159676948339e-05,0.00028282802554247346,0.0,0.0,0.0,0.0,0.0,0.0,0.0,0.0,0.0,0.02451707656943721,-0.6053900288131978,9.808529343312198,0.0,0.0,0.0,0.0,0.0,0.0,0.0,0.0,0.0
2025/05/25 18:29:26.769983463,1748190566,769415097,mA1/imu,0.984451665981412,0.17565222756556934,-0.0005438311342172719,0.0009573637623653524,0.0,0.0,0.0,0.0,0.0,0.0,0.0,0.0,0.0,-0.0005865042659811589,0.00017347305915355155,-9.278492525864723e-05,0.0,0.0,0.0,0.0,0.0,0.0,0.0,0.0,0.0,0.02315342400896111,-0.0430175302656964,9.810437444174964,0.0,0.0,0.0,0.0,0.0,0.0,0.0,0.0,0.0
2025/05/25 18:29:26.820025046,1748190566,819569229,mA1/imu,0.9844506552860518,0.1756578900284186,-0.0005330464103061219,0.0009637630163127818,0.0,0.0,0.0,0.0,0.0,0.0,0.0,0.0,0.0,-0.0012384708653376808,0.0005857972799421407,-0.00027541874374758596,0.0,0.0,0.0,0.0,0.0,0.0,0.0,0.0,0.0,0.010503567224546944,0.558631935278933,9.810227819499572,0.0,0.0,0.0,0.0,0.0,0.0,0.0,0.0,0.0
2025/05/25 18:29:26.870950139,1748190566,870587748,mA1/imu,0.9844496073493605,0.17566384085533931,-0.0005070803033306804,0.0009635741827430794,0.0,0.0,0.0,0.0,0.0,0.0,0.0,0.0,0.0,-0.0004670428262051777,0.001243097352589603,-0.00029002351958759234,0.0,0.0,0.0,0.0,0.0,0.0,0.0,0.0,0.0,0.020175676954546237,-0.04923523805995414,9.810955923537813,0.0,0.0,0.0,0.0,0.0,0.0,0.0,0.0,0.0
2025/05/25 18:29:26.922068712,1748190566,920945076,mA1/imu,0.9844479288728327,0.17567338690045106,-0.00046812660833568415,0.0009577736649218958,0.0,0.0,0.0,0.0,0.0,0.0,0.0,0.0,0.0,1.3934458330782646e-05,0.0018752530146366813,-0.00036917291172349105,0.0,0.0,0.0,0.0,0.0,0.0,0.0,0.0,0.0,-0.0011320313911918033,-0.6493844501969165,9.810148487861394,0.0,0.0,0.0,0.0,0.0,0.0,0.0,0.0,0.0
2025/05/25 18:29:26.965706795,1748190566,965515581,mA1/imu,0.98444656562813,0.17568133335156477,-0.000415614261107733,0.0009250943639101747,0.0,0.0,0.0,0.0,0.0,0.0,0.0,0.0,0.0,0.0016434731246931407,0.0025682796788596583,-0.00028696280916704916,0.0,0.0,0.0,0.0,0.0,0.0,0.0,0.0,0.0,-0.0013950395534941297,-0.5587733410448372,9.809705998190097,0.0,0.0,0.0,0.0,0.0,0.0,0.0,0.0,0.0
2025/05/25 18:29:27.16058706,1748190567,15766180,mA1/imu,0.9844447631129669,0.17569171239957646,-0.00035136774980077117,0.0008983953826456085,0.0,0.0,0.0,0.0,0.0,0.0,0.0,0.0,0.0,-0.00017436447219938825,0.00275144391135612,-0.0005821646344657844,0.0,0.0,0.0,0.0,0.0,0.0,0.0,0.0,0.0,0.014562349945660217,0.5513698942314547,9.809846306729655,0.0,0.0,0.0,0.0,0.0,0.0,0.0,0.0,0.0
2025/05/25 18:29:27.67930756,1748190567,67389456,mA1/imu,0.9844423901957279,0.17570531429269948,-0.0002807794442216735,0.0008625995187428801,0.0,0.0,0.0,0.0,0.0,0.0,0.0,0.0,0.0,0.0004659251302315676,0.0031311032110759494,-0.0005999405279380121,0.0,0.0,0.0,0.0,0.0,0.0,0.0,0.0,0.0,0.015305230086011538,-0.050325392418574325,9.811052087122915,0.0,0.0,0.0,0.0,0.0,0.0,0.0,0.0,0.0
2025/05/25 18:29:27.123848514,1748190567,123721567,mA1/imu,0.9844393764054716,0.17572250556388858,-0.00020637787944629752,0.0008201395771503422,0.0,0.0,0.0,0.0,0.0,0.0,0.0,0.0,0.0,0.001917817764012042,0.0033563980735720734,-0.0006798800387085094,0.0,0.0,0.0,0.0,0.0,0.0,0.0,0.0,0.0,-0.005096971080242923,-0.5764058355991921,9.809997149856256,0.0,0.0,0.0,0.0,0.0,0.0,0.0,0.0,0.0
2025/05/25 18:29:27.164892341,1748190567,164574398,mA1/imu,0.9844360666991859,0.17574134284818577,-0.00012962691245461266,0.0007708389040024276,0.0,0.0,0.0,0.0,0.0,0.0,0.0,0.0,0.0,0.001999126563479968,0.0032485554674647273,-0.0009267288190633766,0.0,0.0,0.0,0.0,0.0,0.0,0.0,0.0,0.0,0.011086861606803472,0.04619795543791916,9.808364396181677,0.0,0.0,0.0,0.0,0.0,0.0,0.0,0.0,0.0
2025/05/25 18:29:27.214673458,1748190567,214515247,mA1/imu,0.9844317352269036,0.17576580853166077,-5.424540593214775e-05,0.0007323160485637409,0.0,0.0,0.0,0.0,0.0,0.0,0.0,0.0,0.0,0.00025545578467928224,0.0032811553255335506,-0.0009636335029817237,0.0,0.0,0.0,0.0,0.0,0.0,0.0,0.0,0.0,-0.006553907711397679,0.5622520764932772,9.809952638017949,0.0,0.0,0.0,0.0,0.0,0.0,0.0,0.0,0.0
2025/05/25 18:29:27.265627270,1748190567,265477151,mA1/imu,0.9844276640371673,0.1757887804735963,2.0323550948725703e-05,0.000691754931430244,0.0,0.0,0.0,0.0,0.0,0.0,0.0,0.0,0.0,0.0005882892608853801,0.003149581853617154,-0.0009230682192730257,0.0,0.0,0.0,0.0,0.0,0.0,0.0,0.0,0.0,-0.0032626186593735533,-0.04421116641240613,9.810450902243806,0.0,0.0,0.0,0.0,0.0,0.0,0.0,0.0,0.0
2025/05/25 18:29:27.316157600,1748190567,315835097,mA1/imu,0.9844222079596798,0.17581949026994304,7.746808178580825e-05,0.0006459997697602692,0.0,0.0,0.0,0.0,0.0,0.0,0.0,0.0,0.0,0.002022618185483166,0.0022221532416838857,-0.001426585474258868,0.0,0.0,0.0,0.0,0.0,0.0,0.0,0.0,0.0,0.0013333403997733944,-0.5717522148249281,9.809916086639866,0.0,0.0,0.0,0.0,0.0,0.0,0.0,0.0,0.0
2025/05/25 18:29:27.367169053,1748190567,366911144,mA1/imu,0.9844159448081132,0.17585466599466268,0.0001219448841076057,0.0006076058760866235,0.0,0.0,0.0,0.0,0.0,0.0,0.0,0.0,0.0,0.0016963589922195936,0.0018685836802011947,-0.0014282332447718088,0.0,0.0,0.0,0.0,0.0,0.0,0.0,0.0,0.0,-0.005543293689348826,0.0477124395310477,9.809073757451849,0.0,0.0,0.0,0.0,0.0,0.0,0.0,0.0,0.0
2025/05/25 18:29:27.417044449,1748190567,416850732,mA1/imu,0.9844096745624022,0.17588981654683444,0.00015827339384778713,0.0005831059928211021,0.0,0.0,0.0,0.0,0.0,0.0,0.0,0.0,0.0,-4.460801648624767e-05,0.0014190873749449328,-0.0014259391338884875,0.0,0.0,0.0,0.0,0.0,0.0,0.0,0.0,0.0,-0.005010396467490552,0.566881589425884,9.8099191138451,0.0,0.0,0.0,0.0,0.0,0.0,0.0,0.0,0.0
2025/05/25 18:29:27.468511706,1748190567,468246019,mA1/imu,0.9844033859364144,0.17592504790514374,0.0001825431567172604,0.0005638745354964742,0.0,0.0,0.0,0.0,0.0,0.0,0.0,0.0,0.0,-6.696104072934909e-05,0.0008718230606145014,-0.001457387600896453,0.0,0.0,0.0,0.0,0.0,0.0,0.0,0.0,0.0,-0.005158739237899364,-0.06797875844078703,9.811468883598826,0.0,0.0,0.0,0.0,0.0,0.0,0.0,0.0,0.0
2025/05/25 18:29:27.518267305,1748190567,518067474,mA1/imu,0.9843967594816084,0.17596217174296516,0.0001928234053988863,0.0005448456128401398,0.0,0.0,0.0,0.0,0.0,0.0,0.0,0.0,0.0,0.0012673554884440582,0.0003084002733936158,-0.0015180284349414581,0.0,0.0,0.0,0.0,0.0,0.0,0.0,0.0,0.0,-0.005177975464995789,-0.5703731214196553,9.809698002153114,0.0,0.0,0.0,0.0,0.0,0.0,0.0,0.0,0.0
2025/05/25 18:29:27.569958595,1748190567,569445310,mA1/imu,0.9843900737936044,0.1759996128165752,0.0001894629378128025,0.0005319857447223244,0.0,0.0,0.0,0.0,0.0,0.0,0.0,0.0,0.0,0.0010174190154402212,-0.000292874710149855,-0.001506815946963099,0.0,0.0,0.0,0.0,0.0,0.0,0.0,0.0,0.0,-0.002448231315416166,0.06278202596092491,9.808311240143986,0.0,0.0,0.0,0.0,0.0,0.0,0.0,0.0,0.0
2025/05/25 18:29:27.619331985,1748190567,618959052,mA1/imu,0.9843837662886303,0.17603488276947002,0.00017269746032868107,0.0005393434315305891,0.0,0.0,0.0,0.0,0.0,0.0,0.0,0.0,0.0,-0.0009696416765159329,-0.0009851556940400105,-0.0013835763859927834,0.0,0.0,0.0,0.0,0.0,0.0,0.0,0.0,0.0,-0.0005575302836508522,0.5680297236018926,9.809595896120143,0.0,0.0,0.0,0.0,0.0,0.0,0.0,0.0,0.0
2025/05/25 18:29:27.671912209,1748190567,671630543,mA1/imu,0.9843779493334924,0.17606739457142984,0.0001394169289588428,0.0005531706215954969,0.0,0.0,0.0,0.0,0.0,0.0,0.0,0.0,0.0,-9.947636336417417e-05,-0.0016145717640802166,-0.0012492882546882489,0.0,0.0,0.0,0.0,0.0,0.0,0.0,0.0,0.0,-0.01505805455251937,-0.6086850971750529,9.809328697210377,0.0,0.0,0.0,0.0,0.0,0.0,0.0,0.0,0.0
2025/05/25 18:29:27.721779967,1748190567,721552173,mA1/imu,0.9843734996715482,0.1760922706764952,9.65522541819883e-05,0.0005621654977955837,0.0,0.0,0.0,0.0,0.0,0.0,0.0,0.0,0.0,0.0001341369309507766,-0.0019863604232400783,-0.0009362022910701807,0.0,0.0,0.0,0.0,0.0,0.0,0.0,0.0,0.0,0.008389592827160777,-0.001031963342468148,9.811297974972716,0.0,0.0,0.0,0.0,0.0,0.0,0.0,0.0,0.0
2025/05/25 18:29:27.773179755,1748190567,772790045,mA1/imu,0.9843695204142457,0.17611446734416591,4.0155914461399735e-05,0.0005831457887124002,0.0,0.0,0.0,0.0,0.0,0.0,0.0,0.0,0.0,-0.0008790796648505308,-0.0025083677000427196,-0.0008336571735459501,0.0,0.0,0.0,0.0,0.0,0.0,0.0,0.0,0.0,-0.015032126224836932,0.6223110520708102,9.810455423131623,0.0,0.0,0.0,0.0,0.0,0.0,0.0,0.0,0.0
2025/05/25 18:29:27.823651333,1748190567,823387268,mA1/imu,0.9843667882880764,0.1761296516343592,-2.1571396586885836e-05,0.0006094794919871276,0.0,0.0,0.0,0.0,0.0,0.0,0.0,0.0,0.0,-0.0016042843351322254,-0.002805082146065825,-0.0005907206445971551,0.0,0.0,0.0,0.0,0.0,0.0,0.0,0.0,0.0,0.00976110706953929,0.5690442111376015,9.81015823315239,0.0,0.0,0.0,0.0,0.0,0.0,0.0,0.0,0.0
2025/05/25 18:29:27.866313551,1748190567,865822343,mA1/imu,0.9843641194684892,0.17614446047415433,-9.60328178530612e-05,0.0006325543397519477,0.0,0.0,0.0,0.0,0.0,0.0,0.0,0.0,0.0,-0.00014113207560584329,-0.0031115999996364236,-0.0005291635724374307,0.0,0.0,0.0,0.0,0.0,0.0,0.0,0.0,0.0,-0.016546219176440283,0.6909882320791106,9.811465241461264,0.0,0.0,0.0,0.0,0.0,0.0,0.0,0.0,0.0
2025/05/25 18:29:27.916320418,1748190567,916114878,mA1/imu,0.984362725341315,0.17615205651145435,-0.00016638870006582498,0.0006710143104329046,0.0,0.0,0.0,0.0,0.0,0.0,0.0,0.0,0.0,-0.0009922339763860834,-0.0031620310157507623,-0.0002807984206556195,0.0,0.0,0.0,0.0,0.0,0.0,0.0,0.0,0.0,0.01297580071314422,0.6006296409007418,9.810921302906078,0.0,0.0,0.0,0.0,0.0,0.0,0.0,0.0,0.0
2025/05/25 18:29:27.967415688,1748190567,967154375,mA1/imu,0.9843613099876523,0.176159740284635,-0.00024520282500958737,0.0007051083729393836,0.0,0.0,0.0,0.0,0.0,0.0,0.0,0.0,0.0,-0.0009355442774529678,-0.003421856935423564,-0.00032603618431135484,0.0,0.0,0.0,0.0,0.0,0.0,0.0,0.0,0.0,0.00952859713535846,0.2512505780935852,9.809722979499663,0.0,0.0,0.0,0.0,0.0,0.0,0.0,0.0,0.0
2025/05/25 18:29:28.17242683,1748190568,17119598,mA1/imu,0.9843603708828268,0.17616472836985742,-0.00032417507036454417,0.0007373088375015884,0.0,0.0,0.0,0.0,0.0,0.0,0.0,0.0,0.0,-0.001011478015984465,-0.003294825724132619,-0.00014091176249604996,0.0,0.0,0.0,0.0,0.0,0.0,0.0,0.0,0.0,0.011084800363838767,0.6153766674879615,9.81095933081265,0.0,0.0,0.0,0.0,0.0,0.0,0.0,0.0,0.0
2025/05/25 18:29:28.69667783,1748190568,68137571,mA1/imu,0.984359536551683,0.17616906013217995,-0.0004018990967900167,0.0007768712996039129,0.0,0.0,0.0,0.0,0.0,0.0,0.0,0.0,0.0,-0.0005882930204828785,-0.0033478414451195183,-0.00018835470370829525,0.0,0.0,0.0,0.0,0.0,0.0,0.0,0.0,0.0,0.014426126716302773,0.018819743471349466,9.80929992861623,0.0,0.0,0.0,0.0,0.0,0.0,0.0,0.0,0.0
2025/05/25 18:29:28.118855848,1748190568,118718044,mA1/imu,0.9843587642959121,0.17617305461100477,-0.0004804832541302003,0.0008044368808918275,0.0,0.0,0.0,0.0,0.0,0.0,0.0,0.0,0.0,0.00023326329486333616,-0.0032415762335529065,-0.0001735293598860858,0.0,0.0,0.0,0.0,0.0,0.0,0.0,0.0,0.0,0.015469030444589908,-0.4533671060182092,9.810217535216687,0.0,0.0,0.0,0.0,0.0,0.0,0.0,0.0,0.0
2025/05/25 18:29:28.171215932,1748190568,169842356,mA1/imu,0.9843578596404186,0.17617774910898962,-0.0005517008831801573,0.0008369642521934169,0.0,0.0,0.0,0.0,0.0,0.0,0.0,0.0,0.0,-0.0008799487811685887,-0.002810881426161291,-0.0001416331426518238,0.0,0.0,0.0,0.0,0.0,0.0,0.0,0.0,0.0,-0.0017039698414933139,-0.010094081954372704,9.809934959593976,0.0,0.0,0.0,0.0,0.0,0.0,0.0,0.0,0.0
2025/05/25 18:29:28.221526493,1748190568,221111746,mA1/imu,0.9843579682193697,0.176176874475726,-0.0006083946269760443,0.0008539080608069873,0.0,0.0,0.0,0.0,0.0,0.0,0.0,0.0,0.0,-0.000917313590396807,-0.00213039245940785,5.799430779735493e-05,0.0,0.0,0.0,0.0,0.0,0.0,0.0,0.0,0.0,0.01821034447991604,0.5191767321324967,9.811734948971058,0.0,0.0,0.0,0.0,0.0,0.0,0.0,0.0,0.0
2025/05/25 18:29:28.273389520,1748190568,272596265,mA1/imu,0.9843580922120517,0.17617593765888329,-0.0006525137809962631,0.0008715001025957586,0.0,0.0,0.0,0.0,0.0,0.0,0.0,0.0,0.0,-0.0006898820134686828,-0.0015857249277977557,6.105828884854546e-05,0.0,0.0,0.0,0.0,0.0,0.0,0.0,0.0,0.0,0.0022849216118166656,0.6053508449271593,9.812000304658687,0.0,0.0,0.0,0.0,0.0,0.0,0.0,0.0,0.0
2025/05/25 18:29:28.322849881,1748190568,322172841,mA1/imu,0.9843590908959766,0.17617021718991735,-0.0006757090544459004,0.0008821354644429863,0.0,0.0,0.0,0.0,0.0,0.0,0.0,0.0,0.0,0.0010628019712450511,-0.0006916327006507931,0.0002921061822747637,0.0,0.0,0.0,0.0,0.0,0.0,0.0,0.0,0.0,0.015341155822746318,-0.5447843523631435,9.808961097446165,0.0,0.0,0.0,0.0,0.0,0.0,0.0,0.0,0.0
2025/05/25 18:29:28.376439549,1748190568,374250438,mA1/imu,0.9843604613860157,0.17616252026060322,-0.0006833637970048395,0.0008840414379298489,0.0,0.0,0.0,0.0,0.0,0.0,0.0,0.0,0.0,-0.0005547764568315618,-6.948330893604938e-05,0.00032662273530898703,0.0,0.0,0.0,0.0,0.0,0.0,0.0,0.0,0.0,0.01541321751841997,0.592634981438825,9.810197543942216,0.0,0.0,0.0,0.0,0.0,0.0,0.0,0.0,0.0
2025/05/25 18:29:28.415045041,1748190568,414662366,mA1/imu,0.9843619960126062,0.1761539721016,-0.000675580708224057,0.0008845957342544395,0.0,0.0,0.0,0.0,0.0,0.0,0.0,0.0,0.0,-0.00070093202248688,0.0005503125598964645,0.0003617009858586449,0.0,0.0,0.0,0.0,0.0,0.0,0.0,0.0,0.0,0.01538967406134946,0.29515243312558004,9.80950274119414,0.0,0.0,0.0,0.0,0.0,0.0,0.0,0.0,0.0
2025/05/25 18:29:28.465973752,1748190568,465556264,mA1/imu,0.9843637042502457,0.1761445705160545,-0.0006554918812383015,0.0008708403085464793,0.0,0.0,0.0,0.0,0.0,0.0,0.0,0.0,0.0,0.00036495384245190864,0.0011145283359261353,0.0003970352473940988,0.0,0.0,0.0,0.0,0.0,0.0,0.0,0.0,0.0,0.015859712926332977,0.006421980349136542,9.810491688708039,0.0,0.0,0.0,0.0,0.0,0.0,0.0,0.0,0.0
2025/05/25 18:29:28.515527312,1748190568,515407424,mA1/imu,0.9843655794265713,0.17613428667516054,-0.0006219095998396402,0.0008557605228493159,0.0,0.0,0.0,0.0,0.0,0.0,0.0,0.0,0.0,7.953056690528227e-05,0.001637632700036644,0.00043329545753442456,0.0,0.0,0.0,0.0,0.0,0.0,0.0,0.0,0.0,0.015319527318116448,-0.02029326568637945,9.809598347613937,0.0,0.0,0.0,0.0,0.0,0.0,0.0,0.0,0.0
2025/05/25 18:29:28.566809991,1748190568,566581536,mA1/imu,0.9843676242323117,0.17612312149367582,-0.00057817688987832,0.0008319555530970634,0.0,0.0,0.0,0.0,0.0,0.0,0.0,0.0,0.0,0.0011682443850700914,0.0020442644780880657,0.0004694246988736032,0.0,0.0,0.0,0.0,0.0,0.0,0.0,0.0,0.0,0.01665806020431362,-0.36540267136987087,9.808757076215487,0.0,0.0,0.0,0.0,0.0,0.0,0.0,0.0,0.0
2025/05/25 18:29:28.616744671,1748190568,616590472,mA1/imu,0.9843698278719748,0.17611110750707246,-0.0005273046553734974,0.000801085345998254,0.0,0.0,0.0,0.0,0.0,0.0,0.0,0.0,0.0,0.0027137314697753745,0.0023107879545571225,0.0005026773780324908,0.0,0.0,0.0,0.0,0.0,0.0,0.0,0.0,0.0,0.01706957837526718,-0.4863972461655723,9.808879041215764,0.0,0.0,0.0,0.0,0.0,0.0,0.0,0.0,0.0
2025/05/25 18:29:28.668458167,1748190568,668258210,mA1/imu,0.9843721589066329,0.1760983423530482,-0.0004697598141834577,0.0007784058841389678,0.0,0.0,0.0,0.0,0.0,0.0,0.0,0.0,0.0,0.0011923217516173362,0.0024561828818639325,0.0005305502715755448,0.0,0.0,0.0,0.0,0.0,0.0,0.0,0.0,0.0,0.018246239021313282,0.03567725936196367,9.81057791330782,0.0,0.0,0.0,0.0,0.0,0.0,0.0,0.0,0.0
2025/05/25 18:29:28.718366202,1748190568,718224525,mA1/imu,0.9843745930442553,0.1760850017327129,-0.00041263655354368314,0.00074997654755244,0.0,0.0,0.0,0.0,0.0,0.0,0.0,0.0,0.0,0.0005705017033977645,0.0024297636371997844,0.0005524403605884112,0.0,0.0,0.0,0.0,0.0,0.0,0.0,0.0,0.0,0.018266409639883945,-0.008177255370532195,9.810529824923632,0.0,0.0,0.0,0.0,0.0,0.0,0.0,0.0,0.0
2025/05/25 18:29:28.769795715,1748190568,769497122,mA1/imu,0.9843771843729012,0.17607075517077875,-0.0003576005805554619,0.0007212360887425418,0.0,0.0,0.0,0.0,0.0,0.0,0.0,0.0,0.0,0.0005616433089180721,0.0023951296817464277,0.0006530175772647909,0.0,0.0,0.0,0.0,0.0,0.0,0.0,0.0,0.0,0.0023708777494016505,0.36355806041182187,9.810835992913375,0.0,0.0,0.0,0.0,0.0,0.0,0.0,0.0,0.0
2025/05/25 18:29:28.819513771,1748190568,819340480,mA1/imu,0.9843810101263835,0.1760495776140679,-0.00030087839530075304,0.0006946917738482384,0.0,0.0,0.0,0.0,0.0,0.0,0.0,0.0,0.0,1.59142456579864e-05,0.0022906860910467566,0.0009085181508869904,0.0,0.0,0.0,0.0,0.0,0.0,0.0,0.0,0.0,0.023918608356105493,-0.045753204726018785,9.80889543244733,0.0,0.0,0.0,0.0,0.0,0.0,0.0,0.0,0.0
2025/05/25 18:29:28.872579173,1748190568,871290587,mA1/imu,0.9843849537000449,0.17602770547877736,-0.00025671946337144503,0.0006662791867312552,0.0,0.0,0.0,0.0,0.0,0.0,0.0,0.0,0.0,-0.0005616851518502423,0.001691867490887896,0.0008730727016163375,0.0,0.0,0.0,0.0,0.0,0.0,0.0,0.0,0.0,0.025926308925439345,0.24303167984194166,9.810151620335622,0.0,0.0,0.0,0.0,0.0,0.0,0.0,0.0,0.0
2025/05/25 18:29:28.922033107,1748190568,921210906,mA1/imu,0.9843887687343194,0.17600648648201242,-0.00022799070684585666,0.0006455433568871115,0.0,0.0,0.0,0.0,0.0,0.0,0.0,0.0,0.0,0.0005433617952407896,0.0010172674639268623,0.0008698260630750311,0.0,0.0,0.0,0.0,0.0,0.0,0.0,0.0,0.0,0.02201864395001771,0.0002169371609267983,9.811257518831198,0.0,0.0,0.0,0.0,0.0,0.0,0.0,0.0,0.0
2025/05/25 18:29:28.973373749,1748190568,973018564,mA1/imu,0.9843927120621591,0.17598451195887044,-0.00021513536702349464,0.0006274601812698881,0.0,0.0,0.0,0.0,0.0,0.0,0.0,0.0,0.0,0.0013127551438777095,0.0003730001322779826,0.0009091334194230262,0.0,0.0,0.0,0.0,0.0,0.0,0.0,0.0,0.0,0.0217243480621482,-0.33768513793020266,9.810004189690464,0.0,0.0,0.0,0.0,0.0,0.0,0.0,0.0,0.0
2025/05/25 18:29:29.23388996,1748190569,22964411,mA1/imu,0.9843968213303778,0.17596153697209307,-0.00021659716837788554,0.0006234955764113546,0.0,0.0,0.0,0.0,0.0,0.0,0.0,0.0,0.0,-2.4495571871514345e-05,-0.0002990526837621829,0.00094951683787991,0.0,0.0,0.0,0.0,0.0,0.0,0.0,0.0,0.0,0.022192455943589862,0.411247500044083,9.811354008717721,0.0,0.0,0.0,0.0,0.0,0.0,0.0,0.0,0.0
2025/05/25 18:29:29.74711908,1748190569,74264621,mA1/imu,0.9844011029026567,0.17593754648639137,-0.00023303138596846116,0.0006277234701056797,0.0,0.0,0.0,0.0,0.0,0.0,0.0,0.0,0.0,-0.0006500977095217815,-0.0009246910861639851,0.0009916560281290475,0.0,0.0,0.0,0.0,0.0,0.0,0.0,0.0,0.0,0.0214809929432499,-0.13566415613716998,9.810771621004927,0.0,0.0,0.0,0.0,0.0,0.0,0.0,0.0,0.0
2025/05/25 18:29:29.114228763,1748190569,114017425,mA1/imu,0.9844055708040145,0.17591248313323407,-0.0002644443518924697,0.0006328642087480665,0.0,0.0,0.0,0.0,0.0,0.0,0.0,0.0,0.0,-0.0007416680071854213,-0.0014789407619551494,0.0010346908831972274,0.0,0.0,0.0,0.0,0.0,0.0,0.0,0.0,0.0,0.0201307707634343,-0.03303530110371591,9.80823371339976,0.0,0.0,0.0,0.0,0.0,0.0,0.0,0.0,0.0
2025/05/25 18:29:29.165379462,1748190569,165035912,mA1/imu,0.9844102187912608,0.17588634186305926,-0.00030612738823677173,0.0006497471778890696,0.0,0.0,0.0,0.0,0.0,0.0,0.0,0.0,0.0,-0.0015555324119123084,-0.0019236959557709635,0.0010793461633845283,0.0,0.0,0.0,0.0,0.0,0.0,0.0,0.0,0.0,0.019920648149865182,0.5503770964290883,9.809804067386432,0.0,0.0,0.0,0.0,0.0,0.0,0.0,0.0,0.0
2025/05/25 18:29:29.215704909,1748190569,215553530,mA1/imu,0.9844150594395988,0.17585907412872456,-0.000356549106141703,0.0006705727802447421,0.0,0.0,0.0,0.0,0.0,0.0,0.0,0.0,0.0,-0.0009919621618530725,-0.0022487404152786803,0.0011251440757542664,0.0,0.0,0.0,0.0,0.0,0.0,0.0,0.0,0.0,0.018947571777454215,-0.027741546400684654,9.810303043897356,0.0,0.0,0.0,0.0,0.0,0.0,0.0,0.0,0.0
2025/05/25 18:29:29.267290414,1748190569,266742926,mA1/imu,0.9844200881950771,0.17583068309329927,-0.00041136999836956375,0.000701153096673058,0.0,0.0,0.0,0.0,0.0,0.0,0.0,0.0,0.0,-0.0013066529723736804,-0.002438226318050558,0.001170738142786212,0.0,0.0,0.0,0.0,0.0,0.0,0.0,0.0,0.0,0.018462773091726722,-0.04075529816755646,9.811918689350104,0.0,0.0,0.0,0.0,0.0,0.0,0.0,0.0,0.0
2025/05/25 18:29:29.316791681,1748190569,316590403,mA1/imu,0.9844253247385971,0.17580112585964092,-0.00046996692016377427,0.0007233884739083117,0.0,0.0,0.0,0.0,0.0,0.0,0.0,0.0,0.0,-0.00015427303682145018,-0.002453384383644674,0.0012185719636685715,0.0,0.0,0.0,0.0,0.0,0.0,0.0,0.0,0.0,0.01688350895595872,-0.5806315991435498,9.808808211011149,0.0,0.0,0.0,0.0,0.0,0.0,0.0,0.0,0.0
2025/05/25 18:29:29.368465305,1748190569,368262297,mA1/imu,0.9844307627643522,0.17577039460767416,-0.0005251069497637173,0.0007523066860458513,0.0,0.0,0.0,0.0,0.0,0.0,0.0,0.0,0.0,-0.0013069060749245026,-0.0023028387355521433,0.00126686811861421,0.0,0.0,0.0,0.0,0.0,0.0,0.0,0.0,0.0,0.016452469720015024,0.6009391860986412,9.810760138835263,0.0,0.0,0.0,0.0,0.0,0.0,0.0,0.0,0.0
2025/05/25 18:29:29.422631249,1748190569,420142278,mA1/imu,0.9844364161153871,0.1757384323607525,-0.0005738708054118556,0.0007852958526721486,0.0,0.0,0.0,0.0,0.0,0.0,0.0,0.0,0.0,0.00031158752818658485,-0.002045282927763236,0.0013180975965548616,0.0,0.0,0.0,0.0,0.0,0.0,0.0,0.0,0.0,0.01607350146010048,-0.5450073554885968,9.80857411238325,0.0,0.0,0.0,0.0,0.0,0.0,0.0,0.0,0.0
2025/05/25 18:29:29.471957601,1748190569,471303094,mA1/imu,0.9844422664921885,0.17570537471950187,-0.0006138217582680012,0.0008175947967015479,0.0,0.0,0.0,0.0,0.0,0.0,0.0,0.0,0.0,-0.0024395558637400126,-0.0016303256350257657,0.0013375550388080336,0.0,0.0,0.0,0.0,0.0,0.0,0.0,0.0,0.0,0.015473772328705872,0.5184214455276847,9.808667893814507,0.0,0.0,0.0,0.0,0.0,0.0,0.0,0.0,0.0
2025/05/25 18:29:29.522111191,1748190569,521277767,mA1/imu,0.9844478284118471,0.17567399758817198,-0.0006443696936860308,0.0008393415798363427,0.0,0.0,0.0,0.0,0.0,0.0,0.0,0.0,0.0,-0.0007869689044757574,-0.0011433845195437707,0.0012631830595856552,0.0,0.0,0.0,0.0,0.0,0.0,0.0,0.0,0.0,0.014100180902219104,0.34730015894094785,9.81106440077947,0.0,0.0,0.0,0.0,0.0,0.0,0.0,0.0,0.0
2025/05/25 18:29:29.565288049,1748190569,564843015,mA1/imu,0.984453421089528,0.17564248743485095,-0.0006606864100841216,0.000861281771757816,0.0,0.0,0.0,0.0,0.0,0.0,0.0,0.0,0.0,-0.0003524017799914644,-0.0005626302517534343,0.0012918994628958664,0.0,0.0,0.0,0.0,0.0,0.0,0.0,0.0,0.0,0.014049378730836865,-0.15920383462864388,9.811061158661756,0.0,0.0,0.0,0.0,0.0,0.0,0.0,0.0,0.0
2025/05/25 18:29:29.616261551,1748190569,616042917,mA1/imu,0.9844591499050801,0.1756102588697205,-0.0006617402506334397,0.0008838821852906579,0.0,0.0,0.0,0.0,0.0,0.0,0.0,0.0,0.0,-1.2164289228737974e-05,2.7394032925864606e-05,0.001322034996579462,0.0,0.0,0.0,0.0,0.0,0.0,0.0,0.0,0.0,0.014393857546720228,-0.5855463902359977,9.80822606346708,0.0,0.0,0.0,0.0,0.0,0.0,0.0,0.0,0.0
2025/05/25 18:29:29.669322874,1748190569,669081613,mA1/imu,0.9844650336732456,0.17557728906890416,-0.0006505529280898077,0.000888717524074726,0.0,0.0,0.0,0.0,0.0,0.0,0.0,0.0,0.0,0.0005181628140682819,0.0006554962122391857,0.0013538967340431015,0.0,0.0,0.0,0.0,0.0,0.0,0.0,0.0,0.0,0.011760481451241929,-0.5607516758538833,9.808686969122974,0.0,0.0,0.0,0.0,0.0,0.0,0.0,0.0,0.0
2025/05/25 18:29:29.719260327,1748190569,719114964,mA1/imu,0.9844709236902717,0.17554436028861295,-0.0006249715222323823,0.0008873499205686604,0.0,0.0,0.0,0.0,0.0,0.0,0.0,0.0,0.0,0.0005148168845883047,0.0012555415310419962,0.0013330659701603425,0.0,0.0,0.0,0.0,0.0,0.0,0.0,0.0,0.0,0.011528795558219633,0.05165449567139151,9.80982112647405,0.0,0.0,0.0,0.0,0.0,0.0,0.0,0.0,0.0
2025/05/25 18:29:29.773889740,1748190569,773294541,mA1/imu,0.9844771284542931,0.1755097152413421,-0.000580758870632518,0.0008866371447333841,0.0,0.0,0.0,0.0,0.0,0.0,0.0,0.0,0.0,-0.0009040457266321203,0.002058424378724503,0.001464379401004056,0.0,0.0,0.0,0.0,0.0,0.0,0.0,0.0,0.0,0.00512473296774262,0.5726932308855954,9.811798687072185,0.0,0.0,0.0,0.0,0.0,0.0,0.0,0.0,0.0
2025/05/25 18:29:29.823481827,1748190569,823153617,mA1/imu,0.9844839588698363,0.17547163623601617,-0.000519341267008307,0.0008774333468577194,0.0,0.0,0.0,0.0,0.0,0.0,0.0,0.0,0.0,-0.0005716693771250759,0.002752687451525066,0.0016058940963549148,0.0,0.0,0.0,0.0,0.0,0.0,0.0,0.0,0.0,0.004766366068812877,-0.04498900515803533,9.81094123230819,0.0,0.0,0.0,0.0,0.0,0.0,0.0,0.0,0.0
2025/05/25 18:29:29.874822088,1748190569,874524321,mA1/imu,0.9844912878182531,0.17543084203872505,-0.00044735103192738366,0.0008507341507830056,0.0,0.0,0.0,0.0,0.0,0.0,0.0,0.0,0.0,0.0014491696820219876,0.003097763321356399,0.0016198141825293358,0.0,0.0,0.0,0.0,0.0,0.0,0.0,0.0,0.0,0.02590761075818799,-0.5598267612183133,9.808395041876524,0.0,0.0,0.0,0.0,0.0,0.0,0.0,0.0,0.0
2025/05/25 18:29:29.914382995,1748190569,914261514,mA1/imu,0.9844976053949412,0.1753956715493325,-0.00037393314561868433,0.0008267692468996023,0.0,0.0,0.0,0.0,0.0,0.0,0.0,0.0,0.0,0.0007714726074886702,0.003133848031234838,0.0013917852380393454,0.0,0.0,0.0,0.0,0.0,0.0,0.0,0.0,0.0,0.005970841226067735,0.027060900743436846,9.810611988167102,0.0,0.0,0.0,0.0,0.0,0.0,0.0,0.0,0.0
2025/05/25 18:29:29.965565668,1748190569,965275358,mA1/imu,0.9845038336830225,0.1753609889991688,-0.00029603583965017767,0.0007983504535682498,0.0,0.0,0.0,0.0,0.0,0.0,0.0,0.0,0.0,0.0008038733096370575,0.0033346127364182686,0.0014262606408564301,0.0,0.0,0.0,0.0,0.0,0.0,0.0,0.0,0.0,0.006071327869426442,0.0521137076097,9.810644496463484,0.0,0.0,0.0,0.0,0.0,0.0,0.0,0.0,0.0
2025/05/25 18:29:30.15353984,1748190570,15153361,mA1/imu,0.9845095737644849,0.17532901570776638,-0.0002192304419571204,0.0007663909131086808,0.0,0.0,0.0,0.0,0.0,0.0,0.0,0.0,0.0,0.0014007114715064576,0.0032126747833348037,0.0012335533779717362,0.0,0.0,0.0,0.0,0.0,0.0,0.0,0.0,0.0,0.003585335134751515,-0.5774931704182339,9.80918544080256,0.0,0.0,0.0,0.0,0.0,0.0,0.0,0.0,0.0
2025/05/25 18:29:30.67060039,1748190570,66335293,mA1/imu,0.9845151421788269,0.17529796778043322,-0.000142738492254721,0.0007327607914167613,0.0,0.0,0.0,0.0,0.0,0.0,0.0,0.0,0.0,0.0007897738502555096,0.0032362375024120238,0.0012635914725009094,0.0,0.0,0.0,0.0,0.0,0.0,0.0,0.0,0.0,0.0005900923458942893,-0.04148990512546447,9.80970273858956,0.0,0.0,0.0,0.0,0.0,0.0,0.0,0.0,0.0
2025/05/25 18:29:30.117194285,1748190570,116796213,mA1/imu,0.9845205847137338,0.1752675870825582,-6.764663031195002e-05,0.0006975794714454695,0.0,0.0,0.0,0.0,0.0,0.0,0.0,0.0,0.0,0.0008267650928023999,0.0031475749100928676,0.0012305195646938236,0.0,0.0,0.0,0.0,0.0,0.0,0.0,0.0,0.0,0.001645429905909324,-0.22609136620995496,9.809666568130073,0.0,0.0,0.0,0.0,0.0,0.0,0.0,0.0,0.0
2025/05/25 18:29:30.168074934,1748190570,167855769,mA1/imu,0.9845259633036995,0.17523752786052363,1.4342529508003883e-07,0.0006606135286335834,0.0,0.0,0.0,0.0,0.0,0.0,0.0,0.0,0.0,0.00012353572605347776,0.0027001338611878185,0.001171295957145143,0.0,0.0,0.0,0.0,0.0,0.0,0.0,0.0,0.0,0.01997800135138658,0.5774344356306259,9.810995250458559,0.0,0.0,0.0,0.0,0.0,0.0,0.0,0.0,0.0
2025/05/25 18:29:30.218996620,1748190570,218748994,mA1/imu,0.9845303671116414,0.17521290182739999,5.0114618014373186e-05,0.0006267030904663857,0.0,0.0,0.0,0.0,0.0,0.0,0.0,0.0,0.0,0.0006215546608886971,0.0019708489511664966,0.0009607950189381987,0.0,0.0,0.0,0.0,0.0,0.0,0.0,0.0,0.0,0.00030672323182077185,0.0701618448161374,9.810828855416023,0.0,0.0,0.0,0.0,0.0,0.0,0.0,0.0,0.0
2025/05/25 18:29:30.270642102,1748190570,270397853,mA1/imu,0.9845345941137709,0.17518923796019376,8.716842360705853e-05,0.0005969068812752565,0.0,0.0,0.0,0.0,0.0,0.0,0.0,0.0,0.0,0.0005574234127031677,0.0014696510915490628,0.0009550757124331599,0.0,0.0,0.0,0.0,0.0,0.0,0.0,0.0,0.0,-0.0033212562821814734,-0.14720558755394136,9.809910642965656,0.0,0.0,0.0,0.0,0.0,0.0,0.0,0.0,0.0
