time,header_stamp_secs,header_stamp_nsecs,header_frame_id,orientation_x,orientation_y,orientation_z,orientation_w,orientation_covariance_0,orientation_covariance_1,orientation_covariance_2,orientation_covariance_3,orientation_covariance_4,orientation_covariance_5,orientation_covariance_6,orientation_covariance_7,orientation_covariance_8,angular_velocity_x,angular_velocity_y,angular_velocity_z,angular_velocity_covariance_0,angular_velocity_covariance_1,angular_velocity_covariance_2,angular_velocity_covariance_3,angular_velocity_covariance_4,angular_velocity_covariance_5,angular_velocity_covariance_6,angular_velocity_covariance_7,angular_velocity_covariance_8,linear_acceleration_x,linear_acceleration_y,linear_acceleration_z,linear_acceleration_covariance_0,linear_acceleration_covariance_1,linear_acceleration_covariance_2,linear_acceleration_covariance_3,linear_acceleration_covariance_4,linear_acceleration_covariance_5,linear_acceleration_covariance_6,linear_acceleration_covariance_7,linear_acceleration_covariance_8
2025/05/21 11:56:23.785667439,1747821383,784493904,mA1/imu,0.015612169565623798,-0.9998776915188258,-0.0008939519813496369,-0.0002510264794092665,0.0,0.0,0.0,0.0,0.0,0.0,0.0,0.0,0.0,0.0011231613678198845,1.952401229746123e-05,-0.002534533097616784,0.0,0.0,0.0,0.0,0.0,0.0,0.0,0.0,0.0,0.005999116485890095,-0.35499850081477147,9.809373011062952,0.0,0.0,0.0,0.0,0.0,0.0,0.0,0.0,0.0
2025/05/21 11:56:23.837884084,1747821383,835731226,mA1/imu,0.015674656255795547,-0.9998767310582879,-0.0008737103759083704,-0.0002539087115915314,0.0,0.0,0.0,0.0,0.0,0.0,0.0,0.0,0.0,0.0026301765255915,-0.0001847660127468376,-0.002477413919240665,0.0,0.0,0.0,0.0,0.0,0.0,0.0,0.0,0.0,0.005138831114891744,-0.5128857698470347,9.80891634486765,0.0,0.0,0.0,0.0,0.0,0.0,0.0,0.0,0.0
2025/05/21 11:56:23.877573751,1747821383,875550122,mA1/imu,0.01573573260422902,-0.9998757755397012,-0.0008671117436497537,-0.00026139149440558595,0.0,0.0,0.0,0.0,0.0,0.0,0.0,0.0,0.0,0.0009028685947055275,-0.0003802248720970173,-0.00242164155334778,0.0,0.0,0.0,0.0,0.0,0.0,0.0,0.0,0.0,0.006596962769483543,-0.0025707816604860594,9.808989688792765,0.0,0.0,0.0,0.0,0.0,0.0,0.0,0.0,0.0
2025/05/21 11:56:23.928541706,1747821383,927733514,mA1/imu,0.015795421465458814,-0.9998748371368469,-0.0008602664962075424,-0.0002732450326271096,0.0,0.0,0.0,0.0,0.0,0.0,0.0,0.0,0.0,9.765817163176268e-05,-0.0005258003291404055,-0.0023662863638404135,0.0,0.0,0.0,0.0,0.0,0.0,0.0,0.0,0.0,0.005814370682154776,0.043329586290624555,9.80929791658033,0.0,0.0,0.0,0.0,0.0,0.0,0.0,0.0,0.0
2025/05/21 11:56:23.979725720,1747821383,978795988,mA1/imu,0.01585375217414481,-0.9998739172897793,-0.0008513029790532698,-0.0002887019751371579,0.0,0.0,0.0,0.0,0.0,0.0,0.0,0.0,0.0,0.0005171299492742668,-0.0006608189815135825,-0.0023127993107418827,0.0,0.0,0.0,0.0,0.0,0.0,0.0,0.0,0.0,0.005415561570435755,-0.34507059517167454,9.80862527498908,0.0,0.0,0.0,0.0,0.0,0.0,0.0,0.0,0.0
2025/05/21 11:56:24.33388719,1747821384,32652916,mA1/imu,0.015910742798264634,-0.9998730158151548,-0.0008405204961236835,-0.00030664900172711475,0.0,0.0,0.0,0.0,0.0,0.0,0.0,0.0,0.0,0.0007542801112027584,-0.0007327726853474518,-0.0022593235373161895,0.0,0.0,0.0,0.0,0.0,0.0,0.0,0.0,0.0,0.005076631657945748,0.006170212538145887,9.809067645593894,0.0,0.0,0.0,0.0,0.0,0.0,0.0,0.0,0.0
2025/05/21 11:56:24.88933173,1747821384,84730318,mA1/imu,0.015966416860654153,-0.9998721228006098,-0.0008399350418129857,-0.000325711466855266,0.0,0.0,0.0,0.0,0.0,0.0,0.0,0.0,0.0,-0.0009029369583224335,-0.0007691663538237879,-0.0022070030971866614,0.0,0.0,0.0,0.0,0.0,0.0,0.0,0.0,0.0,0.005448472765216353,0.5272726468695612,9.809893861876121,0.0,0.0,0.0,0.0,0.0,0.0,0.0,0.0,0.0
2025/05/21 11:56:24.132682160,1747821384,129469337,mA1/imu,0.016020809161761997,-0.9998712506190729,-0.0008345902725594549,-0.0003454248550416153,0.0,0.0,0.0,0.0,0.0,0.0,0.0,0.0,0.0,-0.0012728990472503697,-0.0007718676476308312,-0.002156348144650764,0.0,0.0,0.0,0.0,0.0,0.0,0.0,0.0,0.0,0.005433000695321145,0.5085460689746313,9.809655135690004,0.0,0.0,0.0,0.0,0.0,0.0,0.0,0.0,0.0
2025/05/21 11:56:24.180575694,1747821384,179426113,mA1/imu,0.01607394911534277,-0.9998703900034812,-0.0008357838302684612,-0.00036444411458264134,0.0,0.0,0.0,0.0,0.0,0.0,0.0,0.0,0.0,0.0007122323963199816,-0.0007389611138435771,-0.0021065165754487543,0.0,0.0,0.0,0.0,0.0,0.0,0.0,0.0,0.0,0.004390594366952656,-0.578176457012364,9.808525833181577,0.0,0.0,0.0,0.0,0.0,0.0,0.0,0.0,0.0
2025/05/21 11:56:24.232105885,1747821384,230847782,mA1/imu,0.01612584979858679,-0.9998695433513259,-0.000841248585566808,-0.0003815068829441606,0.0,0.0,0.0,0.0,0.0,0.0,0.0,0.0,0.0,0.00040560029163955625,-0.0006547825514787788,-0.0020577511569883286,0.0,0.0,0.0,0.0,0.0,0.0,0.0,0.0,0.0,0.004894368433347455,-0.33969296954392364,9.810743067737238,0.0,0.0,0.0,0.0,0.0,0.0,0.0,0.0,0.0
2025/05/21 11:56:24.282829000,1747821384,280741381,mA1/imu,0.016176550521313792,-0.999868714904455,-0.0008457500103833974,-0.00039607507474594367,0.0,0.0,0.0,0.0,0.0,0.0,0.0,0.0,0.0,-0.00043003382295271056,-0.0005343392008797359,-0.0020095734654647537,0.0,0.0,0.0,0.0,0.0,0.0,0.0,0.0,0.0,0.00512389593479334,-0.04197038805242874,9.808985169320831,0.0,0.0,0.0,0.0,0.0,0.0,0.0,0.0,0.0
2025/05/21 11:56:24.333835962,1747821384,332180581,mA1/imu,0.016226077523407604,-0.9998679064974392,-0.0008473459904075566,-0.0004073934277392745,0.0,0.0,0.0,0.0,0.0,0.0,0.0,0.0,0.0,-0.000294355271888787,-0.0003920188000233001,-0.0019629561178555227,0.0,0.0,0.0,0.0,0.0,0.0,0.0,0.0,0.0,0.004899200833751293,0.0037987597785296007,9.809286026291511,0.0,0.0,0.0,0.0,0.0,0.0,0.0,0.0,0.0
2025/05/21 11:56:24.382873299,1747821384,381585679,mA1/imu,0.01627447357512944,-0.9998671093203109,-0.0008560720077417903,-0.0004151505940321989,0.0,0.0,0.0,0.0,0.0,0.0,0.0,0.0,0.0,-0.0004990677876821228,-0.0002555266613157508,-0.0019181747132464475,0.0,0.0,0.0,0.0,0.0,0.0,0.0,0.0,0.0,0.005399407432994068,0.5635396586125877,9.810610556275948,0.0,0.0,0.0,0.0,0.0,0.0,0.0,0.0,0.0
2025/05/21 11:56:24.433777542,1747821384,432607241,mA1/imu,0.016321766878089845,-0.9998663304684546,-0.0008633755356763364,-0.000419170858647557,0.0,0.0,0.0,0.0,0.0,0.0,0.0,0.0,0.0,0.0012645661334161951,-0.00010472268671127552,-0.001874717033621943,0.0,0.0,0.0,0.0,0.0,0.0,0.0,0.0,0.0,0.004519331619358594,-0.5396631461538075,9.808850663667362,0.0,0.0,0.0,0.0,0.0,0.0,0.0,0.0,0.0
2025/05/21 11:56:24.488123220,1747821384,484442627,mA1/imu,0.01636798524137759,-0.9998655617701745,-0.000878556882427271,-0.00041902619912711765,0.0,0.0,0.0,0.0,0.0,0.0,0.0,0.0,0.0,0.0001411121493147529,5.24241064063982e-05,-0.0018322806195994017,0.0,0.0,0.0,0.0,0.0,0.0,0.0,0.0,0.0,0.005799915864636077,0.009653970852291582,9.81189822901649,0.0,0.0,0.0,0.0,0.0,0.0,0.0,0.0,0.0
2025/05/21 11:56:24.527330431,1747821384,526437458,mA1/imu,0.01641314335037368,-0.9998648099146935,-0.000893628965436239,-0.0004147853497074258,0.0,0.0,0.0,0.0,0.0,0.0,0.0,0.0,0.0,-0.00019690018834162616,0.00021353970851840546,-0.0017896592956931849,0.0,0.0,0.0,0.0,0.0,0.0,0.0,0.0,0.0,0.006566069065793512,-0.6413258415870057,9.811213325251721,0.0,0.0,0.0,0.0,0.0,0.0,0.0,0.0,0.0
2025/05/21 11:56:24.577305554,1747821384,576351095,mA1/imu,0.016455958892130796,-0.999864102582597,-0.0009007493224592227,-0.00040796359739023294,0.0,0.0,0.0,0.0,0.0,0.0,0.0,0.0,0.0,-0.0006349957872075667,0.00031060139350370166,-0.0016454232308980498,0.0,0.0,0.0,0.0,0.0,0.0,0.0,0.0,0.0,0.006390674817974347,-0.041219153619671114,9.809878529879278,0.0,0.0,0.0,0.0,0.0,0.0,0.0,0.0,0.0
2025/05/21 11:56:24.629410944,1747821384,627317901,mA1/imu,0.016495116437242042,-0.9998634562279883,-0.0009056807564570333,-0.0003997197905881563,0.0,0.0,0.0,0.0,0.0,0.0,0.0,0.0,0.0,-0.0007085382716922251,0.00034950215790352057,-0.0015456845042573707,0.0,0.0,0.0,0.0,0.0,0.0,0.0,0.0,0.0,0.007585429668610791,0.19155580694640034,9.810546063018387,0.0,0.0,0.0,0.0,0.0,0.0,0.0,0.0,0.0
2025/05/21 11:56:24.678597502,1747821384,677231095,mA1/imu,0.016530379564479482,-0.9998628743777902,-0.0009108292271930432,-0.00038650039621274834,0.0,0.0,0.0,0.0,0.0,0.0,0.0,0.0,0.0,-0.0004353677906820358,0.0006246250192712741,-0.0013304901036656732,0.0,0.0,0.0,0.0,0.0,0.0,0.0,0.0,0.0,0.004913395172227062,0.5880499084901947,9.811167010002137,0.0,0.0,0.0,0.0,0.0,0.0,0.0,0.0,0.0
2025/05/21 11:56:24.729323876,1747821384,728209653,mA1/imu,0.016563167421566938,-0.9998623338689546,-0.0009147873091831828,-0.00037142868948072163,0.0,0.0,0.0,0.0,0.0,0.0,0.0,0.0,0.0,0.0006914729137265396,0.0005843288769564386,-0.0012981538817065698,0.0,0.0,0.0,0.0,0.0,0.0,0.0,0.0,0.0,0.007910182195908241,0.0337427712199503,9.810372560985636,0.0,0.0,0.0,0.0,0.0,0.0,0.0,0.0,0.0
2025/05/21 11:56:24.778935146,1747821384,778066245,mA1/imu,0.01659570751600655,-0.9998617939491862,-0.0009203507817807266,-0.0003583953084888059,0.0,0.0,0.0,0.0,0.0,0.0,0.0,0.0,0.0,0.0002573448189953988,0.0004526435486032464,-0.0013035173361179257,0.0,0.0,0.0,0.0,0.0,0.0,0.0,0.0,0.0,0.010212041355505717,-0.006940522726308868,9.811487241938218,0.0,0.0,0.0,0.0,0.0,0.0,0.0,0.0,0.0
2025/05/21 11:56:24.829765721,1747821384,829041264,mA1/imu,0.01662789021440038,-0.9998612580044524,-0.0009256142291085968,-0.0003482055008551519,0.0,0.0,0.0,0.0,0.0,0.0,0.0,0.0,0.0,-0.0007853089127123517,0.0003621903886118882,-0.0012766858464442218,0.0,0.0,0.0,0.0,0.0,0.0,0.0,0.0,0.0,0.009281469383873824,-0.08340044640784504,9.811766072365424,0.0,0.0,0.0,0.0,0.0,0.0,0.0,0.0,0.0
2025/05/21 11:56:24.880571344,1747821384,878932252,mA1/imu,0.016659412176166472,-0.999860737509443,-0.0009238133272054176,-0.00034079605884466306,0.0,0.0,0.0,0.0,0.0,0.0,0.0,0.0,0.0,-0.0019494185229124124,0.00026288435493985893,-0.0012500680849622315,0.0,0.0,0.0,0.0,0.0,0.0,0.0,0.0,0.0,0.008772766475909313,0.2781552017911187,9.810436150433983,0.0,0.0,0.0,0.0,0.0,0.0,0.0,0.0,0.0
2025/05/21 11:56:24.931143483,1747821384,929975908,mA1/imu,0.01669026785871912,-0.9998602435243097,-0.0009026265643065317,-0.00033711066138328647,0.0,0.0,0.0,0.0,0.0,0.0,0.0,0.0,0.0,-0.0006868394404603175,0.00012713971934492598,-0.0012237683112160272,0.0,0.0,0.0,0.0,0.0,0.0,0.0,0.0,0.0,0.00868533396329472,0.5404868442684085,9.80954934346871,0.0,0.0,0.0,0.0,0.0,0.0,0.0,0.0,0.0
2025/05/21 11:56:24.981677324,1747821384,979854113,mA1/imu,0.01672046758066647,-0.9998597438843599,-0.000897384395748499,-0.0003364886804656067,0.0,0.0,0.0,0.0,0.0,0.0,0.0,0.0,0.0,0.0005393791240095742,-2.53446334783679e-05,-0.0011977261436278569,0.0,0.0,0.0,0.0,0.0,0.0,0.0,0.0,0.0,0.008660783715395495,0.6193696409151096,9.810512137314381,0.0,0.0,0.0,0.0,0.0,0.0,0.0,0.0,0.0
2025/05/21 11:56:25.32730112,1747821385,31852307,mA1/imu,0.016750032294115872,-0.9998592487930589,-0.0008967030770485484,-0.0003390349800642317,0.0,0.0,0.0,0.0,0.0,0.0,0.0,0.0,0.0,7.865098783647455e-05,-0.00014885093362426984,-0.0011730959763012617,0.0,0.0,0.0,0.0,0.0,0.0,0.0,0.0,0.0,0.007661429434339941,0.25709587888742896,9.809269000553487,0.0,0.0,0.0,0.0,0.0,0.0,0.0,0.0,0.0
2025/05/21 11:56:25.83130429,1747821385,81715743,mA1/imu,0.016779966946231715,-0.9998587532020641,-0.0008870648703783113,-0.00034564492325157696,0.0,0.0,0.0,0.0,0.0,0.0,0.0,0.0,0.0,0.0004583095156433208,-0.000345185527675438,-0.0012267532779131614,0.0,0.0,0.0,0.0,0.0,0.0,0.0,0.0,0.0,0.011975687415884131,-0.023123343525805105,9.809283731204546,0.0,0.0,0.0,0.0,0.0,0.0,0.0,0.0,0.0
2025/05/21 11:56:25.134146100,1747821385,132787634,mA1/imu,0.016811079739394587,-0.9998582371335876,-0.00087540920344625,-0.00035622020836934633,0.0,0.0,0.0,0.0,0.0,0.0,0.0,0.0,0.0,0.00048329145591462203,-0.0004207166293270336,-0.0012380155135990017,0.0,0.0,0.0,0.0,0.0,0.0,0.0,0.0,0.0,0.0058941821198473495,-0.022003762319708402,9.808969243335705,0.0,0.0,0.0,0.0,0.0,0.0,0.0,0.0,0.0
2025/05/21 11:56:25.184221322,1747821385,182903678,mA1/imu,0.016842477301963338,-0.9998577154901278,-0.0008633970640471885,-0.0003664405885263497,0.0,0.0,0.0,0.0,0.0,0.0,0.0,0.0,0.0,0.00048699205681203696,-0.0003808180348867631,-0.0012665234395716127,0.0,0.0,0.0,0.0,0.0,0.0,0.0,0.0,0.0,0.005474584933595071,-0.022848830624515957,9.809163683134333,0.0,0.0,0.0,0.0,0.0,0.0,0.0,0.0,0.0
2025/05/21 11:56:25.236099441,1747821385,234662589,mA1/imu,0.0168738063848878,-0.99985719213101,-0.0008538747365230353,-0.0003753663707916149,0.0,0.0,0.0,0.0,0.0,0.0,0.0,0.0,0.0,0.00034209323476886724,-0.0003470212741810257,-0.0012589160757116567,0.0,0.0,0.0,0.0,0.0,0.0,0.0,0.0,0.0,0.010394238678198001,-0.03372460702567623,9.808667240204272,0.0,0.0,0.0,0.0,0.0,0.0,0.0,0.0,0.0
2025/05/21 11:56:25.285415612,1747821385,284398194,mA1/imu,0.016906011928679222,-0.9998566559119082,-0.000840497519535854,-0.00038464690674348524,0.0,0.0,0.0,0.0,0.0,0.0,0.0,0.0,0.0,-0.0004442790094065729,-0.00032170168387539634,-0.001288303402433459,0.0,0.0,0.0,0.0,0.0,0.0,0.0,0.0,0.0,0.004346506529755774,0.5451568440902279,9.809950007837212,0.0,0.0,0.0,0.0,0.0,0.0,0.0,0.0,0.0
2025/05/21 11:56:25.337501004,1747821385,335386093,mA1/imu,0.01693826603396309,-0.999856112508522,-0.0008342247872214893,-0.0003917806949896254,0.0,0.0,0.0,0.0,0.0,0.0,0.0,0.0,0.0,-0.00036516364112872037,-0.00033932994374538347,-0.0013585060055850654,0.0,0.0,0.0,0.0,0.0,0.0,0.0,0.0,0.0,0.025943565841248045,-0.08862550318787384,9.807881417008717,0.0,0.0,0.0,0.0,0.0,0.0,0.0,0.0,0.0
2025/05/21 11:56:25.386551388,1747821385,385395715,mA1/imu,0.01697758012042438,-0.9998554481995632,-0.0008249487861197303,-0.00040489307902847623,0.0,0.0,0.0,0.0,0.0,0.0,0.0,0.0,0.0,0.0010456499090005995,-0.0004963216125100752,-0.00161597793151828,0.0,0.0,0.0,0.0,0.0,0.0,0.0,0.0,0.0,0.002620201275176131,-0.597426414634003,9.80839483705652,0.0,0.0,0.0,0.0,0.0,0.0,0.0,0.0,0.0
2025/05/21 11:56:25.427342593,1747821385,426285672,mA1/imu,0.017017332354927694,-0.9998547749428165,-0.0008175799632820682,-0.0004135052300392773,0.0,0.0,0.0,0.0,0.0,0.0,0.0,0.0,0.0,-0.0002474924571716472,-0.00023240679955192954,-0.001574155172487756,0.0,0.0,0.0,0.0,0.0,0.0,0.0,0.0,0.0,0.001822249512310888,0.5772447100878307,9.810295755437476,0.0,0.0,0.0,0.0,0.0,0.0,0.0,0.0,0.0
2025/05/21 11:56:25.477045407,1747821385,476144389,mA1/imu,0.01705756569835363,-0.9998540917121639,-0.0008134328249759058,-0.0004160119340880166,0.0,0.0,0.0,0.0,0.0,0.0,0.0,0.0,0.0,-0.00037999252578348506,2.264893989645085e-05,-0.001628797854393622,0.0,0.0,0.0,0.0,0.0,0.0,0.0,0.0,0.0,0.0008676948467514611,0.5750813132381128,9.810268323949554,0.0,0.0,0.0,0.0,0.0,0.0,0.0,0.0,0.0
2025/05/21 11:56:25.529666448,1747821385,527600791,mA1/imu,0.01709766999313629,-0.9998534040259125,-0.0008189780915738292,-0.0004115986963947633,0.0,0.0,0.0,0.0,0.0,0.0,0.0,0.0,0.0,0.0004140066390665121,0.0002744095638504755,-0.001587927682573211,0.0,0.0,0.0,0.0,0.0,0.0,0.0,0.0,0.0,0.001873016884454258,-0.3294509690848052,9.809347133552583,0.0,0.0,0.0,0.0,0.0,0.0,0.0,0.0,0.0
2025/05/21 11:56:25.581497846,1747821385,579342784,mA1/imu,0.017137714034712197,-0.9998527219158362,-0.000819659774151151,-0.0004017374923371575,0.0,0.0,0.0,0.0,0.0,0.0,0.0,0.0,0.0,0.0004796628593559337,0.00045750847637227233,-0.0016087637668110342,0.0,0.0,0.0,0.0,0.0,0.0,0.0,0.0,0.0,0.0036425048887800526,-0.6150479519945445,9.809370665640092,0.0,0.0,0.0,0.0,0.0,0.0,0.0,0.0,0.0
2025/05/21 11:56:25.633829496,1747821385,630374175,mA1/imu,0.017177306527248935,-0.9998520443162021,-0.0008248155583035879,-0.0003863890202838182,0.0,0.0,0.0,0.0,0.0,0.0,0.0,0.0,0.0,-0.0003317319110328269,0.0006960817342383118,-0.0015671482441191708,0.0,0.0,0.0,0.0,0.0,0.0,0.0,0.0,0.0,0.0024474355943800343,-0.3555468580864517,9.809857239701062,0.0,0.0,0.0,0.0,0.0,0.0,0.0,0.0,0.0
2025/05/21 11:56:25.681552113,1747821385,680720577,mA1/imu,0.017217186563157957,-0.9998513663627151,-0.0008250272343784871,-0.00036469099750889035,0.0,0.0,0.0,0.0,0.0,0.0,0.0,0.0,0.0,-0.0004549158706738594,0.0009680629074859441,-0.001609845776485557,0.0,0.0,0.0,0.0,0.0,0.0,0.0,0.0,0.0,0.0018061076599485536,-0.44878731179519915,9.811206647506383,0.0,0.0,0.0,0.0,0.0,0.0,0.0,0.0,0.0
2025/05/21 11:56:25.733860594,1747821385,731674614,mA1/imu,0.017256905269644324,-0.9998506842584176,-0.0008330515116279241,-0.0003382804567470187,0.0,0.0,0.0,0.0,0.0,0.0,0.0,0.0,0.0,-0.0009578678372327446,0.0010984837481988778,-0.0015735708972745455,0.0,0.0,0.0,0.0,0.0,0.0,0.0,0.0,0.0,0.003344489083775125,-0.19036262890798528,9.811266963837369,0.0,0.0,0.0,0.0,0.0,0.0,0.0,0.0,0.0
2025/05/21 11:56:25.783077763,1747821385,781695005,mA1/imu,0.0172956874011626,-0.9998500209278454,-0.0008359836489037393,-0.0003098051758695841,0.0,0.0,0.0,0.0,0.0,0.0,0.0,0.0,0.0,-0.0010285720254518133,0.0011673682385850129,-0.001533890817570548,0.0,0.0,0.0,0.0,0.0,0.0,0.0,0.0,0.0,0.0023630474896529415,-0.07420859865595411,9.809302256305253,0.0,0.0,0.0,0.0,0.0,0.0,0.0,0.0,0.0
2025/05/21 11:56:25.833775650,1747821385,832717947,mA1/imu,0.01733348090468353,-0.9998493791628389,-0.0008309257839511692,-0.0002810511590884867,0.0,0.0,0.0,0.0,0.0,0.0,0.0,0.0,0.0,-0.0007691773764894417,0.001148860801062743,-0.0014954164637457344,0.0,0.0,0.0,0.0,0.0,0.0,0.0,0.0,0.0,0.0034456817404492635,0.26957839147153295,9.81147953849255,0.0,0.0,0.0,0.0,0.0,0.0,0.0,0.0,0.0
2025/05/21 11:56:25.883961555,1747821385,882572443,mA1/imu,0.01737032799887587,-0.9998487337705161,-0.0008468020029581269,-0.00025339509621049737,0.0,0.0,0.0,0.0,0.0,0.0,0.0,0.0,0.0,-0.00022662028749288588,0.0010516827537536654,-0.001458251612736191,0.0,0.0,0.0,0.0,0.0,0.0,0.0,0.0,0.0,0.003512102243667033,-0.019792648734210543,9.809931452658121,0.0,0.0,0.0,0.0,0.0,0.0,0.0,0.0,0.0
2025/05/21 11:56:25.935139082,1747821385,933790615,mA1/imu,0.017406247514397313,-0.9998481127864306,-0.0008493586230001339,-0.00022911745940448994,0.0,0.0,0.0,0.0,0.0,0.0,0.0,0.0,0.0,-0.0010355512686359444,0.0009069741224904731,-0.001421443526714219,0.0,0.0,0.0,0.0,0.0,0.0,0.0,0.0,0.0,0.004481054688105595,-0.07792951855759819,9.810685203645976,0.0,0.0,0.0,0.0,0.0,0.0,0.0,0.0,0.0
2025/05/21 11:56:25.984862879,1747821385,983705007,mA1/imu,0.017441271186908084,-0.9998475130761512,-0.0008417612710369893,-0.0002099828167618844,0.0,0.0,0.0,0.0,0.0,0.0,0.0,0.0,0.0,0.0002723368678527529,0.0006921525451776677,-0.0013859662605382704,0.0,0.0,0.0,0.0,0.0,0.0,0.0,0.0,0.0,0.004027212122366165,0.639816015939273,9.812780520001422,0.0,0.0,0.0,0.0,0.0,0.0,0.0,0.0,0.0
2025/05/21 11:56:26.28137749,1747821386,26226537,mA1/imu,0.017475414558083206,-0.9998468999133063,-0.000864976335620969,-0.0001960502810896781,0.0,0.0,0.0,0.0,0.0,0.0,0.0,0.0,0.0,-0.0005503166621593643,0.0004237982675248441,-0.0013521579834191945,0.0,0.0,0.0,0.0,0.0,0.0,0.0,0.0,0.0,0.005222769270496062,-0.11756614635959753,9.809974479773032,0.0,0.0,0.0,0.0,0.0,0.0,0.0,0.0,0.0
2025/05/21 11:56:26.78274325,1747821386,76574309,mA1/imu,0.017507208932944197,-0.9998463470890427,-0.0008625588161017705,-0.0001893155146133992,0.0,0.0,0.0,0.0,0.0,0.0,0.0,0.0,0.0,-0.002145848717066279,0.00017450951530524278,-0.0012022504825462891,0.0,0.0,0.0,0.0,0.0,0.0,0.0,0.0,0.0,0.00511801501064494,0.36039022092088524,9.811096826760226,0.0,0.0,0.0,0.0,0.0,0.0,0.0,0.0,0.0
2025/05/21 11:56:26.132674965,1747821386,128659814,mA1/imu,0.01753516417591081,-0.9998458611049684,-0.0008573006802563159,-0.00019257240634527222,0.0,0.0,0.0,0.0,0.0,0.0,0.0,0.0,0.0,0.0003944306724640824,-0.0002595669470995661,-0.00110005352044499,0.0,0.0,0.0,0.0,0.0,0.0,0.0,0.0,0.0,0.005393287254744136,0.2683824461473954,9.810707713571867,0.0,0.0,0.0,0.0,0.0,0.0,0.0,0.0,0.0
2025/05/21 11:56:26.179575552,1747821386,178544248,mA1/imu,0.01756134928963674,-0.9998453948383623,-0.0008627394334006636,-0.0002027617243223086,0.0,0.0,0.0,0.0,0.0,0.0,0.0,0.0,0.0,0.0007881054923961599,-0.000521802049933452,-0.0010140279789927172,0.0,0.0,0.0,0.0,0.0,0.0,0.0,0.0,0.0,0.004912996026552685,0.03356478599467565,9.808677045937195,0.0,0.0,0.0,0.0,0.0,0.0,0.0,0.0,0.0
2025/05/21 11:56:26.233328282,1747821386,229855278,mA1/imu,0.01758633039322196,-0.9998449498665138,-0.0008652646385965781,-0.00022028807036174496,0.0,0.0,0.0,0.0,0.0,0.0,0.0,0.0,0.0,0.0010516443154777524,-0.0008312056078851019,-0.0009911556243343853,0.0,0.0,0.0,0.0,0.0,0.0,0.0,0.0,0.0,0.006088466856914118,-0.5787957897612092,9.80757722251894,0.0,0.0,0.0,0.0,0.0,0.0,0.0,0.0,0.0
2025/05/21 11:56:26.280707888,1747821386,279784732,mA1/imu,0.017610733275625894,-0.9998445129649687,-0.0008671710361156385,-0.0002449116851539418,0.0,0.0,0.0,0.0,0.0,0.0,0.0,0.0,0.0,-0.0005322968454982166,-0.0010882491290021383,-0.0009682253234774054,0.0,0.0,0.0,0.0,0.0,0.0,0.0,0.0,0.0,0.006618637975657657,-0.06378077024183347,9.810179046720638,0.0,0.0,0.0,0.0,0.0,0.0,0.0,0.0,0.0
2025/05/21 11:56:26.333942153,1747821386,331506023,mA1/imu,0.017634565711228595,-0.9998440865371493,-0.0008654461370810075,-0.0002751578705108462,0.0,0.0,0.0,0.0,0.0,0.0,0.0,0.0,0.0,-0.0008802770846807207,-0.0012760099554314835,-0.000945655023270636,0.0,0.0,0.0,0.0,0.0,0.0,0.0,0.0,0.0,0.0063532033727507,-0.09055829535141525,9.810239769992997,0.0,0.0,0.0,0.0,0.0,0.0,0.0,0.0,0.0
2025/05/21 11:56:26.381999801,1747821386,380719965,mA1/imu,0.017657843474874466,-0.999843671766975,-0.0008585043240616293,-0.00030913051632882173,0.0,0.0,0.0,0.0,0.0,0.0,0.0,0.0,0.0,-0.00014398434706495734,-0.001390701491562715,-0.0009237673859427673,0.0,0.0,0.0,0.0,0.0,0.0,0.0,0.0,0.0,0.005779889380295787,-0.04133479437547487,9.807994018628477,0.0,0.0,0.0,0.0,0.0,0.0,0.0,0.0,0.0
2025/05/21 11:56:26.432803770,1747821386,431719725,mA1/imu,0.017680581320592692,-0.9998432668799017,-0.000848461019458655,-0.00034472161270802443,0.0,0.0,0.0,0.0,0.0,0.0,0.0,0.0,0.0,-0.0004298498108433025,-0.0014130357186855338,-0.000902179062551073,0.0,0.0,0.0,0.0,0.0,0.0,0.0,0.0,0.0,0.005234043876880323,0.5663139356610772,9.809107376038659,0.0,0.0,0.0,0.0,0.0,0.0,0.0,0.0,0.0
2025/05/21 11:56:26.483945751,1747821386,482053994,mA1/imu,0.017702780734614627,-0.9998428637387071,-0.0008456100786158275,-0.0003799060912946937,0.0,0.0,0.0,0.0,0.0,0.0,0.0,0.0,0.0,-0.0003257809308226022,-0.0013736056753805295,-0.0008803752145544378,0.0,0.0,0.0,0.0,0.0,0.0,0.0,0.0,0.0,0.004946198843915151,0.5726419769711218,9.80927449065986,0.0,0.0,0.0,0.0,0.0,0.0,0.0,0.0,0.0
2025/05/21 11:56:26.533934946,1747821386,532701361,mA1/imu,0.017724461005827565,-0.9998424699964226,-0.0008415128693180558,-0.00041295229330751295,0.0,0.0,0.0,0.0,0.0,0.0,0.0,0.0,0.0,0.0014842969360673631,-0.0012705732166906124,-0.0008606006895655969,0.0,0.0,0.0,0.0,0.0,0.0,0.0,0.0,0.0,0.0048713485807082135,-0.5618429518872403,9.807057483579602,0.0,0.0,0.0,0.0,0.0,0.0,0.0,0.0,0.0
2025/05/21 11:56:26.583964862,1747821386,582699669,mA1/imu,0.017745641018156656,-0.9998420848592297,-0.0008379213582765297,-0.00044210519253091085,0.0,0.0,0.0,0.0,0.0,0.0,0.0,0.0,0.0,0.0015576734598874396,-0.0011064148635999505,-0.000840788893870608,0.0,0.0,0.0,0.0,0.0,0.0,0.0,0.0,0.0,0.006006515896409317,-0.5607243918612491,9.808502258909007,0.0,0.0,0.0,0.0,0.0,0.0,0.0,0.0,0.0
2025/05/21 11:56:26.635100235,1747821386,633828842,mA1/imu,0.01776632403169234,-0.999841707747538,-0.0008368173034906676,-0.0004657420833886773,0.0,0.0,0.0,0.0,0.0,0.0,0.0,0.0,0.0,-0.0001260307836679396,-0.0008463725089488344,-0.0008208502636851061,0.0,0.0,0.0,0.0,0.0,0.0,0.0,0.0,0.0,0.0051060572702733556,-0.044986075711346614,9.811041249005843,0.0,0.0,0.0,0.0,0.0,0.0,0.0,0.0,0.0
2025/05/21 11:56:26.684776088,1747821386,683724410,mA1/imu,0.017786544864329873,-0.9998413420880305,-0.0008345331564753911,-0.0004827295370711996,0.0,0.0,0.0,0.0,0.0,0.0,0.0,0.0,0.0,-0.0017579350735196688,-0.0005453018394846338,-0.0008017290914273867,0.0,0.0,0.0,0.0,0.0,0.0,0.0,0.0,0.0,0.004741694177860453,0.47478288012829706,9.810008035642106,0.0,0.0,0.0,0.0,0.0,0.0,0.0,0.0,0.0
2025/05/21 11:56:26.736976798,1747821386,735634711,mA1/imu,0.017806301857709525,-0.9998409950913753,-0.0008231263645971064,-0.0004925564217696193,0.0,0.0,0.0,0.0,0.0,0.0,0.0,0.0,0.0,-0.000244850950945489,-0.0002523386678788487,-0.0007833808718938102,0.0,0.0,0.0,0.0,0.0,0.0,0.0,0.0,0.0,0.005262205894843771,-0.051292091139013216,9.80901312096339,0.0,0.0,0.0,0.0,0.0,0.0,0.0,0.0,0.0
2025/05/21 11:56:26.786759469,1747821386,785329145,mA1/imu,0.017825627017455454,-0.9998406592219279,-0.0008115444357641328,-0.0004945540659093753,0.0,0.0,0.0,0.0,0.0,0.0,0.0,0.0,0.0,0.001246902264907437,5.156699245692621e-05,-0.0007666962881693578,0.0,0.0,0.0,0.0,0.0,0.0,0.0,0.0,0.0,0.00529162549913265,0.05229038431164856,9.809597234123848,0.0,0.0,0.0,0.0,0.0,0.0,0.0,0.0,0.0
2025/05/21 11:56:26.827411338,1747821386,826273966,mA1/imu,0.017844537938485706,-0.9998403271143593,-0.0008086637722778373,-0.000488676289914769,0.0,0.0,0.0,0.0,0.0,0.0,0.0,0.0,0.0,0.0012741251600585878,0.000349485068124829,-0.0007496474331483813,0.0,0.0,0.0,0.0,0.0,0.0,0.0,0.0,0.0,0.0047641076427108,0.059625090774582404,9.810302075094276,0.0,0.0,0.0,0.0,0.0,0.0,0.0,0.0,0.0
2025/05/21 11:56:26.877261699,1747821386,876160679,mA1/imu,0.017863037601961423,-0.999839998254725,-0.0008146771395473071,-0.0004754774238116045,0.0,0.0,0.0,0.0,0.0,0.0,0.0,0.0,0.0,-0.00014584989302570433,0.0006256882085782102,-0.0007333307998043712,0.0,0.0,0.0,0.0,0.0,0.0,0.0,0.0,0.0,0.005711830830265769,-0.0379540629867855,9.811607438875308,0.0,0.0,0.0,0.0,0.0,0.0,0.0,0.0,0.0
2025/05/21 11:56:26.928355305,1747821386,927313523,mA1/imu,0.017881131643989915,-0.9998396843965006,-0.0008139266074656722,-0.0004562461114590889,0.0,0.0,0.0,0.0,0.0,0.0,0.0,0.0,0.0,-9.6846295795805e-05,0.0008520894992578803,-0.0007166884406350837,0.0,0.0,0.0,0.0,0.0,0.0,0.0,0.0,0.0,0.00657674813249268,-0.6618258245001368,9.811121257723048,0.0,0.0,0.0,0.0,0.0,0.0,0.0,0.0,0.0
2025/05/21 11:56:26.978403976,1747821386,977203415,mA1/imu,0.017898807950762898,-0.9998393845281205,-0.000806711308616165,-0.00043247801729955917,0.0,0.0,0.0,0.0,0.0,0.0,0.0,0.0,0.0,-0.0003409513150963965,0.0010228133533931245,-0.0006999370726995351,0.0,0.0,0.0,0.0,0.0,0.0,0.0,0.0,0.0,0.006371701683795638,-0.045325962122409066,9.810277461206903,0.0,0.0,0.0,0.0,0.0,0.0,0.0,0.0,0.0
2025/05/21 11:56:27.29472939,1747821387,28294068,mA1/imu,0.017916090070852878,-0.9998390912213282,-0.0008006332747892794,-0.000405424026510291,0.0,0.0,0.0,0.0,0.0,0.0,0.0,0.0,0.0,-0.0006290586084161866,0.00112841864239813,-0.0006839456418789811,0.0,0.0,0.0,0.0,0.0,0.0,0.0,0.0,0.0,0.006735533253821931,0.5676948031438548,9.81165353878654,0.0,0.0,0.0,0.0,0.0,0.0,0.0,0.0,0.0
2025/05/21 11:56:27.78955319,1747821387,78133753,mA1/imu,0.017932963165804037,-0.9998387982497084,-0.0008027356338757752,-0.0003767786815440576,0.0,0.0,0.0,0.0,0.0,0.0,0.0,0.0,0.0,-0.0005964033229502729,0.0011575373450607431,-0.0006669839655509013,0.0,0.0,0.0,0.0,0.0,0.0,0.0,0.0,0.0,0.006759853495205516,0.5737880478427866,9.811851858534812,0.0,0.0,0.0,0.0,0.0,0.0,0.0,0.0,0.0
2025/05/21 11:56:27.130667005,1747821387,129179717,mA1/imu,0.017949438374493403,-0.9998385109185598,-0.0008051881129731554,-0.0003484512881687187,0.0,0.0,0.0,0.0,0.0,0.0,0.0,0.0,0.0,0.0011551001279590724,0.001106375446321919,-0.0006522550446627766,0.0,0.0,0.0,0.0,0.0,0.0,0.0,0.0,0.0,0.006994730084524487,-0.5609421375795488,9.809190290840903,0.0,0.0,0.0,0.0,0.0,0.0,0.0,0.0,0.0
2025/05/21 11:56:27.180324933,1747821387,179062639,mA1/imu,0.017965536142877468,-0.9998382271940983,-0.0008094485646667615,-0.00032209545596297733,0.0,0.0,0.0,0.0,0.0,0.0,0.0,0.0,0.0,0.0011872409883372497,0.0009857182054258736,-0.0006375657550917277,0.0,0.0,0.0,0.0,0.0,0.0,0.0,0.0,0.0,0.008042226849287536,-0.5599024267465035,9.810367284978662,0.0,0.0,0.0,0.0,0.0,0.0,0.0,0.0,0.0
2025/05/21 11:56:27.231878781,1747821387,230518115,mA1/imu,0.01798125414639924,-0.9998379468228356,-0.0008154945028156571,-0.0002992676644007904,0.0,0.0,0.0,0.0,0.0,0.0,0.0,0.0,0.0,-0.0004742374314566937,0.0008377990844984227,-0.0006226012680143521,0.0,0.0,0.0,0.0,0.0,0.0,0.0,0.0,0.0,0.007850794436974505,-0.041031111928855085,9.812404989514823,0.0,0.0,0.0,0.0,0.0,0.0,0.0,0.0,0.0
2025/05/21 11:56:27.281348387,1747821387,280199021,mA1/imu,0.01799662482516703,-0.9998376702604533,-0.0008219262020941997,-0.00028117675839588543,0.0,0.0,0.0,0.0,0.0,0.0,0.0,0.0,0.0,-0.0021429006025634723,0.0006468857754915898,-0.0006082462822175432,0.0,0.0,0.0,0.0,0.0,0.0,0.0,0.0,0.0,0.007682255049268447,0.47687512085522377,9.811048924939408,0.0,0.0,0.0,0.0,0.0,0.0,0.0,0.0,0.0
2025/05/21 11:56:27.333603578,1747821387,332205857,mA1/imu,0.01801164022305045,-0.99983740487977,-0.0008198708347617656,-0.0002691311516087252,0.0,0.0,0.0,0.0,0.0,0.0,0.0,0.0,0.0,-0.0006339765894011137,0.00039591836703730597,-0.0005945532969083774,0.0,0.0,0.0,0.0,0.0,0.0,0.0,0.0,0.0,0.007242011514871097,-0.05000084537088166,9.80934555985332,0.0,0.0,0.0,0.0,0.0,0.0,0.0,0.0,0.0
2025/05/21 11:56:27.382769456,1747821387,381712576,mA1/imu,0.018027402644219724,-0.9998371237587159,-0.0008177254602025084,-0.0002646372478435178,0.0,0.0,0.0,0.0,0.0,0.0,0.0,0.0,0.0,0.0008700822866304282,4.645233406108785e-05,-0.0006514700577768782,0.0,0.0,0.0,0.0,0.0,0.0,0.0,0.0,0.0,0.008484879398897128,0.052663362018663853,9.809248262836265,0.0,0.0,0.0,0.0,0.0,0.0,0.0,0.0,0.0
2025/05/21 11:56:27.433587709,1747821387,432689381,mA1/imu,0.018043456098830808,-0.9998368286411943,-0.0008239064994753839,-0.00026638845497296533,0.0,0.0,0.0,0.0,0.0,0.0,0.0,0.0,0.0,0.0009341723014171425,-0.0001586842364708547,-0.0006363836023964539,0.0,0.0,0.0,0.0,0.0,0.0,0.0,0.0,0.0,0.005269591790308933,0.06058464294300238,9.80945183141413,0.0,0.0,0.0,0.0,0.0,0.0,0.0,0.0,0.0
2025/05/21 11:56:27.483808556,1747821387,482586543,mA1/imu,0.01806287760916636,-0.9998364621049186,-0.0008392367308200972,-0.0002778123567573862,0.0,0.0,0.0,0.0,0.0,0.0,0.0,0.0,0.0,-0.000503285988126501,-0.0006498054066165958,-0.0008615578407445957,0.0,0.0,0.0,0.0,0.0,0.0,0.0,0.0,0.0,0.008582130428195077,-0.04010731108926322,9.81104879485097,0.0,0.0,0.0,0.0,0.0,0.0,0.0,0.0,0.0
2025/05/21 11:56:27.534889845,1747821387,533665353,mA1/imu,0.01808416850503903,-0.9998360654947852,-0.0008472793187358074,-0.0002951324196676287,0.0,0.0,0.0,0.0,0.0,0.0,0.0,0.0,0.0,-0.0004151625039985778,-0.0007268102958038488,-0.0008609521700420985,0.0,0.0,0.0,0.0,0.0,0.0,0.0,0.0,0.0,0.0010981887292557321,-0.6699330706024855,9.810646753467138,0.0,0.0,0.0,0.0,0.0,0.0,0.0,0.0,0.0
2025/05/21 11:56:27.585300602,1747821387,583536508,mA1/imu,0.018106497285708588,-0.9998356553400197,-0.0008482034287371336,-0.00031243844107802155,0.0,0.0,0.0,0.0,0.0,0.0,0.0,0.0,0.0,-0.0006038328298159515,-0.0006725948641504107,-0.0008949041919723629,0.0,0.0,0.0,0.0,0.0,0.0,0.0,0.0,0.0,0.0038323318145151953,-0.04350958922577213,9.808126811117466,0.0,0.0,0.0,0.0,0.0,0.0,0.0,0.0,0.0
2025/05/21 11:56:27.635870647,1747821387,634609242,mA1/imu,0.01812890134192922,-0.9998352441349572,-0.0008478116523584704,-0.0003297531307214787,0.0,0.0,0.0,0.0,0.0,0.0,0.0,0.0,0.0,-0.0007686837505619894,-0.0007622214027695417,-0.0009514172627685119,0.0,0.0,0.0,0.0,0.0,0.0,0.0,0.0,0.0,0.02219427880461977,0.5708134876903393,9.81030159299959,0.0,0.0,0.0,0.0,0.0,0.0,0.0,0.0,0.0
2025/05/21 11:56:27.685985215,1747821387,684544395,mA1/imu,0.01815716517836028,-0.9998347175705264,-0.0008532927846777943,-0.0003560684976111596,0.0,0.0,0.0,0.0,0.0,0.0,0.0,0.0,0.0,-0.0006610419940722896,-0.0010947563024679002,-0.0011688396599197634,0.0,0.0,0.0,0.0,0.0,0.0,0.0,0.0,0.0,0.0016465403874070658,0.5757298874530892,9.809348207348263,0.0,0.0,0.0,0.0,0.0,0.0,0.0,0.0,0.0
2025/05/21 11:56:27.737581492,1747821387,735937698,mA1/imu,0.01818636567308022,-0.9998341741517456,-0.0008570768167539646,-0.00038173450469760223,0.0,0.0,0.0,0.0,0.0,0.0,0.0,0.0,0.0,0.0011577704536746825,-0.0010654381356103317,-0.0012347114672143717,0.0,0.0,0.0,0.0,0.0,0.0,0.0,0.0,0.0,0.02206950342840977,-0.5725388854028214,9.805567831063662,0.0,0.0,0.0,0.0,0.0,0.0,0.0,0.0,0.0
2025/05/21 11:56:27.776548400,1747821387,775486838,mA1/imu,0.018222513772548993,-0.9998335003433971,-0.0008617369678563108,-0.0004110867033620591,0.0,0.0,0.0,0.0,0.0,0.0,0.0,0.0,0.0,0.0012437908807513716,-0.0011313237998754413,-0.001489193343776395,0.0,0.0,0.0,0.0,0.0,0.0,0.0,0.0,0.0,0.0007574734559809091,-0.5582760336196616,9.808543275356158,0.0,0.0,0.0,0.0,0.0,0.0,0.0,0.0,0.0
2025/05/21 11:56:27.827488241,1747821387,826586596,mA1/imu,0.018259084824320735,-0.9998328202166152,-0.0008656998238363294,-0.00043359299183975806,0.0,0.0,0.0,0.0,0.0,0.0,0.0,0.0,0.0,-0.0003217475335026371,-0.0007574379502609162,-0.0014467095196470357,0.0,0.0,0.0,0.0,0.0,0.0,0.0,0.0,0.0,-0.00016311222038872634,-0.039587590170988146,9.810939494901456,0.0,0.0,0.0,0.0,0.0,0.0,0.0,0.0,0.0
2025/05/21 11:56:27.878938851,1747821387,877622174,mA1/imu,0.018295693208927447,-0.9998321411970813,-0.0008704101524509478,-0.00044657074581721693,0.0,0.0,0.0,0.0,0.0,0.0,0.0,0.0,0.0,-0.00206419556059081,-0.00034394757893730434,-0.0014761494306739478,0.0,0.0,0.0,0.0,0.0,0.0,0.0,0.0,0.0,-0.0007844975427679802,0.4672257775920094,9.809850601710869,0.0,0.0,0.0,0.0,0.0,0.0,0.0,0.0,0.0
2025/05/21 11:56:27.930258982,1747821387,929210754,mA1/imu,0.018331982875892442,-0.9998314893565963,-0.0008537217865734203,-0.00044994879672811576,0.0,0.0,0.0,0.0,0.0,0.0,0.0,0.0,0.0,-0.0008842296116321687,5.415805164843673e-05,-0.0014357533143841042,0.0,0.0,0.0,0.0,0.0,0.0,0.0,0.0,0.0,6.78869080167465e-05,0.5419831552093815,9.809503217879234,0.0,0.0,0.0,0.0,0.0,0.0,0.0,0.0,0.0
2025/05/21 11:56:27.980035262,1747821387,979001075,mA1/imu,0.01836726617481489,-0.9998308451219412,-0.0008533620320751205,-0.00044322595883289497,0.0,0.0,0.0,0.0,0.0,0.0,0.0,0.0,0.0,0.0002353798743204208,0.00042363117697725777,-0.0013950162154073807,0.0,0.0,0.0,0.0,0.0,0.0,0.0,0.0,0.0,-1.7053215772768957e-05,0.31059700126426715,9.81033971687357,0.0,0.0,0.0,0.0,0.0,0.0,0.0,0.0,0.0
2025/05/21 11:56:28.30957269,1747821388,30113840,mA1/imu,0.018401528017554052,-0.9998302254727867,-0.0008491492512717773,-0.00042771860455401254,0.0,0.0,0.0,0.0,0.0,0.0,0.0,0.0,0.0,0.0008612490525989421,0.000749706135198091,-0.001354065497765058,0.0,0.0,0.0,0.0,0.0,0.0,0.0,0.0,0.0,0.0006023740066494962,0.027733005588532054,9.810016997763976,0.0,0.0,0.0,0.0,0.0,0.0,0.0,0.0,0.0
2025/05/21 11:56:28.81288341,1747821388,79915757,mA1/imu,0.018434766103751363,-0.9998296265050446,-0.0008448466060614909,-0.0004044696469704657,0.0,0.0,0.0,0.0,0.0,0.0,0.0,0.0,0.0,0.0011936643498021188,0.0010354760621482332,-0.001312877161456169,0.0,0.0,0.0,0.0,0.0,0.0,0.0,0.0,0.0,0.0011311591590937552,-0.5415049587388542,9.81101143370886,0.0,0.0,0.0,0.0,0.0,0.0,0.0,0.0,0.0
2025/05/21 11:56:28.134990222,1747821388,133373154,mA1/imu,0.018466944258340983,-0.9998290450037197,-0.0008438275673824604,-0.00037508898383651896,0.0,0.0,0.0,0.0,0.0,0.0,0.0,0.0,0.0,-7.395923734265256e-05,0.0012546589710802352,-0.0012611321460833957,0.0,0.0,0.0,0.0,0.0,0.0,0.0,0.0,0.0,-0.00022721429932826432,-0.3201310398406505,9.812100589442068,0.0,0.0,0.0,0.0,0.0,0.0,0.0,0.0,0.0
2025/05/21 11:56:28.184588975,1747821388,183187799,mA1/imu,0.018497132482565747,-0.9998285123379251,-0.0008280372894607162,-0.0003411162577456175,0.0,0.0,0.0,0.0,0.0,0.0,0.0,0.0,0.0,0.0002609896152150416,0.0014283372613043597,-0.00118248719924968,0.0,0.0,0.0,0.0,0.0,0.0,0.0,0.0,0.0,0.002224852066359432,-0.02211246182460777,9.810840123514641,0.0,0.0,0.0,0.0,0.0,0.0,0.0,0.0,0.0
2025/05/21 11:56:28.237420239,1747821388,235758000,mA1/imu,0.018526104792248314,-0.9998279912013716,-0.0008236906770484754,-0.0003049346244606113,0.0,0.0,0.0,0.0,0.0,0.0,0.0,0.0,0.0,0.000601869930145211,0.0014494459920958306,-0.0011421410143915417,0.0,0.0,0.0,0.0,0.0,0.0,0.0,0.0,0.0,0.003237055644560137,-0.631702700385057,9.810795912536381,0.0,0.0,0.0,0.0,0.0,0.0,0.0,0.0,0.0
2025/05/21 11:56:28.276920868,1747821388,275563405,mA1/imu,0.01855411729057038,-0.9998274919553439,-0.0008113734711129285,-0.0002696941689556478,0.0,0.0,0.0,0.0,0.0,0.0,0.0,0.0,0.0,0.0005809652033154802,0.0013808411587590739,-0.0011047402889073168,0.0,0.0,0.0,0.0,0.0,0.0,0.0,0.0,0.0,0.003603474674317074,-0.2883640255824905,9.8109132679069,0.0,0.0,0.0,0.0,0.0,0.0,0.0,0.0,0.0
2025/05/21 11:56:28.327595819,1747821388,326541742,mA1/imu,0.01858117781674825,-0.9998270081105531,-0.0007983154078546024,-0.00023743662676701903,0.0,0.0,0.0,0.0,0.0,0.0,0.0,0.0,0.0,0.000753658566078227,0.001234168220558232,-0.001066782394147784,0.0,0.0,0.0,0.0,0.0,0.0,0.0,0.0,0.0,0.00397956975101004,-0.4514313527766529,9.810220907038719,0.0,0.0,0.0,0.0,0.0,0.0,0.0,0.0,0.0
2025/05/21 11:56:28.377458304,1747821388,376307028,mA1/imu,0.01860730703043087,-0.9998265334013222,-0.0007918454151311916,-0.0002102679448837941,0.0,0.0,0.0,0.0,0.0,0.0,0.0,0.0,0.0,-6.512662314942828e-05,0.000990210805501454,-0.0010297228749754,0.0,0.0,0.0,0.0,0.0,0.0,0.0,0.0,0.0,0.0045153942738035534,0.22885395164755168,9.81179275471347,0.0,0.0,0.0,0.0,0.0,0.0,0.0,0.0,0.0
2025/05/21 11:56:28.429193976,1747821388,427894470,mA1/imu,0.018632527034548884,-0.9998260743765656,-0.0007834122246655671,-0.00019025861184349528,0.0,0.0,0.0,0.0,0.0,0.0,0.0,0.0,0.0,8.611937196158121e-05,0.0006777077331597538,-0.0009943554486701526,0.0,0.0,0.0,0.0,0.0,0.0,0.0,0.0,0.0,0.005110732950156916,0.02167049857845374,9.811210658555137,0.0,0.0,0.0,0.0,0.0,0.0,0.0,0.0,0.0
2025/05/21 11:56:28.479100842,1747821388,478140956,mA1/imu,0.01865633220778385,-0.9998256377229858,-0.0007766270795995634,-0.00017964063225962764,0.0,0.0,0.0,0.0,0.0,0.0,0.0,0.0,0.0,0.000923139670690289,0.0002696435782289327,-0.0009258591342992232,0.0,0.0,0.0,0.0,0.0,0.0,0.0,0.0,0.0,0.005514457257580135,-0.5922161182210346,9.809263194356358,0.0,0.0,0.0,0.0,0.0,0.0,0.0,0.0,0.0
2025/05/21 11:56:28.530469320,1747821388,529144283,mA1/imu,0.018679063315935343,-0.9998252172841918,-0.0007718143226969335,-0.00017826639927730632,0.0,0.0,0.0,0.0,0.0,0.0,0.0,0.0,0.0,0.0005153816164005369,-8.833335031300042e-05,-0.0008986074273041946,0.0,0.0,0.0,0.0,0.0,0.0,0.0,0.0,0.0,0.005763983178501755,-0.17883317706834842,9.80989795324924,0.0,0.0,0.0,0.0,0.0,0.0,0.0,0.0,0.0
2025/05/21 11:56:28.580127796,1747821388,579105499,mA1/imu,0.018701135126080695,-0.9998248041433155,-0.0007706622976099897,-0.000186130061975453,0.0,0.0,0.0,0.0,0.0,0.0,0.0,0.0,0.0,0.0007132625426678091,-0.0004556365502677734,-0.0008729770515208075,0.0,0.0,0.0,0.0,0.0,0.0,0.0,0.0,0.0,0.005028842660953408,-0.6000023916546706,9.808809308009833,0.0,0.0,0.0,0.0,0.0,0.0,0.0,0.0,0.0
2025/05/21 11:56:28.633238939,1747821388,630331037,mA1/imu,0.018722561586227607,-0.9998244009742535,-0.0007693802941246094,-0.00020238104689699184,0.0,0.0,0.0,0.0,0.0,0.0,0.0,0.0,0.0,0.0010054283120014,-0.000779378149591928,-0.0008477996879678905,0.0,0.0,0.0,0.0,0.0,0.0,0.0,0.0,0.0,0.0052033990203773665,-0.578712737682158,9.809463549932001,0.0,0.0,0.0,0.0,0.0,0.0,0.0,0.0,0.0
2025/05/21 11:56:28.683168338,1747821388,681050491,mA1/imu,0.01874337858799243,-0.9998240017555604,-0.0007746744679554895,-0.00022616823997714965,0.0,0.0,0.0,0.0,0.0,0.0,0.0,0.0,0.0,0.00078669431305531,-0.001076277489140074,-0.0008244267377001079,0.0,0.0,0.0,0.0,0.0,0.0,0.0,0.0,0.0,0.005424394911487294,-0.5892788126509372,9.807521640403127,0.0,0.0,0.0,0.0,0.0,0.0,0.0,0.0,0.0
2025/05/21 11:56:28.732870400,1747821388,731996394,mA1/imu,0.018763605167523047,-0.9998236129216056,-0.0007775707375803214,-0.0002560258826071319,0.0,0.0,0.0,0.0,0.0,0.0,0.0,0.0,0.0,-0.001064987950904663,-0.0012730415106074957,-0.0008004363246751453,0.0,0.0,0.0,0.0,0.0,0.0,0.0,0.0,0.0,0.005179688147410253,0.31472851997217316,9.809816746841394,0.0,0.0,0.0,0.0,0.0,0.0,0.0,0.0,0.0
2025/05/21 11:56:28.784325807,1747821388,782161123,mA1/imu,0.018784287076157577,-0.9998232125805434,-0.0007811425550561261,-0.0002897593322599051,0.0,0.0,0.0,0.0,0.0,0.0,0.0,0.0,0.0,-0.0006564866519735722,-0.0013822705913162736,-0.0008467644624702837,0.0,0.0,0.0,0.0,0.0,0.0,0.0,0.0,0.0,0.003511320929335035,-0.04741106972110336,9.80817162865148,0.0,0.0,0.0,0.0,0.0,0.0,0.0,0.0,0.0
2025/05/21 11:56:28.835910196,1747821388,833903528,mA1/imu,0.01880514207437819,-0.9998228062198227,-0.0007855060823097151,-0.00032522988192197096,0.0,0.0,0.0,0.0,0.0,0.0,0.0,0.0,0.0,-0.0017066828476035652,-0.0014298273402800037,-0.000827729150774206,0.0,0.0,0.0,0.0,0.0,0.0,0.0,0.0,0.0,0.004543241801554499,0.5111973854724026,9.808689070319545,0.0,0.0,0.0,0.0,0.0,0.0,0.0,0.0,0.0
2025/05/21 11:56:28.884457051,1747821388,883375515,mA1/imu,0.018825543207790278,-0.999822407309875,-0.0007890585349544627,-0.00036076397593894,0.0,0.0,0.0,0.0,0.0,0.0,0.0,0.0,0.0,-0.0006422729894681632,-0.0013865526864662565,-0.0008105610687254337,0.0,0.0,0.0,0.0,0.0,0.0,0.0,0.0,0.0,0.0031399266925479993,0.14971910310734363,9.808694701367429,0.0,0.0,0.0,0.0,0.0,0.0,0.0,0.0,0.0
2025/05/21 11:56:28.937470358,1747821388,935491865,mA1/imu,0.018845512867800812,-0.9998220063511635,-0.0008044163557678364,-0.00039392259423286994,0.0,0.0,0.0,0.0,0.0,0.0,0.0,0.0,0.0,-0.0014917816876167216,-0.0012906060500795771,-0.0007928916084779102,0.0,0.0,0.0,0.0,0.0,0.0,0.0,0.0,0.0,0.0039050973590769155,0.5317891320351588,9.809439126809153,0.0,0.0,0.0,0.0,0.0,0.0,0.0,0.0,0.0
2025/05/21 11:56:28.977579597,1747821388,976134842,mA1/imu,0.01886505907663334,-0.9998216164175928,-0.0008159060633711281,-0.0004233053778750409,0.0,0.0,0.0,0.0,0.0,0.0,0.0,0.0,0.0,-0.001354365827943091,-0.001107011471766593,-0.0007759857720925843,0.0,0.0,0.0,0.0,0.0,0.0,0.0,0.0,0.0,0.0038432398476777926,-0.2111894427017195,9.809263499685896,0.0,0.0,0.0,0.0,0.0,0.0,0.0,0.0,0.0
2025/05/21 11:56:29.27262712,1747821389,26357503,mA1/imu,0.018884200684386253,-0.9998212464034524,-0.0008133846338549851,-0.0004478952957985561,0.0,0.0,0.0,0.0,0.0,0.0,0.0,0.0,0.0,-1.3933116429133936e-05,-0.0008775833017741019,-0.000760453322392522,0.0,0.0,0.0,0.0,0.0,0.0,0.0,0.0,0.0,0.0034227256404935225,0.005363377190832859,9.808959677210336,0.0,0.0,0.0,0.0,0.0,0.0,0.0,0.0,0.0
2025/05/21 11:56:29.78328260,1747821389,76242217,mA1/imu,0.018902968755619,-0.9998208701192884,-0.0008298317097161745,-0.0004656452153591801,0.0,0.0,0.0,0.0,0.0,0.0,0.0,0.0,0.0,-0.0016490332835388782,-0.000602298272935458,-0.0007450806867339856,0.0,0.0,0.0,0.0,0.0,0.0,0.0,0.0,0.0,0.003795343973893247,0.5227032180178035,9.809773806806723,0.0,0.0,0.0,0.0,0.0,0.0,0.0,0.0,0.0
2025/05/21 11:56:29.128181394,1747821389,127372057,mA1/imu,0.018921368659734965,-0.9998205141172171,-0.0008331598382276792,-0.0004766582738170148,0.0,0.0,0.0,0.0,0.0,0.0,0.0,0.0,0.0,-0.0007005765415676091,-0.00032298105988057605,-0.0007305134854220484,0.0,0.0,0.0,0.0,0.0,0.0,0.0,0.0,0.0,0.004387457194348911,-0.03736870988472453,9.809508389536889,0.0,0.0,0.0,0.0,0.0,0.0,0.0,0.0,0.0
2025/05/21 11:56:29.178715368,1747821389,177335338,mA1/imu,0.018939354057270062,-0.9998201642011226,-0.0008423018805365892,-0.0004802627152963235,0.0,0.0,0.0,0.0,0.0,0.0,0.0,0.0,0.0,-0.0005598930101843505,-1.8996724911037538e-05,-0.0007116385291541229,0.0,0.0,0.0,0.0,0.0,0.0,0.0,0.0,0.0,0.0032427013080951403,-0.035000172815003644,9.809024410016198,0.0,0.0,0.0,0.0,0.0,0.0,0.0,0.0,0.0
2025/05/21 11:56:29.229755284,1747821389,228738753,mA1/imu,0.018956853776179637,-0.9998198313224909,-0.0008460882846643546,-0.0004761552151709981,0.0,0.0,0.0,0.0,0.0,0.0,0.0,0.0,0.0,0.0003382421060832133,0.00027856887513289056,-0.0006923492001515273,0.0,0.0,0.0,0.0,0.0,0.0,0.0,0.0,0.0,0.004436777908006093,-0.6099273909018267,9.810360839210961,0.0,0.0,0.0,0.0,0.0,0.0,0.0,0.0,0.0
2025/05/21 11:56:29.280063531,1747821389,278783319,mA1/imu,0.018973895430604095,-0.999819508525518,-0.0008516286906371989,-0.00046518013035481086,0.0,0.0,0.0,0.0,0.0,0.0,0.0,0.0,0.0,0.0001420288204791293,0.000528780293326664,-0.0006740830389240306,0.0,0.0,0.0,0.0,0.0,0.0,0.0,0.0,0.0,0.005198150803905095,0.0001695677583770129,9.811454270900052,0.0,0.0,0.0,0.0,0.0,0.0,0.0,0.0,0.0
2025/05/21 11:56:29.331060862,1747821389,329902218,mA1/imu,0.018990503019134398,-0.9998191963906876,-0.0008570662223652909,-0.00044806389112558517,0.0,0.0,0.0,0.0,0.0,0.0,0.0,0.0,0.0,-6.676858034086109e-06,0.0007619271865998506,-0.0006569388412206631,0.0,0.0,0.0,0.0,0.0,0.0,0.0,0.0,0.0,0.00529985706627469,-0.6415410060945606,9.811579733736357,0.0,0.0,0.0,0.0,0.0,0.0,0.0,0.0,0.0
2025/05/21 11:56:29.382253960,1747821389,379851369,mA1/imu,0.01900670572319122,-0.9998188961515097,-0.0008593816514991062,-0.0004260271187627336,0.0,0.0,0.0,0.0,0.0,0.0,0.0,0.0,0.0,-0.0016654320170661789,0.0009630626018285147,-0.0006411991283586312,0.0,0.0,0.0,0.0,0.0,0.0,0.0,0.0,0.0,0.0048548413460945804,0.4618756456791383,9.811569669952837,0.0,0.0,0.0,0.0,0.0,0.0,0.0,0.0,0.0
2025/05/21 11:56:29.432579846,1747821389,431182142,mA1/imu,0.01902251819377148,-0.9998186108007365,-0.0008537171775664332,-0.0004005808704410807,0.0,0.0,0.0,0.0,0.0,0.0,0.0,0.0,0.0,-0.000521011712412872,0.001066212363727418,-0.0006257478669672206,0.0,0.0,0.0,0.0,0.0,0.0,0.0,0.0,0.0,0.006726461933365837,-0.05661183208305791,9.810565449856817,0.0,0.0,0.0,0.0,0.0,0.0,0.0,0.0,0.0
2025/05/21 11:56:29.482741642,1747821389,481128435,mA1/imu,0.01903639949038571,-0.9998183630668532,-0.0008462412325794534,-0.0003744923723162545,0.0,0.0,0.0,0.0,0.0,0.0,0.0,0.0,0.0,3.203035687418913e-05,0.001042451645495897,-0.0004901482491913618,0.0,0.0,0.0,0.0,0.0,0.0,0.0,0.0,0.0,0.007439746593326536,0.6079887711772199,9.811466784191234,0.0,0.0,0.0,0.0,0.0,0.0,0.0,0.0,0.0
2025/05/21 11:56:29.533232145,1747821389,531963059,mA1/imu,0.019047368940271432,-0.9998181661144442,-0.0008428570440557148,-0.00034933652286333315,0.0,0.0,0.0,0.0,0.0,0.0,0.0,0.0,0.0,0.001157059274429701,0.0009789189909607283,-0.0004293261126020809,0.0,0.0,0.0,0.0,0.0,0.0,0.0,0.0,0.0,0.007026116921018408,-0.16903036945157612,9.810301464256542,0.0,0.0,0.0,0.0,0.0,0.0,0.0,0.0,0.0
2025/05/21 11:56:29.585444702,1747821389,582780227,mA1/imu,0.019049939975275636,-0.9998181354963009,-0.0008347690750684225,-0.0003144522698792995,0.0,0.0,0.0,0.0,0.0,0.0,0.0,0.0,0.0,0.0009632088490289868,0.0015800644700047078,8.019840633811628e-05,0.0,0.0,0.0,0.0,0.0,0.0,0.0,0.0,0.0,0.0036286756861406235,0.024583697107603126,9.812785231230789,0.0,0.0,0.0,0.0,0.0,0.0,0.0,0.0,0.0
2025/05/21 11:56:29.635888092,1747821389,633948547,mA1/imu,0.019047990956919916,-0.9998181863268113,-0.000831146217359324,-0.00027843605458687117,0.0,0.0,0.0,0.0,0.0,0.0,0.0,0.0,0.0,0.0012466354873591965,0.0013061772555698064,6.976390450700131e-05,0.0,0.0,0.0,0.0,0.0,0.0,0.0,0.0,0.0,0.013170725802005335,-0.5858231404430533,9.811069650058867,0.0,0.0,0.0,0.0,0.0,0.0,0.0,0.0,0.0
2025/05/21 11:56:29.685990382,1747821389,683897794,mA1/imu,0.019047085671913544,-0.9998182218860842,-0.0008175292666569849,-0.0002517098599242452,0.0,0.0,0.0,0.0,0.0,0.0,0.0,0.0,0.0,0.00021082727095407015,0.0009366309225149764,2.7799912928072856e-05,0.0,0.0,0.0,0.0,0.0,0.0,0.0,0.0,0.0,0.010441374436385466,-0.03101516024718906,9.809665364099468,0.0,0.0,0.0,0.0,0.0,0.0,0.0,0.0,0.0
2025/05/21 11:56:29.738171730,1747821389,735581076,mA1/imu,0.0190460973547685,-0.9998182553713629,-0.0008048628463285779,-0.00023366111216051755,0.0,0.0,0.0,0.0,0.0,0.0,0.0,0.0,0.0,0.0006127408149855732,0.0006657398478031352,9.381810672915606e-05,0.0,0.0,0.0,0.0,0.0,0.0,0.0,0.0,0.0,-0.007304423740172662,-0.0017188851755674753,9.808955873292417,0.0,0.0,0.0,0.0,0.0,0.0,0.0,0.0,0.0
2025/05/21 11:56:29.776464353,1747821389,775354962,mA1/imu,0.01903899658578334,-0.9998184037408956,-0.0007935371889791316,-0.00021551970694925267,0.0,0.0,0.0,0.0,0.0,0.0,0.0,0.0,0.0,0.0004431743880446382,0.0006369165266152865,0.00033614026716760435,0.0,0.0,0.0,0.0,0.0,0.0,0.0,0.0,0.0,0.011590333361746436,-0.01649332438634023,9.809320669133568,0.0,0.0,0.0,0.0,0.0,0.0,0.0,0.0,0.0
2025/05/21 11:56:29.827362502,1747821389,826491205,mA1/imu,0.019030657771563552,-0.9998185706209884,-0.0007854423788152133,-0.00020733175056199314,0.0,0.0,0.0,0.0,0.0,0.0,0.0,0.0,0.0,0.00030757077098468626,0.00012810072512092996,0.0003322258659113616,0.0,0.0,0.0,0.0,0.0,0.0,0.0,0.0,0.0,0.011611216277747725,-0.02335192923791935,9.808255431517916,0.0,0.0,0.0,0.0,0.0,0.0,0.0,0.0,0.0
2025/05/21 11:56:29.877762959,1747821389,876926888,mA1/imu,0.0190224089852661,-0.9998187327896056,-0.0007775733894260776,-0.00021189386132306945,0.0,0.0,0.0,0.0,0.0,0.0,0.0,0.0,0.0,0.0003155184633185271,-0.0003771709781223726,0.0003282441267731525,0.0,0.0,0.0,0.0,0.0,0.0,0.0,0.0,0.0,0.011347323382513147,-0.019743224847463894,9.81000398863373,0.0,0.0,0.0,0.0,0.0,0.0,0.0,0.0,0.0
2025/05/21 11:56:29.929880196,1747821389,928373861,mA1/imu,0.019014250360479733,-0.999818889894531,-0.0007703337392710849,-0.00022864651022700634,0.0,0.0,0.0,0.0,0.0,0.0,0.0,0.0,0.0,0.0005028361307303186,-0.0008582816846116001,0.00032432336219378414,0.0,0.0,0.0,0.0,0.0,0.0,0.0,0.0,0.0,0.011150829535395226,-0.6322345887479462,9.80886951604278,0.0,0.0,0.0,0.0,0.0,0.0,0.0,0.0,0.0
2025/05/21 11:56:29.979507275,1747821389,978017942,mA1/imu,0.019006177038482935,-0.9998190410951093,-0.0007644984027565045,-0.0002565935114102772,0.0,0.0,0.0,0.0,0.0,0.0,0.0,0.0,0.0,-0.000538363068905261,-0.0012571569620838687,0.0003206613480566736,0.0,0.0,0.0,0.0,0.0,0.0,0.0,0.0,0.0,0.00969744088024138,-0.06447283909820883,9.808035166682833,0.0,0.0,0.0,0.0,0.0,0.0,0.0,0.0,0.0
2025/05/21 11:56:30.31598978,1747821390,30469676,mA1/imu,0.018998185253429927,-0.9998191889952651,-0.000756496384200129,-0.0002932356515099525,0.0,0.0,0.0,0.0,0.0,0.0,0.0,0.0,0.0,4.871414181439045e-05,-0.0015714038823145726,0.0003170906772512555,0.0,0.0,0.0,0.0,0.0,0.0,0.0,0.0,0.0,0.00985627999041955,-0.021542878926001874,9.807437292511187,0.0,0.0,0.0,0.0,0.0,0.0,0.0,0.0,0.0
2025/05/21 11:56:30.81398244,1747821390,80311982,mA1/imu,0.0189902817770103,-0.999819326906043,-0.0007547223447445003,-0.0003363589735705161,0.0,0.0,0.0,0.0,0.0,0.0,0.0,0.0,0.0,0.00048200214351268864,-0.0017990908828148982,0.00031350354776070737,0.0,0.0,0.0,0.0,0.0,0.0,0.0,0.0,0.0,0.00880547854374437,0.01628713577271689,9.80800138889018,0.0,0.0,0.0,0.0,0.0,0.0,0.0,0.0,0.0
2025/05/21 11:56:30.132853209,1747821390,131364155,mA1/imu,0.01898246173315762,-0.9998194569773762,-0.0007568573561094398,-0.00038309653672601864,0.0,0.0,0.0,0.0,0.0,0.0,0.0,0.0,0.0,0.0009309368812218505,-0.0019104365544286262,0.00031004058643143036,0.0,0.0,0.0,0.0,0.0,0.0,0.0,0.0,0.0,0.008492987468547927,-0.13464796575450816,9.807729967274316,0.0,0.0,0.0,0.0,0.0,0.0,0.0,0.0,0.0
2025/05/21 11:56:30.183676695,1747821390,181281073,mA1/imu,0.01897127313838558,-0.9998196454628915,-0.0007656571690449283,-0.00042557145828148673,0.0,0.0,0.0,0.0,0.0,0.0,0.0,0.0,0.0,0.0002969004815731298,-0.0015049190811268012,0.0005870187031596543,0.0,0.0,0.0,0.0,0.0,0.0,0.0,0.0,0.0,-0.007326451334806042,-0.2622796579025312,9.809559889659985,0.0,0.0,0.0,0.0,0.0,0.0,0.0,0.0,0.0
2025/05/21 11:56:30.234301923,1747821390,232233869,mA1/imu,0.018953690546333325,-0.9998199592683973,-0.0007727681950869996,-0.00045770354050991054,0.0,0.0,0.0,0.0,0.0,0.0,0.0,0.0,0.0,-8.371681398247895e-05,-0.0012712089663453026,0.0007099236132237472,0.0,0.0,0.0,0.0,0.0,0.0,0.0,0.0,0.0,0.010836265489180092,-0.637361578613957,9.809447545977509,0.0,0.0,0.0,0.0,0.0,0.0,0.0,0.0,0.0
2025/05/21 11:56:30.283554665,1747821390,282083882,mA1/imu,0.01893684433520781,-0.9998202613961193,-0.0007767468354921666,-0.0004873323027538528,0.0,0.0,0.0,0.0,0.0,0.0,0.0,0.0,0.0,-0.0014664316254596537,-0.0011109313258426993,0.0006497296846994569,0.0,0.0,0.0,0.0,0.0,0.0,0.0,0.0,0.0,0.008671198119876681,0.5320845341294982,9.809839526872029,0.0,0.0,0.0,0.0,0.0,0.0,0.0,0.0,0.0
2025/05/21 11:56:30.334352941,1747821390,333206927,mA1/imu,0.01892097339179534,-0.9998205446102963,-0.0007824051401257242,-0.0005130139120077052,0.0,0.0,0.0,0.0,0.0,0.0,0.0,0.0,0.0,-0.0016405449424285177,-0.0009333506072763466,0.0006151496082525651,0.0,0.0,0.0,0.0,0.0,0.0,0.0,0.0,0.0,0.005732523819211995,0.5204315177742536,9.809676944093436,0.0,0.0,0.0,0.0,0.0,0.0,0.0,0.0,0.0
2025/05/21 11:56:30.386295877,1747821390,385096336,mA1/imu,0.01890687841595285,-0.9998207952477921,-0.0007902206407203798,-0.0005318740228321267,0.0,0.0,0.0,0.0,0.0,0.0,0.0,0.0,0.0,-9.623534974870351e-05,-0.0006293059825660735,0.0005577898791240182,0.0,0.0,0.0,0.0,0.0,0.0,0.0,0.0,0.0,0.005082557968714021,0.007412009690838883,9.81002416965524,0.0,0.0,0.0,0.0,0.0,0.0,0.0,0.0,0.0
2025/05/21 11:56:30.427136103,1747821390,426190375,mA1/imu,0.018892687156682724,-0.9998210514376401,-0.000798138979117381,-0.0005426309071291696,0.0,0.0,0.0,0.0,0.0,0.0,0.0,0.0,0.0,0.0015705761425017085,-0.0003281252380548451,0.0005628045002463785,0.0,0.0,0.0,0.0,0.0,0.0,0.0,0.0,0.0,0.007162246562272741,-0.5047434794598487,9.809216673511125,0.0,0.0,0.0,0.0,0.0,0.0,0.0,0.0,0.0
2025/05/21 11:56:30.477279390,1747821390,475975669,mA1/imu,0.01887942258362563,-0.9998212875022479,-0.0008145036132306945,-0.0005450175415528566,0.0,0.0,0.0,0.0,0.0,0.0,0.0,0.0,0.0,4.867591132047548e-05,2.1825709360462848e-05,0.0005131291205284707,0.0,0.0,0.0,0.0,0.0,0.0,0.0,0.0,0.0,0.007083715472692698,0.01181039767535376,9.812628730558407,0.0,0.0,0.0,0.0,0.0,0.0,0.0,0.0,0.0
2025/05/21 11:56:30.528249139,1747821390,527328950,mA1/imu,0.018866357574824806,-0.9998215246914157,-0.0008303108384315508,-0.0005384231638524953,0.0,0.0,0.0,0.0,0.0,0.0,0.0,0.0,0.0,-0.0014050706303277087,0.00037171953100353445,0.000518755716894569,0.0,0.0,0.0,0.0,0.0,0.0,0.0,0.0,0.0,0.009057695712623761,-0.08710505109979925,9.812619005962777,0.0,0.0,0.0,0.0,0.0,0.0,0.0,0.0,0.0
2025/05/21 11:56:30.583962851,1747821390,577804493,mA1/imu,0.018851242729319963,-0.9998218148725164,-0.0008364221969422244,-0.0005191825269355423,0.0,0.0,0.0,0.0,0.0,0.0,0.0,0.0,0.0,-0.0014124929635665063,0.0010027125629318583,0.0006505364024118251,0.0,0.0,0.0,0.0,0.0,0.0,0.0,0.0,0.0,0.003956536464366168,-0.08750508510230887,9.8110406145009,0.0,0.0,0.0,0.0,0.0,0.0,0.0,0.0,0.0
2025/05/21 11:56:30.633015622,1747821390,630682108,mA1/imu,0.018835318665380452,-0.9998221324314533,-0.0008322607761463466,-0.000491541448345773,0.0,0.0,0.0,0.0,0.0,0.0,0.0,0.0,0.0,6.161669587997136e-05,0.001190161219961161,0.0006300885583195254,0.0,0.0,0.0,0.0,0.0,0.0,0.0,0.0,0.0,0.008171218770601719,0.00765342104724754,9.810799681874748,0.0,0.0,0.0,0.0,0.0,0.0,0.0,0.0,0.0
2025/05/21 11:56:30.683902476,1747821390,680721067,mA1/imu,0.018811116647564997,-0.9998226077922545,-0.0008335488181244751,-0.0004472519816460169,0.0,0.0,0.0,0.0,0.0,0.0,0.0,0.0,0.0,4.603401773321387e-05,0.00213467995052792,0.001185791744411979,0.0,0.0,0.0,0.0,0.0,0.0,0.0,0.0,0.0,-0.006255390409792028,0.6284341238743835,9.812482362806461,0.0,0.0,0.0,0.0,0.0,0.0,0.0,0.0,0.0
2025/05/21 11:56:30.733207256,1747821390,732179819,mA1/imu,0.01878138778821859,-0.9998231836695989,-0.0008399546915852811,-0.0003941391280941227,0.0,0.0,0.0,0.0,0.0,0.0,0.0,0.0,0.0,0.0003402346762309432,0.0020707919815078067,0.0011832859039742133,0.0,0.0,0.0,0.0,0.0,0.0,0.0,0.0,0.0,0.010206549370891833,0.016728000530782727,9.810627736587257,0.0,0.0,0.0,0.0,0.0,0.0,0.0,0.0,0.0
2025/05/21 11:56:30.783872161,1747821390,782252607,mA1/imu,0.018752877711471615,-0.9998237337588296,-0.000844177839521052,-0.0003440259684449644,0.0,0.0,0.0,0.0,0.0,0.0,0.0,0.0,0.0,0.0006354840584496448,0.001909504336944407,0.0011123371640419965,0.0,0.0,0.0,0.0,0.0,0.0,0.0,0.0,0.0,0.011120261573868098,-0.6027360400722345,9.811496597638499,0.0,0.0,0.0,0.0,0.0,0.0,0.0,0.0,0.0
2025/05/21 11:56:30.834210539,1747821390,833171920,mA1/imu,0.01872520368521063,-0.9998242710130947,-0.0008391029360732765,-0.0002995769409501208,0.0,0.0,0.0,0.0,0.0,0.0,0.0,0.0,0.0,0.0006859109265910161,0.0017590000182680435,0.0011530838350134846,0.0,0.0,0.0,0.0,0.0,0.0,0.0,0.0,0.0,-0.011979104380733706,-0.6142703833217702,9.812139534413813,0.0,0.0,0.0,0.0,0.0,0.0,0.0,0.0,0.0
2025/05/21 11:56:30.884388328,1747821390,883213361,mA1/imu,0.018692870941793036,-0.9998248939374511,-0.0008330623877537953,-0.00025307306493079195,0.0,0.0,0.0,0.0,0.0,0.0,0.0,0.0,0.0,-0.0010404445005853392,0.0017802450241495016,0.0013196525057939852,0.0,0.0,0.0,0.0,0.0,0.0,0.0,0.0,0.0,0.012323714213121208,0.5336545822892255,9.810898694755561,0.0,0.0,0.0,0.0,0.0,0.0,0.0,0.0,0.0
2025/05/21 11:56:30.935856877,1747821390,934833248,mA1/imu,0.018660143743899526,-0.9998255215312251,-0.0008238559935639634,-0.00021631359757043073,0.0,0.0,0.0,0.0,0.0,0.0,0.0,0.0,0.0,-0.0010267212295461362,0.0013761511682050032,0.0013504518830403961,0.0,0.0,0.0,0.0,0.0,0.0,0.0,0.0,0.0,-0.008896094433053428,0.5206687584657942,9.809741744618561,0.0,0.0,0.0,0.0,0.0,0.0,0.0,0.0,0.0
2025/05/21 11:56:30.985634954,1747821390,984479325,mA1/imu,0.018622635831956356,-0.9998262367694593,-0.000812590099094726,-0.00018275508893856842,0.0,0.0,0.0,0.0,0.0,0.0,0.0,0.0,0.0,0.0006549938674054249,0.0012010074549315426,0.0015426203582676924,0.0,0.0,0.0,0.0,0.0,0.0,0.0,0.0,0.0,0.01007434884778751,0.014418858598807045,9.809267692544855,0.0,0.0,0.0,0.0,0.0,0.0,0.0,0.0,0.0
2025/05/21 11:56:31.37163137,1747821391,36141515,mA1/imu,0.018584360506313315,-0.9998269632321098,-0.000799194250670906,-0.00016256438225419355,0.0,0.0,0.0,0.0,0.0,0.0,0.0,0.0,0.0,0.002435519906887835,0.000553616329683808,0.001502373382609078,0.0,0.0,0.0,0.0,0.0,0.0,0.0,0.0,0.0,0.008060611520639728,-0.4991767191691461,9.807196869926063,0.0,0.0,0.0,0.0,0.0,0.0,0.0,0.0,0.0
2025/05/21 11:56:31.78316006,1747821391,76059255,mA1/imu,0.018548440700258448,-0.9998276353814365,-0.0007937105176738966,-0.00015779343558577208,0.0,0.0,0.0,0.0,0.0,0.0,0.0,0.0,0.0,0.0009251053692753845,-8.929307858718441e-05,0.0014086848347818627,0.0,0.0,0.0,0.0,0.0,0.0,0.0,0.0,0.0,0.013901426192254217,0.020917817360069757,9.809878727783342,0.0,0.0,0.0,0.0,0.0,0.0,0.0,0.0,0.0
2025/05/21 11:56:31.128306707,1747821391,126983418,mA1/imu,0.01851396452530636,-0.9998282779538847,-0.0007866257709255853,-0.00017012119711729584,0.0,0.0,0.0,0.0,0.0,0.0,0.0,0.0,0.0,0.0006061879407591569,-0.0007625924456732387,0.0013594321044463234,0.0,0.0,0.0,0.0,0.0,0.0,0.0,0.0,0.0,0.012790174944450979,-0.6320586666016788,9.808778893707116,0.0,0.0,0.0,0.0,0.0,0.0,0.0,0.0,0.0
2025/05/21 11:56:31.178481563,1747821391,177102173,mA1/imu,0.018477784396753235,-0.9998289536145323,-0.0007733054331868753,-0.0001923449079387068,0.0,0.0,0.0,0.0,0.0,0.0,0.0,0.0,0.0,-0.0002463327198684194,-0.0009313620124096704,0.0015143335520623044,0.0,0.0,0.0,0.0,0.0,0.0,0.0,0.0,0.0,0.0021944782378252627,-0.059919142935297126,9.808189813718933,0.0,0.0,0.0,0.0,0.0,0.0,0.0,0.0,0.0
2025/05/21 11:56:31.230624950,1747821391,229199696,mA1/imu,0.018439964952718657,-0.9998296596971613,-0.0007544388375492334,-0.00022384021437296735,0.0,0.0,0.0,0.0,0.0,0.0,0.0,0.0,0.0,0.0002875264962716878,-0.001454770633467814,0.0014949720678270864,0.0,0.0,0.0,0.0,0.0,0.0,0.0,0.0,0.0,0.011213650559534312,0.28554498863086414,9.80831684599109,0.0,0.0,0.0,0.0,0.0,0.0,0.0,0.0,0.0
2025/05/21 11:56:31.279537975,1747821391,278298388,mA1/imu,0.018394341159811107,-0.9998304999526957,-0.0007445821055475096,-0.00025529419728724604,0.0,0.0,0.0,0.0,0.0,0.0,0.0,0.0,0.0,-0.00023830167672880427,-0.001154715957136785,0.00199441782118628,0.0,0.0,0.0,0.0,0.0,0.0,0.0,0.0,0.0,0.002660564598827613,0.5761338004862072,9.809477387172018,0.0,0.0,0.0,0.0,0.0,0.0,0.0,0.0,0.0
2025/05/21 11:56:31.333646555,1747821391,332301149,mA1/imu,0.01834533216088825,-0.9998314000395802,-0.0007316215918906232,-0.0002915692810319372,0.0,0.0,0.0,0.0,0.0,0.0,0.0,0.0,0.0,0.0008759911231282626,-0.0016162994123416138,0.0019356044154947478,0.0,0.0,0.0,0.0,0.0,0.0,0.0,0.0,0.0,0.012169392576620454,0.02609079148424218,9.80774494471909,0.0,0.0,0.0,0.0,0.0,0.0,0.0,0.0,0.0
2025/05/21 11:56:31.384047919,1747821391,382615461,mA1/imu,0.018278877206389876,-0.9998326197243145,-0.0007192662742901989,-0.0003127927662944312,0.0,0.0,0.0,0.0,0.0,0.0,0.0,0.0,0.0,0.0019928547149863857,-0.00047777407907399874,0.0030289295569625066,0.0,0.0,0.0,0.0,0.0,0.0,0.0,0.0,0.0,0.00035804790430477365,-0.1276362219205996,9.810265828446843,0.0,0.0,0.0,0.0,0.0,0.0,0.0,0.0,0.0
2025/05/21 11:56:31.435688777,1747821391,434244642,mA1/imu,0.01820410805287394,-0.9998339802658072,-0.0007163719376550144,-0.0003304044187246193,0.0,0.0,0.0,0.0,0.0,0.0,0.0,0.0,0.0,0.0020314563516752164,-0.0007743235602540368,0.00301001637027433,0.0,0.0,0.0,0.0,0.0,0.0,0.0,0.0,0.0,-0.008905221690979277,-0.5158333419622949,9.807217618225357,0.0,0.0,0.0,0.0,0.0,0.0,0.0,0.0,0.0
2025/05/21 11:56:31.485565765,1747821391,484202356,mA1/imu,0.018125917167357165,-0.9998353939506845,-0.0007179516331999717,-0.0003473841879365485,0.0,0.0,0.0,0.0,0.0,0.0,0.0,0.0,0.0,0.0009904972626547904,-0.0007802832475096141,0.003133454281267041,0.0,0.0,0.0,0.0,0.0,0.0,0.0,0.0,0.0,0.015774454860070338,-0.5742941953824473,9.81008325778477,0.0,0.0,0.0,0.0,0.0,0.0,0.0,0.0,0.0
2025/05/21 11:56:31.537752522,1747821391,535445130,mA1/imu,0.018049132958485908,-0.999836774283152,-0.000717671560830492,-0.00037220698399075734,0.0,0.0,0.0,0.0,0.0,0.0,0.0,0.0,0.0,-0.00024391128416886214,-0.0011311222605907688,0.003017356558037577,0.0,0.0,0.0,0.0,0.0,0.0,0.0,0.0,0.0,0.011743134109588719,-0.031484407039011564,9.813851463365522,0.0,0.0,0.0,0.0,0.0,0.0,0.0,0.0,0.0
2025/05/21 11:56:31.586997353,1747821391,585291912,mA1/imu,0.017975846801636344,-0.9998380775383666,-0.0007244635568890627,-0.0004034708193686166,0.0,0.0,0.0,0.0,0.0,0.0,0.0,0.0,0.0,-0.0021504704109985744,-0.0013046097409235785,0.002906448814111328,0.0,0.0,0.0,0.0,0.0,0.0,0.0,0.0,0.0,0.009888114761260301,0.4826216973188311,9.812350486830448,0.0,0.0,0.0,0.0,0.0,0.0,0.0,0.0,0.0
2025/05/21 11:56:31.627445380,1747821391,626345401,mA1/imu,0.017903675677229666,-0.9998393580537841,-0.0007237840737621931,-0.0004388854701214644,0.0,0.0,0.0,0.0,0.0,0.0,0.0,0.0,0.0,-0.0006555891107676092,-0.001479949389129085,0.0028513096198283026,0.0,0.0,0.0,0.0,0.0,0.0,0.0,0.0,0.0,0.013937495218345057,-0.04090338580531364,9.811129549531445,0.0,0.0,0.0,0.0,0.0,0.0,0.0,0.0,0.0
2025/05/21 11:56:31.677989202,1747821391,676094526,mA1/imu,0.017830889695586872,-0.9998406453426172,-0.0007221366130571725,-0.00047096946265147893,0.0,0.0,0.0,0.0,0.0,0.0,0.0,0.0,0.0,0.0007941016771181758,-0.0011886296798125193,0.0029399025759404562,0.0,0.0,0.0,0.0,0.0,0.0,0.0,0.0,0.0,0.0091522618156843,-0.2057978097146872,9.811412426905134,0.0,0.0,0.0,0.0,0.0,0.0,0.0,0.0,0.0
2025/05/21 11:56:31.728787697,1747821391,727946830,mA1/imu,0.01775886682007077,-0.9998419057339016,-0.0007315611467474815,-0.0005010049452024549,0.0,0.0,0.0,0.0,0.0,0.0,0.0,0.0,0.0,-0.0011647882187907858,-0.0012203577448767135,0.002841565962422814,0.0,0.0,0.0,0.0,0.0,0.0,0.0,0.0,0.0,0.01302767179081375,0.5616418216814676,9.813220673620556,0.0,0.0,0.0,0.0,0.0,0.0,0.0,0.0,0.0
2025/05/21 11:56:31.779232640,1747821391,778018772,mA1/imu,0.01768008621484268,-0.9998432842108176,-0.0007437840230788244,-0.0005180302009229157,0.0,0.0,0.0,0.0,0.0,0.0,0.0,0.0,0.0,-0.0010656801646825502,-0.0003176531417037045,0.003354047223365713,0.0,0.0,0.0,0.0,0.0,0.0,0.0,0.0,0.0,-0.005239983760267441,-0.05494285823294848,9.813522400234923,0.0,0.0,0.0,0.0,0.0,0.0,0.0,0.0,0.0
2025/05/21 11:56:31.830075782,1747821391,828986884,mA1/imu,0.017596967553850335,-0.999844744143061,-0.0007471408138625833,-0.0005254740808774971,0.0,0.0,0.0,0.0,0.0,0.0,0.0,0.0,0.0,0.0006295504111544161,-0.00030421337057744016,0.003288498357142693,0.0,0.0,0.0,0.0,0.0,0.0,0.0,0.0,0.0,0.014154866537774655,-0.5675027449607066,9.810620368773817,0.0,0.0,0.0,0.0,0.0,0.0,0.0,0.0,0.0
2025/05/21 11:56:31.880087284,1747821391,878948275,mA1/imu,0.017513100231730114,-0.9998462125132292,-0.0007521095819327942,-0.0005262835741622402,0.0,0.0,0.0,0.0,0.0,0.0,0.0,0.0,0.0,9.682933755673933e-05,9.681473965220613e-05,0.0033858426255589558,0.0,0.0,0.0,0.0,0.0,0.0,0.0,0.0,0.0,0.010562174511169867,0.16222616510205967,9.811766346059343,0.0,0.0,0.0,0.0,0.0,0.0,0.0,0.0,0.0
2025/05/21 11:56:31.931910785,1747821391,930322392,mA1/imu,0.017430065819076298,-0.999847656103182,-0.0007635303354961473,-0.0005238434333247351,0.0,0.0,0.0,0.0,0.0,0.0,0.0,0.0,0.0,-0.0006722159542193921,7.56775293801807e-05,0.003279948803377475,0.0,0.0,0.0,0.0,0.0,0.0,0.0,0.0,0.0,0.014854593978149973,-0.029611173206306525,9.811095590339447,0.0,0.0,0.0,0.0,0.0,0.0,0.0,0.0,0.0
2025/05/21 11:56:31.981790545,1747821391,980598890,mA1/imu,0.017350173876683164,-0.9998490413185463,-0.0007709379941388906,-0.0005212441286110783,0.0,0.0,0.0,0.0,0.0,0.0,0.0,0.0,0.0,0.0004370472550615297,9.78641876711583e-05,0.003141470946166666,0.0,0.0,0.0,0.0,0.0,0.0,0.0,0.0,0.0,0.013563207242817534,-0.5851994880415221,9.809695405537067,0.0,0.0,0.0,0.0,0.0,0.0,0.0,0.0,0.0
2025/05/21 11:56:32.33160463,1747821392,31674047,mA1/imu,0.017273235113084547,-0.9998503673882487,-0.0007805638868091491,-0.000518557934003574,0.0,0.0,0.0,0.0,0.0,0.0,0.0,0.0,0.0,0.00017061409856721117,8.611121294921123e-05,0.0030368414927364005,0.0,0.0,0.0,0.0,0.0,0.0,0.0,0.0,0.0,0.013972752048222722,-0.6055576310214,9.80900084762666,0.0,0.0,0.0,0.0,0.0,0.0,0.0,0.0,0.0
2025/05/21 11:56:32.82750886,1747821392,81756673,mA1/imu,0.01719601694624915,-0.9998517024361314,-0.0007806951339818435,-0.0005105407540945029,0.0,0.0,0.0,0.0,0.0,0.0,0.0,0.0,0.0,-0.001341964598300929,0.00046021307000733506,0.0031100341084324165,0.0,0.0,0.0,0.0,0.0,0.0,0.0,0.0,0.0,0.009541993634129164,0.5460617233450857,9.810934751760682,0.0,0.0,0.0,0.0,0.0,0.0,0.0,0.0,0.0
2025/05/21 11:56:32.134555618,1747821392,133126147,mA1/imu,0.01711869269761692,-0.9998530298671207,-0.0007878558194459288,-0.0004983062023257939,0.0,0.0,0.0,0.0,0.0,0.0,0.0,0.0,0.0,-0.0006823289533721527,0.0007135524539198265,0.003234386716033165,0.0,0.0,0.0,0.0,0.0,0.0,0.0,0.0,0.0,-0.03856747855494748,-0.12087997098204942,9.806628033751645,0.0,0.0,0.0,0.0,0.0,0.0,0.0,0.0,0.0
2025/05/21 11:56:32.184707675,1747821392,183035196,mA1/imu,0.01702613627963056,-0.9998546300402705,-0.0007852860858270261,-0.0004612983680684717,0.0,0.0,0.0,0.0,0.0,0.0,0.0,0.0,0.0,0.00036942244923652743,0.0016424598607667248,0.0038095896660757336,0.0,0.0,0.0,0.0,0.0,0.0,0.0,0.0,0.0,0.013092501993714175,-0.39358045191780516,9.807675323170521,0.0,0.0,0.0,0.0,0.0,0.0,0.0,0.0,0.0
2025/05/21 11:56:32.235583745,1747821392,234219811,mA1/imu,0.016931565306316666,-0.9998562571029708,-0.0007803395074230744,-0.0004222541521309219,0.0,0.0,0.0,0.0,0.0,0.0,0.0,0.0,0.0,0.00040537968295731763,0.0015907956106605108,0.00381338806899048,0.0,0.0,0.0,0.0,0.0,0.0,0.0,0.0,0.0,-0.010418708852979098,0.017781256031844835,9.811113740414307,0.0,0.0,0.0,0.0,0.0,0.0,0.0,0.0,0.0
2025/05/21 11:56:32.285143202,1747821392,284241296,mA1/imu,0.016832729568877193,-0.999857941863748,-0.0007824216709939081,-0.0003783167715633857,0.0,0.0,0.0,0.0,0.0,0.0,0.0,0.0,0.0,0.0009848623614333275,0.0016707131255893717,0.003958606193110816,0.0,0.0,0.0,0.0,0.0,0.0,0.0,0.0,0.0,0.017323009042670947,-0.26552573255291645,9.807022047713785,0.0,0.0,0.0,0.0,0.0,0.0,0.0,0.0,0.0
2025/05/21 11:56:32.336670505,1747821392,335671860,mA1/imu,0.016735709615444565,-0.9998595855262291,-0.0007793229156607378,-0.00034338138863201066,0.0,0.0,0.0,0.0,0.0,0.0,0.0,0.0,0.0,-0.0002499053817505327,0.001212350195319135,0.003824450160674744,0.0,0.0,0.0,0.0,0.0,0.0,0.0,0.0,0.0,0.014652438612347616,0.3520751656669011,9.808804487645352,0.0,0.0,0.0,0.0,0.0,0.0,0.0,0.0,0.0
2025/05/21 11:56:32.376628275,1747821392,375745686,mA1/imu,0.01664268555100459,-0.9998611503109782,-0.0007738587078172768,-0.00031977985827151957,0.0,0.0,0.0,0.0,0.0,0.0,0.0,0.0,0.0,0.0005298938614762532,0.0007422083750116976,0.003665863530728327,0.0,0.0,0.0,0.0,0.0,0.0,0.0,0.0,0.0,0.01690201862141793,0.023285927991869196,9.808683550444439,0.0,0.0,0.0,0.0,0.0,0.0,0.0,0.0,0.0
2025/05/21 11:56:32.427749831,1747821392,426836959,mA1/imu,0.016552884149409062,-0.9998626445152955,-0.0007735915766859977,-0.00030933038713765084,0.0,0.0,0.0,0.0,0.0,0.0,0.0,0.0,0.0,-0.0008144893051728137,0.00019026651816882024,0.003543416279521215,0.0,0.0,0.0,0.0,0.0,0.0,0.0,0.0,0.0,0.01765707393299761,0.49991460133038607,9.808383034511037,0.0,0.0,0.0,0.0,0.0,0.0,0.0,0.0,0.0
2025/05/21 11:56:32.478830287,1747821392,477739698,mA1/imu,0.01645944606826802,-0.9998641935847715,-0.000767550852699574,-0.00030313015098599793,0.0,0.0,0.0,0.0,0.0,0.0,0.0,0.0,0.0,-0.0004866777715761072,0.00022241235860889728,0.003833651584390803,0.0,0.0,0.0,0.0,0.0,0.0,0.0,0.0,0.0,0.012994919906837267,-0.09871794250819814,9.807994239202637,0.0,0.0,0.0,0.0,0.0,0.0,0.0,0.0,0.0
2025/05/21 11:56:32.530307421,1747821392,529327315,mA1/imu,0.01636555894444067,-0.9998657392182849,-0.0007600876130867336,-0.00030705818556867655,0.0,0.0,0.0,0.0,0.0,0.0,0.0,0.0,0.0,-0.0005448030956207798,-0.0003990285491637778,0.003704540892115652,0.0,0.0,0.0,0.0,0.0,0.0,0.0,0.0,0.0,0.01822447341162228,-0.0666611629268292,9.810265255958143,0.0,0.0,0.0,0.0,0.0,0.0,0.0,0.0,0.0
2025/05/21 11:56:32.580709094,1747821392,579222612,mA1/imu,0.01626767194952161,-0.9998673472697466,-0.0007429585028587515,-0.0003142065654165348,0.0,0.0,0.0,0.0,0.0,0.0,0.0,0.0,0.0,4.5205812248506835e-05,-0.0002467370651173139,0.0040187389604967975,0.0,0.0,0.0,0.0,0.0,0.0,0.0,0.0,0.0,0.011121771719228866,-0.0235366101870581,9.808270420705828,0.0,0.0,0.0,0.0,0.0,0.0,0.0,0.0,0.0
2025/05/21 11:56:32.632986226,1747821392,630410652,mA1/imu,0.016169153850763444,-0.9998689492231138,-0.000731053025241898,-0.00032924867644273633,0.0,0.0,0.0,0.0,0.0,0.0,0.0,0.0,0.0,0.0014061857889439886,-0.0008203096982704535,0.0038886707161634973,0.0,0.0,0.0,0.0,0.0,0.0,0.0,0.0,0.0,0.017702984178405344,-0.5627423635508869,9.809512413862393,0.0,0.0,0.0,0.0,0.0,0.0,0.0,0.0,0.0
2025/05/21 11:56:32.681575418,1747821392,680522204,mA1/imu,0.01607366581282282,-0.9998704858182819,-0.0007229876183619352,-0.00035517003603298305,0.0,0.0,0.0,0.0,0.0,0.0,0.0,0.0,0.0,0.0018334386071094963,-0.0011910692824680493,0.003776080022614258,0.0,0.0,0.0,0.0,0.0,0.0,0.0,0.0,0.0,0.01512365109008303,-0.5340261820004129,9.808387488114755,0.0,0.0,0.0,0.0,0.0,0.0,0.0,0.0,0.0
2025/05/21 11:56:32.732750509,1747821392,731617689,mA1/imu,0.01598117953282722,-0.9998719589236909,-0.0007175501313823859,-0.0003908716535382009,0.0,0.0,0.0,0.0,0.0,0.0,0.0,0.0,0.0,0.0008537414408551954,-0.0015870107393815528,0.0036490340235562483,0.0,0.0,0.0,0.0,0.0,0.0,0.0,0.0,0.0,0.016493071812957616,-0.5953217793865877,9.809461943601164,0.0,0.0,0.0,0.0,0.0,0.0,0.0,0.0,0.0
2025/05/21 11:56:32.783514687,1747821392,781547107,mA1/imu,0.01588422072575015,-0.9998734990173705,-0.0007064385267510861,-0.0004224207662275663,0.0,0.0,0.0,0.0,0.0,0.0,0.0,0.0,0.0,0.0011164691688710334,-0.0011163732578746337,0.00400246485652171,0.0,0.0,0.0,0.0,0.0,0.0,0.0,0.0,0.0,0.008963059546082225,-0.5772926180118243,9.809487225199186,0.0,0.0,0.0,0.0,0.0,0.0,0.0,0.0,0.0
2025/05/21 11:56:32.835797028,1747821392,833548802,mA1/imu,0.015786005291021355,-0.999875045356976,-0.0006995270938181785,-0.0004542809506783918,0.0,0.0,0.0,0.0,0.0,0.0,0.0,0.0,0.0,-0.00041166337800971337,-0.001323217579826197,0.003884646252407663,0.0,0.0,0.0,0.0,0.0,0.0,0.0,0.0,0.0,0.007718982053670265,0.5817068593805683,9.812457198892997,0.0,0.0,0.0,0.0,0.0,0.0,0.0,0.0,0.0
2025/05/21 11:56:32.884694669,1747821392,883612486,mA1/imu,0.01568999421537655,-0.9998765387875703,-0.0007030180447163914,-0.0004868565894755528,0.0,0.0,0.0,0.0,0.0,0.0,0.0,0.0,0.0,-0.0018949098267313075,-0.0013432993756050616,0.003799288598155625,0.0,0.0,0.0,0.0,0.0,0.0,0.0,0.0,0.0,0.016859152085176292,0.4519459086246949,9.812613554189133,0.0,0.0,0.0,0.0,0.0,0.0,0.0,0.0,0.0
2025/05/21 11:56:32.937637502,1747821392,935083201,mA1/imu,0.015595714702425743,-0.9998780008546335,-0.0006966392344992682,-0.0005213287244837363,0.0,0.0,0.0,0.0,0.0,0.0,0.0,0.0,0.0,-0.00047259495525201953,-0.0011668968252101029,0.003893093404786719,0.0,0.0,0.0,0.0,0.0,0.0,0.0,0.0,0.0,-0.03458016987928325,-0.04160572902670668,9.80906483804014,0.0,0.0,0.0,0.0,0.0,0.0,0.0,0.0,0.0
2025/05/21 11:56:32.986224177,1747821392,985207322,mA1/imu,0.015487980500347618,-0.9998796725000637,-0.0006926313936425946,-0.0005322057296247458,0.0,0.0,0.0,0.0,0.0,0.0,0.0,0.0,0.0,0.00035543865912040785,-0.00027824035410124775,0.0043744546371168435,0.0,0.0,0.0,0.0,0.0,0.0,0.0,0.0,0.0,0.018072175489378835,0.026714765243891075,9.811273479445784,0.0,0.0,0.0,0.0,0.0,0.0,0.0,0.0,0.0
2025/05/21 11:56:33.27198084,1747821393,26175018,mA1/imu,0.015380653244752058,-0.9998813213297831,-0.0006974744561214044,-0.0005406393944200613,0.0,0.0,0.0,0.0,0.0,0.0,0.0,0.0,0.0,-0.0003164027869707234,-0.0003859885407793214,0.004239773955147929,0.0,0.0,0.0,0.0,0.0,0.0,0.0,0.0,0.0,0.01749225152785982,0.006235532302542986,9.811756238052894,0.0,0.0,0.0,0.0,0.0,0.0,0.0,0.0,0.0
2025/05/21 11:56:33.77472479,1747821393,76024909,mA1/imu,0.015277585662777673,-0.999882892869509,-0.0007012998602485929,-0.0005514541907407637,0.0,0.0,0.0,0.0,0.0,0.0,0.0,0.0,0.0,0.00013647344465170114,-0.00045991330340614374,0.004045334310372709,0.0,0.0,0.0,0.0,0.0,0.0,0.0,0.0,0.0,0.016363819511631225,-0.5091649748306278,9.811400544921307,0.0,0.0,0.0,0.0,0.0,0.0,0.0,0.0,0.0
2025/05/21 11:56:33.127741478,1747821393,126923266,mA1/imu,0.015178511908573814,-0.9998843885503936,-0.0007108778151975911,-0.000562993942105461,0.0,0.0,0.0,0.0,0.0,0.0,0.0,0.0,0.0,-0.0008550098619415285,-0.0004767715849491903,0.003909710515854135,0.0,0.0,0.0,0.0,0.0,0.0,0.0,0.0,0.0,0.016408571631598347,-0.038918277254756314,9.811834560318216,0.0,0.0,0.0,0.0,0.0,0.0,0.0,0.0,0.0
2025/05/21 11:56:33.177954932,1747821393,176819075,mA1/imu,0.015080480733254617,-0.9998858634746576,-0.0007163016697268414,-0.0005709958933021383,0.0,0.0,0.0,0.0,0.0,0.0,0.0,0.0,0.0,0.00045990961724528694,-0.00024459319152891917,0.003924432591253963,0.0,0.0,0.0,0.0,0.0,0.0,0.0,0.0,0.0,0.013346209806041556,-0.5717122977832919,9.811036360415232,0.0,0.0,0.0,0.0,0.0,0.0,0.0,0.0,0.0
2025/05/21 11:56:33.228752497,1747821393,227838239,mA1/imu,0.014984256495898055,-0.9998873006060686,-0.0007250797188293414,-0.0005765443399936038,0.0,0.0,0.0,0.0,0.0,0.0,0.0,0.0,0.0,-0.0008700114893461096,-0.00021883353137344767,0.0037999369272597,0.0,0.0,0.0,0.0,0.0,0.0,0.0,0.0,0.0,0.016579380738513342,0.5972976872248063,9.810969772064462,0.0,0.0,0.0,0.0,0.0,0.0,0.0,0.0,0.0
2025/05/21 11:56:33.279493491,1747821393,277961088,mA1/imu,0.014888105294749878,-0.9998887287247897,-0.0007374719034316936,-0.0005750000417550968,0.0,0.0,0.0,0.0,0.0,0.0,0.0,0.0,0.0,-0.000758612816043655,0.00020594330484440063,0.0038583595614143347,0.0,0.0,0.0,0.0,0.0,0.0,0.0,0.0,0.0,0.01203197286349925,-0.02088067916756203,9.809009544225566,0.0,0.0,0.0,0.0,0.0,0.0,0.0,0.0,0.0
2025/05/21 11:56:33.330323689,1747821393,329257629,mA1/imu,0.014793517168134028,-0.9998901281871616,-0.000747786094849099,-0.0005694028572543288,0.0,0.0,0.0,0.0,0.0,0.0,0.0,0.0,0.0,0.00017852591854617696,0.00021885250143505435,0.0037347986881033066,0.0,0.0,0.0,0.0,0.0,0.0,0.0,0.0,0.0,0.01663179171857021,-0.5879857483067328,9.809373163956328,0.0,0.0,0.0,0.0,0.0,0.0,0.0,0.0,0.0
2025/05/21 11:56:33.380371281,1747821393,379344755,mA1/imu,0.01469966101025935,-0.9998915138832203,-0.000752635524043587,-0.0005603305035936903,0.0,0.0,0.0,0.0,0.0,0.0,0.0,0.0,0.0,0.00030522647057801045,0.0004315598869955434,0.0037625603713423847,0.0,0.0,0.0,0.0,0.0,0.0,0.0,0.0,0.0,0.014261340767804142,0.047327669912364374,9.810184901302277,0.0,0.0,0.0,0.0,0.0,0.0,0.0,0.0,0.0
2025/05/21 11:56:33.431697430,1747821393,430457384,mA1/imu,0.014607361934577255,-0.9998928588162711,-0.0007704832173513183,-0.000549746440606401,0.0,0.0,0.0,0.0,0.0,0.0,0.0,0.0,0.0,-0.0013848314302668822,0.0003903915154580682,0.0036474588164307283,0.0,0.0,0.0,0.0,0.0,0.0,0.0,0.0,0.0,0.017430288207421887,0.5544334262595656,9.808704163702647,0.0,0.0,0.0,0.0,0.0,0.0,0.0,0.0,0.0
2025/05/21 11:56:33.482800109,1747821393,480835114,mA1/imu,0.01451790384597725,-0.9998941645562266,-0.0007732659353221938,-0.000540568328566938,0.0,0.0,0.0,0.0,0.0,0.0,0.0,0.0,0.0,-0.0012836527964815232,0.0003504884440205145,0.0035335831453215776,0.0,0.0,0.0,0.0,0.0,0.0,0.0,0.0,0.0,0.017046290704104787,0.5331543904920065,9.80935914218871,0.0,0.0,0.0,0.0,0.0,0.0,0.0,0.0,0.0
2025/05/21 11:56:33.534730481,1747821393,531840152,mA1/imu,0.014431226076679356,-0.999895413186997,-0.0007866074572911189,-0.0005325882426127369,0.0,0.0,0.0,0.0,0.0,0.0,0.0,0.0,0.0,-0.0011935033690770385,0.00028581289989656496,0.0034246673532093335,0.0,0.0,0.0,0.0,0.0,0.0,0.0,0.0,0.0,0.016849472854398743,-0.006007598356352643,9.80865607152321,0.0,0.0,0.0,0.0,0.0,0.0,0.0,0.0,0.0
2025/05/21 11:56:33.586537571,1747821393,583528662,mA1/imu,0.01434679786315408,-0.9998966293968686,-0.00079060049194719,-0.0005242735135914227,0.0,0.0,0.0,0.0,0.0,0.0,0.0,0.0,0.0,-0.0011981411900156655,0.00036931640938779126,0.003343547524383189,0.0,0.0,0.0,0.0,0.0,0.0,0.0,0.0,0.0,0.013799841134241705,0.5607210860173203,9.80707597829816,0.0,0.0,0.0,0.0,0.0,0.0,0.0,0.0,0.0
2025/05/21 11:56:33.636609736,1747821393,634835664,mA1/imu,0.01426442729802829,-0.9998978105488278,-0.0007927062280671571,-0.0005159363872999853,0.0,0.0,0.0,0.0,0.0,0.0,0.0,0.0,0.0,-0.00010677216289525829,0.0003734717227983672,0.0033047013523020375,0.0,0.0,0.0,0.0,0.0,0.0,0.0,0.0,0.0,0.0008774891563088361,0.0027904141484645685,9.80700773880313,0.0,0.0,0.0,0.0,0.0,0.0,0.0,0.0,0.0
2025/05/21 11:56:33.679914350,1747821393,675801412,mA1/imu,0.014179566090938232,-0.9998990234890074,-0.0007940146026756041,-0.0005022668742107962,0.0,0.0,0.0,0.0,0.0,0.0,0.0,0.0,0.0,-2.5059333870255646e-05,0.000551847597888631,0.0033938663820234144,0.0,0.0,0.0,0.0,0.0,0.0,0.0,0.0,0.0,0.017052074236726836,0.0008123406832761335,9.80767431465171,0.0,0.0,0.0,0.0,0.0,0.0,0.0,0.0,0.0
2025/05/21 11:56:33.728120357,1747821393,727307185,mA1/imu,0.01409615255180651,-0.999900209179514,-0.0007934574184542731,-0.0004905010960301489,0.0,0.0,0.0,0.0,0.0,0.0,0.0,0.0,0.0,4.849852188801547e-05,0.0004111668658247889,0.003300016463848128,0.0,0.0,0.0,0.0,0.0,0.0,0.0,0.0,0.0,0.016763226181177048,-0.0004933798137840388,9.808146938477961,0.0,0.0,0.0,0.0,0.0,0.0,0.0,0.0,0.0
2025/05/21 11:56:33.783621059,1747821393,777862052,mA1/imu,0.014014570592575102,-0.9999013637552752,-0.000789851726474516,-0.00048031832865957035,0.0,0.0,0.0,0.0,0.0,0.0,0.0,0.0,0.0,0.00023923823796978362,0.00039791805854396377,0.003239016259598668,0.0,0.0,0.0,0.0,0.0,0.0,0.0,0.0,0.0,0.014357520277950408,-0.03134908131107864,9.808445226238492,0.0,0.0,0.0,0.0,0.0,0.0,0.0,0.0,0.0
2025/05/21 11:56:33.838393310,1747821393,835766980,mA1/imu,0.013934922735566273,-0.9999024831187941,-0.0007865717423567878,-0.00047274318348520253,0.0,0.0,0.0,0.0,0.0,0.0,0.0,0.0,0.0,-0.0002418629820694055,0.0002404929526488236,0.003152018362236455,0.0,0.0,0.0,0.0,0.0,0.0,0.0,0.0,0.0,0.01643071780874413,0.3003252524491243,9.80995177144191,0.0,0.0,0.0,0.0,0.0,0.0,0.0,0.0,0.0
2025/05/21 11:56:33.878357002,1747821393,877633170,mA1/imu,0.013857404703791163,-0.9999035731517334,-0.0007725101217240377,-0.0004690004090553975,0.0,0.0,0.0,0.0,0.0,0.0,0.0,0.0,0.0,0.0016233524783783842,9.416396259618855e-05,0.0030673812949971327,0.0,0.0,0.0,0.0,0.0,0.0,0.0,0.0,0.0,0.015658772772645494,-0.4977617431349001,9.808928055195121,0.0,0.0,0.0,0.0,0.0,0.0,0.0,0.0,0.0
2025/05/21 11:56:33.939397367,1747821393,933639070,mA1/imu,0.013781967056432486,-0.9999046198072615,-0.0007675545456382332,-0.00046854260263359533,0.0,0.0,0.0,0.0,0.0,0.0,0.0,0.0,0.0,0.0013422242761601901,-4.288187978440329e-05,0.002985497701460098,0.0,0.0,0.0,0.0,0.0,0.0,0.0,0.0,0.0,0.01554915804587085,-0.402434440280763,9.810200908480676,0.0,0.0,0.0,0.0,0.0,0.0,0.0,0.0,0.0
2025/05/21 11:56:33.988167489,1747821393,984253822,mA1/imu,0.013707856845196065,-0.999905648428318,-0.0007541505331649529,-0.0004692108586511951,0.0,0.0,0.0,0.0,0.0,0.0,0.0,0.0,0.0,0.0012612611836914475,-2.4188184814790505e-05,0.0029469535328069067,0.0,0.0,0.0,0.0,0.0,0.0,0.0,0.0,0.0,0.012973145719848563,-0.5752722323408046,9.81145471320385,0.0,0.0,0.0,0.0,0.0,0.0,0.0,0.0,0.0
2025/05/21 11:56:34.35967521,1747821394,30360339,mA1/imu,0.013635346656294898,-0.9999066450576107,-0.0007456835331580252,-0.0004716431538517825,0.0,0.0,0.0,0.0,0.0,0.0,0.0,0.0,0.0,0.0011310097143386925,-0.00014805637980411406,0.0028705232490856786,0.0,0.0,0.0,0.0,0.0,0.0,0.0,0.0,0.0,0.015152029028217637,-0.3184873773761677,9.811620768364232,0.0,0.0,0.0,0.0,0.0,0.0,0.0,0.0,0.0
2025/05/21 11:56:34.81484195,1747821394,80559473,mA1/imu,0.013564683545709538,-0.9999076147583156,-0.0007305629762941428,-0.00047706014093818215,0.0,0.0,0.0,0.0,0.0,0.0,0.0,0.0,0.0,0.0008511568366310978,-0.00024885093971658493,0.0027975095388827215,0.0,0.0,0.0,0.0,0.0,0.0,0.0,0.0,0.0,0.014513074128616873,-0.6042656242833081,9.811925157844714,0.0,0.0,0.0,0.0,0.0,0.0,0.0,0.0,0.0
2025/05/21 11:56:34.134413053,1747821394,133382440,mA1/imu,0.013495787165679549,-0.9999085594047324,-0.000708211004721805,-0.00048476293591988854,0.0,0.0,0.0,0.0,0.0,0.0,0.0,0.0,0.0,0.0012280183582051376,-0.00032526073801046314,0.002727720174823127,0.0,0.0,0.0,0.0,0.0,0.0,0.0,0.0,0.0,0.0144313678549152,0.18953275582091628,9.813026305315764,0.0,0.0,0.0,0.0,0.0,0.0,0.0,0.0,0.0
2025/05/21 11:56:34.185328773,1747821394,183654341,mA1/imu,0.013428141251852,-0.9999094730085536,-0.0006993337165632098,-0.000491673295836106,0.0,0.0,0.0,0.0,0.0,0.0,0.0,0.0,0.0,0.00014952732851353841,-0.00023674352674629364,0.0026902567676440653,0.0,0.0,0.0,0.0,0.0,0.0,0.0,0.0,0.0,0.012230608031732428,0.35012891205939456,9.813435997467453,0.0,0.0,0.0,0.0,0.0,0.0,0.0,0.0,0.0
2025/05/21 11:56:34.236641543,1747821394,234913232,mA1/imu,0.013361521589744246,-0.999910372433721,-0.0006847625191996504,-0.0004979362974190078,0.0,0.0,0.0,0.0,0.0,0.0,0.0,0.0,0.0,0.0006223630303188507,-0.00017170483193468985,0.002693493679719611,0.0,0.0,0.0,0.0,0.0,0.0,0.0,0.0,0.0,-0.0026905612231593826,0.014805643643149999,9.810065013622346,0.0,0.0,0.0,0.0,0.0,0.0,0.0,0.0,0.0
2025/05/21 11:56:34.286517124,1747821394,284645180,mA1/imu,0.013290960378356434,-0.9999113210782579,-0.0006737970694593149,-0.0004963358374003679,0.0,0.0,0.0,0.0,0.0,0.0,0.0,0.0,0.0,0.0011604851009305928,0.00010891977866037497,0.0028400493665922326,0.0,0.0,0.0,0.0,0.0,0.0,0.0,0.0,0.0,0.015455023873465396,0.05087243573541433,9.812264472277185,0.0,0.0,0.0,0.0,0.0,0.0,0.0,0.0,0.0
2025/05/21 11:56:34.337984251,1747821394,335966915,mA1/imu,0.013222746008404432,-0.9999122273222449,-0.0006703830097538883,-0.0004972183468262914,0.0,0.0,0.0,0.0,0.0,0.0,0.0,0.0,0.0,-4.7729336661320305e-05,-0.0005335812970918332,0.0024029068709773903,0.0,0.0,0.0,0.0,0.0,0.0,0.0,0.0,0.0,0.10358490435716686,-0.3719947339074412,9.814248954133218,0.0,0.0,0.0,0.0,0.0,0.0,0.0,0.0,0.0
2025/05/21 11:56:34.377172154,1747821394,375561067,mA1/imu,0.013186664561686596,-0.9999126893688467,-0.000655084174343674,-0.0005444094255732164,0.0,0.0,0.0,0.0,0.0,0.0,0.0,0.0,0.0,-8.577876138912793e-07,-0.0021387488145128437,0.0011906160707289564,0.0,0.0,0.0,0.0,0.0,0.0,0.0,0.0,0.0,0.009925952651308812,-0.00938324640382659,9.809670273717579,0.0,0.0,0.0,0.0,0.0,0.0,0.0,0.0,0.0
2025/05/21 11:56:34.429631973,1747821394,428793880,mA1/imu,0.013157304404327183,-0.9999130505723828,-0.0006510877002967863,-0.0005939028959087065,0.0,0.0,0.0,0.0,0.0,0.0,0.0,0.0,0.0,0.0006209634761096254,-0.0018511737345475283,0.0011616241417990263,0.0,0.0,0.0,0.0,0.0,0.0,0.0,0.0,0.0,0.009388678671549706,0.03631549001888183,9.809237511190581,0.0,0.0,0.0,0.0,0.0,0.0,0.0,0.0,0.0
2025/05/21 11:56:34.482576072,1747821394,479413036,mA1/imu,0.013125892795108954,-0.9999134444836082,-0.0006461276304720187,-0.0006300780446723372,0.0,0.0,0.0,0.0,0.0,0.0,0.0,0.0,0.0,0.0007606762946400875,-0.0011972488587264946,0.0013104885473873172,0.0,0.0,0.0,0.0,0.0,0.0,0.0,0.0,0.0,0.007011225020737695,-0.19312077719092466,9.80856048696153,0.0,0.0,0.0,0.0,0.0,0.0,0.0,0.0,0.0
2025/05/21 11:56:34.531588992,1747821394,530386432,mA1/imu,0.013093393914842755,-0.9999138587000663,-0.0006411480389290337,-0.0006535629479383393,0.0,0.0,0.0,0.0,0.0,0.0,0.0,0.0,0.0,-9.744657576442674e-05,-0.0007572879876345312,0.0012920431635195732,0.0,0.0,0.0,0.0,0.0,0.0,0.0,0.0,0.0,0.009733557998075347,0.6255448137842201,9.809237536023327,0.0,0.0,0.0,0.0,0.0,0.0,0.0,0.0,0.0
2025/05/21 11:56:34.582078815,1747821394,580305440,mA1/imu,0.013064384426713557,-0.9999142217285598,-0.0006516154724069792,-0.0006681630008441235,0.0,0.0,0.0,0.0,0.0,0.0,0.0,0.0,0.0,-0.001744855236311345,-0.00043760201373611185,0.001078590997675038,0.0,0.0,0.0,0.0,0.0,0.0,0.0,0.0,0.0,0.010602702644489396,0.5205788118294314,9.808376155033447,0.0,0.0,0.0,0.0,0.0,0.0,0.0,0.0,0.0
2025/05/21 11:56:34.634309377,1747821394,632758845,mA1/imu,0.013037778660548031,-0.99991456754425,-0.00065023388988976,-0.0006716667941802915,0.0,0.0,0.0,0.0,0.0,0.0,0.0,0.0,0.0,0.00041658203995104977,7.232002331310554e-05,0.0010544458348097725,0.0,0.0,0.0,0.0,0.0,0.0,0.0,0.0,0.0,0.00936133574506433,-0.5859581942396789,9.80720317502326,0.0,0.0,0.0,0.0,0.0,0.0,0.0,0.0,0.0
2025/05/21 11:56:34.684047416,1747821394,682448945,mA1/imu,0.013009310995638157,-0.9999149481860214,-0.0006489051892649763,-0.0006581364754624938,0.0,0.0,0.0,0.0,0.0,0.0,0.0,0.0,0.0,0.0003528143097930999,0.0008226948548809271,0.0011895492647597278,0.0,0.0,0.0,0.0,0.0,0.0,0.0,0.0,0.0,0.007377023429897222,0.03915291118167094,9.808068344905344,0.0,0.0,0.0,0.0,0.0,0.0,0.0,0.0,0.0
2025/05/21 11:56:34.734924712,1747821394,733850284,mA1/imu,0.012979973591030888,-0.9999153443917901,-0.0006530465433503775,-0.0006307659124362311,0.0,0.0,0.0,0.0,0.0,0.0,0.0,0.0,0.0,-0.0002559660487188226,0.0012715112085135312,0.0011468040622482393,0.0,0.0,0.0,0.0,0.0,0.0,0.0,0.0,0.0,0.008580979433372583,0.27291959794858944,9.80632079153611,0.0,0.0,0.0,0.0,0.0,0.0,0.0,0.0,0.0
2025/05/21 11:56:34.785418034,1747821394,783933648,mA1/imu,0.012953415204098387,-0.9999157048608951,-0.0006639421553858541,-0.0005927798108476674,0.0,0.0,0.0,0.0,0.0,0.0,0.0,0.0,0.0,-0.001376079426625262,0.0016576467337798121,0.0010356899458898248,0.0,0.0,0.0,0.0,0.0,0.0,0.0,0.0,0.0,0.010259269706095014,0.4263715770249036,9.806988908375368,0.0,0.0,0.0,0.0,0.0,0.0,0.0,0.0,0.0
2025/05/21 11:56:34.836555859,1747821394,835403951,mA1/imu,0.012927581063902991,-0.9999160606878613,-0.0006709577663208881,-0.000546847310689728,0.0,0.0,0.0,0.0,0.0,0.0,0.0,0.0,0.0,-0.0007330003443772915,0.002010130047530705,0.0010777100111688251,0.0,0.0,0.0,0.0,0.0,0.0,0.0,0.0,0.0,-0.004790108882113429,-0.04567405428349789,9.808860417537668,0.0,0.0,0.0,0.0,0.0,0.0,0.0,0.0,0.0
2025/05/21 11:56:34.887306806,1747821394,885393473,mA1/imu,0.012897160829188053,-0.99991648351891,-0.0006715575258539717,-0.0004880985689379412,0.0,0.0,0.0,0.0,0.0,0.0,0.0,0.0,0.0,0.00055939083043772,0.002437712962644094,0.0012489431201187914,0.0,0.0,0.0,0.0,0.0,0.0,0.0,0.0,0.0,0.012588753553927313,-0.1430512814225813,9.80828672540171,0.0,0.0,0.0,0.0,0.0,0.0,0.0,0.0,0.0
2025/05/21 11:56:34.927377470,1747821394,926384995,mA1/imu,0.012866241556712852,-0.9999169029219901,-0.0006817041725760012,-0.0004270345661329251,0.0,0.0,0.0,0.0,0.0,0.0,0.0,0.0,0.0,-0.0014676179256867662,0.0024113875699945833,0.0012318923448458984,0.0,0.0,0.0,0.0,0.0,0.0,0.0,0.0,0.0,0.013248488379469651,0.5553188648182465,9.808755431525604,0.0,0.0,0.0,0.0,0.0,0.0,0.0,0.0,0.0
2025/05/21 11:56:34.978128711,1747821394,976167328,mA1/imu,0.01283832034124186,-0.9999172797107356,-0.0006884032745188721,-0.00037063139301432937,0.0,0.0,0.0,0.0,0.0,0.0,0.0,0.0,0.0,7.830583123000822e-05,0.0021410851667651907,0.0010515788951600098,0.0,0.0,0.0,0.0,0.0,0.0,0.0,0.0,0.0,0.013044383941119215,-0.5956555052545836,9.807715385290427,0.0,0.0,0.0,0.0,0.0,0.0,0.0,0.0,0.0
2025/05/21 11:56:35.28923803,1747821395,27358797,mA1/imu,0.012812451709424638,-0.9999176287621742,-0.0006883900369287398,-0.00032076624124186475,0.0,0.0,0.0,0.0,0.0,0.0,0.0,0.0,0.0,0.0009058526294469756,0.0018765807133899932,0.001026285948297076,0.0,0.0,0.0,0.0,0.0,0.0,0.0,0.0,0.0,0.01243035474803663,-0.4898358760054373,9.80972134473947,0.0,0.0,0.0,0.0,0.0,0.0,0.0,0.0,0.0
2025/05/21 11:56:35.78821842,1747821395,77352697,mA1/imu,0.012787174820918344,-0.9999179611866883,-0.0006937088250837421,-0.000278970287995239,0.0,0.0,0.0,0.0,0.0,0.0,0.0,0.0,0.0,0.0009754752202438851,0.0015132631726541526,0.0010033081941892804,0.0,0.0,0.0,0.0,0.0,0.0,0.0,0.0,0.0,0.012474846916647566,-0.4406572336429336,9.808999847777555,0.0,0.0,0.0,0.0,0.0,0.0,0.0,0.0,0.0
2025/05/21 11:56:35.130511983,1747821395,128866280,mA1/imu,0.012762457828042221,-0.9999182824063303,-0.0006979007387715638,-0.00024721310781723944,0.0,0.0,0.0,0.0,0.0,0.0,0.0,0.0,0.0,-1.3939661129389343e-05,0.0010869416305681631,0.0009808314486456943,0.0,0.0,0.0,0.0,0.0,0.0,0.0,0.0,0.0,0.012755664768050606,0.19966503443778352,9.81208820889805,0.0,0.0,0.0,0.0,0.0,0.0,0.0,0.0,0.0
2025/05/21 11:56:35.179963609,1747821395,178221128,mA1/imu,0.01273886009837714,-0.9999185828279448,-0.0007050018710832639,-0.0002283223815732065,0.0,0.0,0.0,0.0,0.0,0.0,0.0,0.0,0.0,-0.0006134615767543659,0.0005345735790005506,0.0009202347913041188,0.0,0.0,0.0,0.0,0.0,0.0,0.0,0.0,0.0,0.013191425875037462,-0.025455344767741753,9.811859825833228,0.0,0.0,0.0,0.0,0.0,0.0,0.0,0.0,0.0
2025/05/21 11:56:35.230302699,1747821395,229173167,mA1/imu,0.012716168436780976,-0.999918873240144,-0.0007045242482323853,-0.00022280940821172254,0.0,0.0,0.0,0.0,0.0,0.0,0.0,0.0,0.0,-0.00012158685476858951,1.4745606108161887e-05,0.0008997828688372135,0.0,0.0,0.0,0.0,0.0,0.0,0.0,0.0,0.0,0.012567709072006314,0.0017922800242781579,9.811609716979326,0.0,0.0,0.0,0.0,0.0,0.0,0.0,0.0,0.0
2025/05/21 11:56:35.280114027,1747821395,279138622,mA1/imu,0.01269297806609468,-0.9999191651908348,-0.0007064265138300238,-0.00022880878090663734,0.0,0.0,0.0,0.0,0.0,0.0,0.0,0.0,0.0,-4.310799620384066e-05,-0.0004189984651764417,0.0009423036078304359,0.0,0.0,0.0,0.0,0.0,0.0,0.0,0.0,0.0,0.012055813664981298,0.0033568937410616718,9.811388678087805,0.0,0.0,0.0,0.0,0.0,0.0,0.0,0.0,0.0
2025/05/21 11:56:35.331830082,1747821395,330211002,mA1/imu,0.012670206547091039,-0.999919449505803,-0.000706456064452439,-0.0002475598813919337,0.0,0.0,0.0,0.0,0.0,0.0,0.0,0.0,0.0,4.6205471194148785e-05,-0.0009459340521210766,0.0009040877944355392,0.0,0.0,0.0,0.0,0.0,0.0,0.0,0.0,0.0,0.012451667106186715,0.003844889005001873,9.814146112310596,0.0,0.0,0.0,0.0,0.0,0.0,0.0,0.0,0.0
2025/05/21 11:56:35.381105344,1747821395,380132083,mA1/imu,0.012650949674418543,-0.9999196873536164,-0.0007024342906536836,-0.00028089330453646017,0.0,0.0,0.0,0.0,0.0,0.0,0.0,0.0,0.0,0.00021885006499995893,-0.0015828300260536943,0.0006682524228579483,0.0,0.0,0.0,0.0,0.0,0.0,0.0,0.0,0.0,0.01776101751869286,0.012955183736926537,9.814228616960134,0.0,0.0,0.0,0.0,0.0,0.0,0.0,0.0,0.0
2025/05/21 11:56:35.433964521,1747821395,432098152,mA1/imu,0.012635204326078486,-0.9999198727542759,-0.000702307952536541,-0.0003262610162694735,0.0,0.0,0.0,0.0,0.0,0.0,0.0,0.0,0.0,-4.5809458143755966e-05,-0.001932303147852639,0.0006174064968477883,0.0,0.0,0.0,0.0,0.0,0.0,0.0,0.0,0.0,0.011487315250469473,-0.00937258193685112,9.811808616455515,0.0,0.0,0.0,0.0,0.0,0.0,0.0,0.0,0.0
2025/05/21 11:56:35.483612934,1747821395,482377083,mA1/imu,0.012619512325036615,-0.9999200599371606,-0.0006914971043794163,-0.0003787818610107256,0.0,0.0,0.0,0.0,0.0,0.0,0.0,0.0,0.0,0.0013284114000894087,-0.002209440265407231,0.0006408984926272989,0.0,0.0,0.0,0.0,0.0,0.0,0.0,0.0,0.0,0.014383275729361525,-0.3699202668865975,9.81110134859864,0.0,0.0,0.0,0.0,0.0,0.0,0.0,0.0,0.0
2025/05/21 11:56:35.534906752,1747821395,533016288,mA1/imu,0.012603307892279422,-0.9999202425381312,-0.0006889419925480936,-0.0004365221512362585,0.0,0.0,0.0,0.0,0.0,0.0,0.0,0.0,0.0,-0.0008570235113939664,-0.0023413129874884095,0.0006462089639890537,0.0,0.0,0.0,0.0,0.0,0.0,0.0,0.0,0.0,0.006735401790233849,0.5554740747641981,9.812235111817952,0.0,0.0,0.0,0.0,0.0,0.0,0.0,0.0,0.0
2025/05/21 11:56:35.584435230,1747821395,582982882,mA1/imu,0.012586080874406397,-0.9999204422634942,-0.0006749466353996908,-0.000494124316708846,0.0,0.0,0.0,0.0,0.0,0.0,0.0,0.0,0.0,0.0018626816450770254,-0.0023098092720851607,0.000679347035517725,0.0,0.0,0.0,0.0,0.0,0.0,0.0,0.0,0.0,0.015645533187078602,-0.09268169278022664,9.810656028179302,0.0,0.0,0.0,0.0,0.0,0.0,0.0,0.0,0.0
2025/05/21 11:56:35.636124096,1747821395,634881953,mA1/imu,0.012570252225930605,-0.9999206120312175,-0.0006743172849845815,-0.0005510810204188911,0.0,0.0,0.0,0.0,0.0,0.0,0.0,0.0,0.0,0.0010214378307278641,-0.0022584247026742467,0.0006040829450705736,0.0,0.0,0.0,0.0,0.0,0.0,0.0,0.0,0.0,0.014324480480955248,-0.44325831607891525,9.80953485131465,0.0,0.0,0.0,0.0,0.0,0.0,0.0,0.0,0.0
2025/05/21 11:56:35.685680867,1747821395,684840145,mA1/imu,0.012556249407388594,-0.9999207547342662,-0.000676775868844212,-0.0006056623632014588,0.0,0.0,0.0,0.0,0.0,0.0,0.0,0.0,0.0,-0.0006566426904639391,-0.002107568173580734,0.0005259963935226592,0.0,0.0,0.0,0.0,0.0,0.0,0.0,0.0,0.0,0.014295847912567557,-0.05614056084122899,9.81039880351474,0.0,0.0,0.0,0.0,0.0,0.0,0.0,0.0,0.0
2025/05/21 11:56:35.731538135,1747821395,729998805,mA1/imu,0.012544452444416317,-0.9999208774685538,-0.0006685658104976815,-0.0006546259574098679,0.0,0.0,0.0,0.0,0.0,0.0,0.0,0.0,0.0,-0.0008845624909602041,-0.00182763773498253,0.0004315341311293819,0.0,0.0,0.0,0.0,0.0,0.0,0.0,0.0,0.0,0.014914281194683314,-0.07345711061888538,9.808408450452847,0.0,0.0,0.0,0.0,0.0,0.0,0.0,0.0,0.0
2025/05/21 11:56:35.784656884,1747821395,780646352,mA1/imu,0.012530531439202443,-0.9999210305133774,-0.0006638955188119942,-0.0006912030501744538,0.0,0.0,0.0,0.0,0.0,0.0,0.0,0.0,0.0,0.00026898058524090515,-0.001205208839033924,0.0006308381452970784,0.0,0.0,0.0,0.0,0.0,0.0,0.0,0.0,0.0,0.010336772841221182,0.010454773723282169,9.808099068144543,0.0,0.0,0.0,0.0,0.0,0.0,0.0,0.0,0.0
2025/05/21 11:56:35.833162366,1747821395,831652542,mA1/imu,0.012515729564755388,-0.9999212016705261,-0.0006603143522669877,-0.0007148063997804641,0.0,0.0,0.0,0.0,0.0,0.0,0.0,0.0,0.0,-0.0006951759835177552,-0.0007651479253989511,0.0005619162710654085,0.0,0.0,0.0,0.0,0.0,0.0,0.0,0.0,0.0,0.015080779278836897,-0.05598691359791519,9.80764781409171,0.0,0.0,0.0,0.0,0.0,0.0,0.0,0.0,0.0
2025/05/21 11:56:35.882791058,1747821395,881533277,mA1/imu,0.012500980748095372,-0.9999213788645467,-0.0006599870338851296,-0.0007252496633956704,0.0,0.0,0.0,0.0,0.0,0.0,0.0,0.0,0.0,0.00021067654026056589,-0.0001842659816692838,0.0006136069201790372,0.0,0.0,0.0,0.0,0.0,0.0,0.0,0.0,0.0,0.011799695510456915,0.01197384050367159,9.808141140353193,0.0,0.0,0.0,0.0,0.0,0.0,0.0,0.0,0.0
2025/05/21 11:56:35.934689351,1747821395,932880513,mA1/imu,0.012486481040502909,-0.9999215609952031,-0.0006606843892814634,-0.0007232871346316875,0.0,0.0,0.0,0.0,0.0,0.0,0.0,0.0,0.0,0.00013640725554408785,0.00023994790202998734,0.0005583994577224758,0.0,0.0,0.0,0.0,0.0,0.0,0.0,0.0,0.0,0.015746477892598153,-0.6135116170490557,9.80751804235744,0.0,0.0,0.0,0.0,0.0,0.0,0.0,0.0,0.0
2025/05/21 11:56:35.983762283,1747821395,982612737,mA1/imu,0.012473399477987257,-0.9999217305998112,-0.0006640681392871107,-0.000711332023517152,0.0,0.0,0.0,0.0,0.0,0.0,0.0,0.0,0.0,-0.0002758995060859041,0.0006352753824150545,0.0004997281729805389,0.0,0.0,0.0,0.0,0.0,0.0,0.0,0.0,0.0,0.01590082555860163,0.12425323500638717,9.806853112913139,0.0,0.0,0.0,0.0,0.0,0.0,0.0,0.0,0.0
2025/05/21 11:56:36.34878862,1747821396,33832038,mA1/imu,0.012461306141377398,-0.9999218925433714,-0.0006707075223011636,-0.0006890668709390081,0.0,0.0,0.0,0.0,0.0,0.0,0.0,0.0,0.0,-0.00029037765607820134,0.0011265333906160246,0.0005397261859083622,0.0,0.0,0.0,0.0,0.0,0.0,0.0,0.0,0.0,-0.0035558461700063593,0.009164806060578663,9.805940365237715,0.0,0.0,0.0,0.0,0.0,0.0,0.0,0.0,0.0
2025/05/21 11:56:36.84911035,1747821396,83675576,mA1/imu,0.012442476753215047,-0.9999221497711566,-0.0006768507182824768,-0.0006488777847760214,0.0,0.0,0.0,0.0,0.0,0.0,0.0,0.0,0.0,-0.00028756232651042606,0.0017981235735693099,0.000812175921433818,0.0,0.0,0.0,0.0,0.0,0.0,0.0,0.0,0.0,0.01469835129358532,-0.0001510276045061567,9.807180822001397,0.0,0.0,0.0,0.0,0.0,0.0,0.0,0.0,0.0
2025/05/21 11:56:36.136661824,1747821396,135442059,mA1/imu,0.012421871887245708,-0.9999224296106419,-0.0006871095708961695,-0.0005997839655433677,0.0,0.0,0.0,0.0,0.0,0.0,0.0,0.0,0.0,-0.001072118867844338,0.0020789481052662525,0.0008491766948424671,0.0,0.0,0.0,0.0,0.0,0.0,0.0,0.0,0.0,0.009816118049838184,0.5372354946705742,9.80891138527436,0.0,0.0,0.0,0.0,0.0,0.0,0.0,0.0,0.0
2025/05/21 11:56:36.186580115,1747821396,185207524,mA1/imu,0.012399131116580597,-0.9999227376186149,-0.0006961993004682425,-0.0005437346619012441,0.0,0.0,0.0,0.0,0.0,0.0,0.0,0.0,0.0,0.00017202036476149542,0.0022794637495874874,0.0009309552750764926,0.0,0.0,0.0,0.0,0.0,0.0,0.0,0.0,0.0,0.016004575680972237,-0.5883798295316862,9.808501806943996,0.0,0.0,0.0,0.0,0.0,0.0,0.0,0.0,0.0
2025/05/21 11:56:36.227838603,1747821396,226255847,mA1/imu,0.012375671170519211,-0.9999230518816029,-0.0007042018716934312,-0.00048700984029911523,0.0,0.0,0.0,0.0,0.0,0.0,0.0,0.0,0.0,-1.8820210976039122e-05,0.002233110655019763,0.0009457920335335567,0.0,0.0,0.0,0.0,0.0,0.0,0.0,0.0,0.0,0.01733157834758111,-0.0012498127340550887,9.810050678407979,0.0,0.0,0.0,0.0,0.0,0.0,0.0,0.0,0.0
2025/05/21 11:56:36.276705289,1747821396,276106312,mA1/imu,0.012349067847331413,-0.9999233933032877,-0.0007233400073669768,-0.00042991554359683086,0.0,0.0,0.0,0.0,0.0,0.0,0.0,0.0,0.0,-0.0016602633276373638,0.0022736552707901194,0.0011347927647853454,0.0,0.0,0.0,0.0,0.0,0.0,0.0,0.0,0.0,0.014740320131081126,0.15817084679688037,9.8106639362602,0.0,0.0,0.0,0.0,0.0,0.0,0.0,0.0,0.0
2025/05/21 11:56:36.328566805,1747821396,327202279,mA1/imu,0.012320491673397327,-0.9999237639935785,-0.0007269374620476522,-0.00037848086612820675,0.0,0.0,0.0,0.0,0.0,0.0,0.0,0.0,0.0,-0.0002973514771109579,0.001911003401724691,0.0011521316731589297,0.0,0.0,0.0,0.0,0.0,0.0,0.0,0.0,0.0,0.017935320993016122,0.012793124546774243,9.810689852909391,0.0,0.0,0.0,0.0,0.0,0.0,0.0,0.0,0.0
2025/05/21 11:56:36.377947440,1747821396,377057831,mA1/imu,0.012298998053127676,-0.9999240294300388,-0.0007408637733896184,-0.00034804619458084137,0.0,0.0,0.0,0.0,0.0,0.0,0.0,0.0,0.0,0.00015032870160356884,0.0007766103551137553,0.0007025578666788458,0.0,0.0,0.0,0.0,0.0,0.0,0.0,0.0,0.0,0.025714735348454212,0.07763126761722869,9.811626481394802,0.0,0.0,0.0,0.0,0.0,0.0,0.0,0.0,0.0
2025/05/21 11:56:36.429378635,1747821396,428299941,mA1/imu,0.012281107330590043,-0.9999242406236214,-0.0007586374516709584,-0.0003344924897833459,0.0,0.0,0.0,0.0,0.0,0.0,0.0,0.0,0.0,-0.0013903583652280069,0.0003701302173365886,0.0007279766676227922,0.0,0.0,0.0,0.0,0.0,0.0,0.0,0.0,0.0,0.015511497078380856,0.5616763128080728,9.813794191201442,0.0,0.0,0.0,0.0,0.0,0.0,0.0,0.0,0.0
2025/05/21 11:56:36.480424915,1747821396,478103503,mA1/imu,0.012266098713810314,-0.9999244169337459,-0.0007688983457625168,-0.00033471986052112574,0.0,0.0,0.0,0.0,0.0,0.0,0.0,0.0,0.0,-0.00013599838504690958,-0.00029126662241884963,0.0004965706187853847,0.0,0.0,0.0,0.0,0.0,0.0,0.0,0.0,0.0,0.023148757081504413,-0.5309036067976608,9.812740334741218,0.0,0.0,0.0,0.0,0.0,0.0,0.0,0.0,0.0
2025/05/21 11:56:36.529951417,1747821396,528988152,mA1/imu,0.012253877687631346,-0.9999245568714559,-0.0007762817380021717,-0.00034703559224710605,0.0,0.0,0.0,0.0,0.0,0.0,0.0,0.0,0.0,0.0007171369488137674,-0.0005761583779725097,0.0005208766006859678,0.0,0.0,0.0,0.0,0.0,0.0,0.0,0.0,0.0,0.008656770501228933,-0.5587959630659409,9.811572278577888,0.0,0.0,0.0,0.0,0.0,0.0,0.0,0.0,0.0
2025/05/21 11:56:36.579834656,1747821396,578878353,mA1/imu,0.012240968435097935,-0.9999246964009798,-0.0007914864568663557,-0.00036574358223105495,0.0,0.0,0.0,0.0,0.0,0.0,0.0,0.0,0.0,-0.001454199342845325,-0.0008624020903423435,0.0005065057712717827,0.0,0.0,0.0,0.0,0.0,0.0,0.0,0.0,0.0,0.01239150026950314,0.5458218175116247,9.813818745539063,0.0,0.0,0.0,0.0,0.0,0.0,0.0,0.0,0.0
2025/05/21 11:56:36.630961722,1747821396,630277950,mA1/imu,0.012226583718461258,-0.9999248607476788,-0.000795472736503416,-0.00038824275410108763,0.0,0.0,0.0,0.0,0.0,0.0,0.0,0.0,0.0,-0.001541131288275912,-0.0009009130329021924,0.0006151883918618045,0.0,0.0,0.0,0.0,0.0,0.0,0.0,0.0,0.0,0.007496087598851494,0.5332247027872692,9.813084509696388,0.0,0.0,0.0,0.0,0.0,0.0,0.0,0.0,0.0
2025/05/21 11:56:36.680838452,1747821396,679859485,mA1/imu,0.012210914270414335,-0.9999250374817734,-0.0008026407344240847,-0.0004108011755263646,0.0,0.0,0.0,0.0,0.0,0.0,0.0,0.0,0.0,-0.00029119889609945354,-0.0008982429506156422,0.0006298593014479724,0.0,0.0,0.0,0.0,0.0,0.0,0.0,0.0,0.0,0.00753627074345995,-0.013176338111196626,9.812526442911883,0.0,0.0,0.0,0.0,0.0,0.0,0.0,0.0,0.0
2025/05/21 11:56:36.733708185,1747821396,730990964,mA1/imu,0.01219385444604764,-0.9999252324619573,-0.0008079796747504451,-0.00043193575246488054,0.0,0.0,0.0,0.0,0.0,0.0,0.0,0.0,0.0,-0.00014747504526669845,-0.0008062322120090355,0.0007171829697000111,0.0,0.0,0.0,0.0,0.0,0.0,0.0,0.0,0.0,0.006074239485367332,-0.010761060566725465,9.81112902883529,0.0,0.0,0.0,0.0,0.0,0.0,0.0,0.0,0.0
2025/05/21 11:56:36.781605246,1747821396,780756610,mA1/imu,0.012175685900940595,-0.9999254450748772,-0.0008090452409210679,-0.00044990048723335125,0.0,0.0,0.0,0.0,0.0,0.0,0.0,0.0,0.0,6.888835221791213e-05,-0.0006614628430283538,0.0007285104436151757,0.0,0.0,0.0,0.0,0.0,0.0,0.0,0.0,0.0,0.006837685870739159,-0.003176776555025535,9.81083577658893,0.0,0.0,0.0,0.0,0.0,0.0,0.0,0.0,0.0
2025/05/21 11:56:36.832670563,1747821396,831748588,mA1/imu,0.012156198761318716,-0.9999256780281188,-0.0008066391973961266,-0.0004632330807546965,0.0,0.0,0.0,0.0,0.0,0.0,0.0,0.0,0.0,0.00013053722177737095,-0.000442556353862669,0.0008129318636019915,0.0,0.0,0.0,0.0,0.0,0.0,0.0,0.0,0.0,0.0049123996503205765,-0.005865232883760105,9.809907668246009,0.0,0.0,0.0,0.0,0.0,0.0,0.0,0.0,0.0
2025/05/21 11:56:36.882464192,1747821396,881504902,mA1/imu,0.01213855025124176,-0.9999258870555192,-0.0008064276340959357,-0.000475045789444583,0.0,0.0,0.0,0.0,0.0,0.0,0.0,0.0,0.0,-0.00014580150516966338,-0.0004690525938849755,0.0006419886885583033,0.0,0.0,0.0,0.0,0.0,0.0,0.0,0.0,0.0,0.007960935429813455,-0.030123939013329284,9.809453767343191,0.0,0.0,0.0,0.0,0.0,0.0,0.0,0.0,0.0
2025/05/21 11:56:36.933726229,1747821396,932650884,mA1/imu,0.01212127185717251,-0.9999260980429362,-0.0008004314934958568,-0.0004822142853773121,0.0,0.0,0.0,0.0,0.0,0.0,0.0,0.0,0.0,0.00015198125749414196,-0.00015757486799771058,0.0007229752691251743,0.0,0.0,0.0,0.0,0.0,0.0,0.0,0.0,0.0,0.003312666663611091,-0.0345854956807599,9.808126697115373,0.0,0.0,0.0,0.0,0.0,0.0,0.0,0.0,0.0
2025/05/21 11:56:36.985081176,1747821396,983852676,mA1/imu,0.012101952517781874,-0.9999263435637441,-0.0007866174698270824,-0.0004810669960364544,0.0,0.0,0.0,0.0,0.0,0.0,0.0,0.0,0.0,-0.00033165622595219266,0.00021543370976968282,0.0008089810397195866,0.0,0.0,0.0,0.0,0.0,0.0,0.0,0.0,0.0,0.0019907355430406797,0.5738820017279683,9.80946445891246,0.0,0.0,0.0,0.0,0.0,0.0,0.0,0.0,0.0
2025/05/21 11:56:37.36205236,1747821397,35040144,mA1/imu,0.01208088249856717,-0.9999266083139075,-0.0007795423514122376,-0.0004717813302538331,0.0,0.0,0.0,0.0,0.0,0.0,0.0,0.0,0.0,-0.00016456570345589256,0.0004081003723550128,0.0007852806562596564,0.0,0.0,0.0,0.0,0.0,0.0,0.0,0.0,0.0,0.02451610331158682,0.5700782860592609,9.810574367894336,0.0,0.0,0.0,0.0,0.0,0.0,0.0,0.0,0.0
2025/05/21 11:56:37.85466056,1747821397,84711702,mA1/imu,0.01206694859818747,-0.9999267865615119,-0.0007707851496786739,-0.000464928543385456,0.0,0.0,0.0,0.0,0.0,0.0,0.0,0.0,0.0,0.0004524641712116595,0.000323468506576269,0.000518907598400535,0.0,0.0,0.0,0.0,0.0,0.0,0.0,0.0,0.0,0.0019296981194648977,-0.005278057694988205,9.807513789902316,0.0,0.0,0.0,0.0,0.0,0.0,0.0,0.0,0.0
2025/05/21 11:56:37.137066590,1747821397,135962432,mA1/imu,0.012053065862205895,-0.9999269691252226,-0.0007587635060608458,-0.0004519925987489559,0.0,0.0,0.0,0.0,0.0,0.0,0.0,0.0,0.0,0.0004861182926604091,0.00065250605363512,0.00056430465790737,0.0,0.0,0.0,0.0,0.0,0.0,0.0,0.0,0.0,0.00228422279002837,-0.008780905936317706,9.806844967229775,0.0,0.0,0.0,0.0,0.0,0.0,0.0,0.0,0.0
2025/05/21 11:56:37.176430945,1747821397,175442324,mA1/imu,0.012039477882292522,-0.9999271530571854,-0.0007440348972595187,-0.00043123467562619357,0.0,0.0,0.0,0.0,0.0,0.0,0.0,0.0,0.0,0.0005835171070972493,0.0009574673899340237,0.0005544412742028,0.0,0.0,0.0,0.0,0.0,0.0,0.0,0.0,0.0,0.0015898852940625843,-0.0005677133862431964,9.807127382463866,0.0,0.0,0.0,0.0,0.0,0.0,0.0,0.0,0.0
2025/05/21 11:56:37.228993436,1747821397,227927618,mA1/imu,0.012025062507366516,-0.999927348915464,-0.0007290060327700241,-0.0004041197714788344,0.0,0.0,0.0,0.0,0.0,0.0,0.0,0.0,0.0,0.0014587018982333867,0.0011512170120920179,0.0005793907771366418,0.0,0.0,0.0,0.0,0.0,0.0,0.0,0.0,0.0,0.0045321027421443075,-0.451141837549259,9.807054242766473,0.0,0.0,0.0,0.0,0.0,0.0,0.0,0.0,0.0
2025/05/21 11:56:37.278821793,1747821397,277787139,mA1/imu,0.01201125523598107,-0.9999275366904414,-0.0007154574545126023,-0.00037314403771989405,0.0,0.0,0.0,0.0,0.0,0.0,0.0,0.0,0.0,0.0007252870011628296,0.0013038515259842672,0.0005363034739730088,0.0,0.0,0.0,0.0,0.0,0.0,0.0,0.0,0.0,0.0034388998192794564,0.010333649768853346,9.807888316983073,0.0,0.0,0.0,0.0,0.0,0.0,0.0,0.0,0.0
2025/05/21 11:56:37.335285600,1747821397,333591091,mA1/imu,0.011998004208443928,-0.9999277147076477,-0.0007054660710508852,-0.0003399590827017041,0.0,0.0,0.0,0.0,0.0,0.0,0.0,0.0,0.0,0.0009179842243673657,0.0013264700668383857,0.0005254704643859003,0.0,0.0,0.0,0.0,0.0,0.0,0.0,0.0,0.0,0.006038569172882625,-0.522443520527289,9.80828252512942,0.0,0.0,0.0,0.0,0.0,0.0,0.0,0.0,0.0
2025/05/21 11:56:37.384280432,1747821397,383407608,mA1/imu,0.011984582553867742,-0.9999278977445536,-0.0006881616218538724,-0.00030907401921058516,0.0,0.0,0.0,0.0,0.0,0.0,0.0,0.0,0.0,0.001625841575094218,0.0011683934874526737,0.0005414690666452881,0.0,0.0,0.0,0.0,0.0,0.0,0.0,0.0,0.0,0.008228603223895261,-0.5517179053644652,9.809133316778682,0.0,0.0,0.0,0.0,0.0,0.0,0.0,0.0,0.0
2025/05/21 11:56:37.435932489,1747821397,434668538,mA1/imu,0.01197226872940428,-0.9999280570300156,-0.0006820513659023469,-0.0002834635478540521,0.0,0.0,0.0,0.0,0.0,0.0,0.0,0.0,0.0,0.0002174403507941971,0.0009093688838291051,0.0004772563849153544,0.0,0.0,0.0,0.0,0.0,0.0,0.0,0.0,0.0,0.01039200357113442,-0.014090823406493154,9.809302841937402,0.0,0.0,0.0,0.0,0.0,0.0,0.0,0.0,0.0
2025/05/21 11:56:37.485689531,1747821397,484282220,mA1/imu,0.011960209311718276,-0.9999282119901078,-0.0006735312512559963,-0.00026573509224250976,0.0,0.0,0.0,0.0,0.0,0.0,0.0,0.0,0.0,0.00010175796585741008,0.0005785123512849481,0.00045969350513979984,0.0,0.0,0.0,0.0,0.0,0.0,0.0,0.0,0.0,0.011259428322143994,-0.15187627262703016,9.810307307468019,0.0,0.0,0.0,0.0,0.0,0.0,0.0,0.0,0.0
2025/05/21 11:56:37.537112515,1747821397,535335912,mA1/imu,0.011949783305444488,-0.9999283449525679,-0.0006644392605860129,-0.0002572155522005503,0.0,0.0,0.0,0.0,0.0,0.0,0.0,0.0,0.0,0.001743912813773181,0.00021530081561439303,0.0004084109766138603,0.0,0.0,0.0,0.0,0.0,0.0,0.0,0.0,0.0,0.0038569076822384807,-0.527483027715268,9.809949510421383,0.0,0.0,0.0,0.0,0.0,0.0,0.0,0.0,0.0
2025/05/21 11:56:37.585870839,1747821397,585197677,mA1/imu,0.011938793458024288,-0.9999284777366992,-0.0006630781881367322,-0.00025485142876757576,0.0,0.0,0.0,0.0,0.0,0.0,0.0,0.0,0.0,0.0001406467130211428,-5.708394964543025e-05,0.0004257791399369136,0.0,0.0,0.0,0.0,0.0,0.0,0.0,0.0,0.0,0.013502327451688573,-0.004209732806832778,9.811460929150204,0.0,0.0,0.0,0.0,0.0,0.0,0.0,0.0,0.0
2025/05/21 11:56:37.627152216,1747821397,626156448,mA1/imu,0.01192930974778339,-0.9999285913084415,-0.0006594384830739057,-0.0002626666030092538,0.0,0.0,0.0,0.0,0.0,0.0,0.0,0.0,0.0,0.000131502051032254,-0.0004779967721443727,0.0003470761066107763,0.0,0.0,0.0,0.0,0.0,0.0,0.0,0.0,0.0,0.012229629654969662,0.004932492688119086,9.812590558550973,0.0,0.0,0.0,0.0,0.0,0.0,0.0,0.0,0.0
2025/05/21 11:56:37.677639484,1747821397,676240850,mA1/imu,0.011916256186379514,-0.9999287399866905,-0.0006655539634360592,-0.0002735416818701058,0.0,0.0,0.0,0.0,0.0,0.0,0.0,0.0,0.0,0.00071007890788905,-0.00043288683459118447,0.0006475625775498504,0.0,0.0,0.0,0.0,0.0,0.0,0.0,0.0,0.0,0.003488748718629151,-0.5780762545603284,9.81035817154032,0.0,0.0,0.0,0.0,0.0,0.0,0.0,0.0,0.0
2025/05/21 11:56:37.728382079,1747821397,727500921,mA1/imu,0.011900096764652049,-0.9999289218413165,-0.000674870164246107,-0.00028898532060090006,0.0,0.0,0.0,0.0,0.0,0.0,0.0,0.0,0.0,-0.0004535600086891019,-0.0007639761809377884,0.0006452669563819873,0.0,0.0,0.0,0.0,0.0,0.0,0.0,0.0,0.0,0.011242978567704074,-0.6506304923581547,9.81264903866147,0.0,0.0,0.0,0.0,0.0,0.0,0.0,0.0,0.0
2025/05/21 11:56:37.778543569,1747821397,777364650,mA1/imu,0.011881261402681927,-0.9999291365283255,-0.0006802225452857337,-0.0003079715691936448,0.0,0.0,0.0,0.0,0.0,0.0,0.0,0.0,0.0,-0.002762127436244623,-0.0007651066832571946,0.0008139255759201954,0.0,0.0,0.0,0.0,0.0,0.0,0.0,0.0,0.0,0.008202773892681918,0.45857104279768984,9.813503954949308,0.0,0.0,0.0,0.0,0.0,0.0,0.0,0.0,0.0
2025/05/21 11:56:37.829816333,1747821397,828875307,mA1/imu,0.011860820632483398,-0.9999293714185575,-0.0006802820178389719,-0.0003321517554499473,0.0,0.0,0.0,0.0,0.0,0.0,0.0,0.0,0.0,-0.0015442643040333305,-0.001060466007641022,0.0008183918307822305,0.0,0.0,0.0,0.0,0.0,0.0,0.0,0.0,0.0,0.011099953642754581,0.5491841326720199,9.81261084715523,0.0,0.0,0.0,0.0,0.0,0.0,0.0,0.0,0.0
2025/05/21 11:56:37.879317369,1747821397,878569860,mA1/imu,0.011839215981103837,-0.9999296113709146,-0.0006890558684969476,-0.0003612071075310131,0.0,0.0,0.0,0.0,0.0,0.0,0.0,0.0,0.0,-5.98533604032896e-05,-0.0012165603848146795,0.0008921905613710889,0.0,0.0,0.0,0.0,0.0,0.0,0.0,0.0,0.0,0.0096818416510183,0.657017836162627,9.813680544838254,0.0,0.0,0.0,0.0,0.0,0.0,0.0,0.0,0.0
2025/05/21 11:56:37.933397500,1747821397,931245051,mA1/imu,0.011816715789986642,-0.9999298549577912,-0.000703626536085391,-0.00039408340131858073,0.0,0.0,0.0,0.0,0.0,0.0,0.0,0.0,0.0,0.00187229770586515,-0.0013903464679466196,0.0009040458928563325,0.0,0.0,0.0,0.0,0.0,0.0,0.0,0.0,0.0,0.010039052105376497,-0.4605375312354437,9.810401755990773,0.0,0.0,0.0,0.0,0.0,0.0,0.0,0.0,0.0
2025/05/21 11:56:37.982460088,1747821397,980487434,mA1/imu,0.011791244660560555,-0.999930123940039,-0.0007298353542434142,-0.0004255901415072877,0.0,0.0,0.0,0.0,0.0,0.0,0.0,0.0,0.0,0.0004378879099053284,-0.0012367885638689554,0.0010951369909940932,0.0,0.0,0.0,0.0,0.0,0.0,0.0,0.0,0.0,0.008045814328677136,-0.5631736988887124,9.809750031949712,0.0,0.0,0.0,0.0,0.0,0.0,0.0,0.0,0.0
2025/05/21 11:56:38.33975875,1747821398,31672215,mA1/imu,0.01176359524604719,-0.9999304218491646,-0.0007490261551920737,-0.0004563411635327783,0.0,0.0,0.0,0.0,0.0,0.0,0.0,0.0,0.0,-0.0007476728135206867,-0.0012512852452634846,0.0011123172223601607,0.0,0.0,0.0,0.0,0.0,0.0,0.0,0.0,0.0,0.01174578137942508,-0.5012740443047929,9.809446637299665,0.0,0.0,0.0,0.0,0.0,0.0,0.0,0.0,0.0
2025/05/21 11:56:38.82539209,1747821398,81360993,mA1/imu,0.011735531236920702,-0.9999307277041868,-0.0007613774764280031,-0.00048724111181592335,0.0,0.0,0.0,0.0,0.0,0.0,0.0,0.0,0.0,-0.0008712051415991207,-0.0012210022923742824,0.0011280098806303693,0.0,0.0,0.0,0.0,0.0,0.0,0.0,0.0,0.0,0.011330601745477764,-0.02274084770547833,9.810187093851003,0.0,0.0,0.0,0.0,0.0,0.0,0.0,0.0,0.0
2025/05/21 11:56:38.133278081,1747821398,132410748,mA1/imu,0.01170709081054192,-0.9999310375260709,-0.000773259827447628,-0.0005160290963905528,0.0,0.0,0.0,0.0,0.0,0.0,0.0,0.0,0.0,-0.0013435427552134032,-0.0011007101648084743,0.001142956349226271,0.0,0.0,0.0,0.0,0.0,0.0,0.0,0.0,0.0,0.010960764334585073,0.5707666790112189,9.808837533604562,0.0,0.0,0.0,0.0,0.0,0.0,0.0,0.0,0.0
2025/05/21 11:56:38.185735987,1747821398,183493685,mA1/imu,0.011677340174719433,-0.9999313645334243,-0.0007837690027775574,-0.0005400508477624167,0.0,0.0,0.0,0.0,0.0,0.0,0.0,0.0,0.0,2.2971234805228938e-05,-0.0008677247373197155,0.0012193416364808653,0.0,0.0,0.0,0.0,0.0,0.0,0.0,0.0,0.0,0.009715270969857916,0.029543966275310654,9.808587037180994,0.0,0.0,0.0,0.0,0.0,0.0,0.0,0.0,0.0
2025/05/21 11:56:38.237362441,1747821398,234473780,mA1/imu,0.011646153287019937,-0.9999317118823609,-0.0007919431682499523,-0.0005581322825105354,0.0,0.0,0.0,0.0,0.0,0.0,0.0,0.0,0.0,0.0006585131741128706,-0.0005528294196962148,0.0013121001536916207,0.0,0.0,0.0,0.0,0.0,0.0,0.0,0.0,0.0,-0.0073084307170484825,0.06730484873410347,9.807648834482023,0.0,0.0,0.0,0.0,0.0,0.0,0.0,0.0,0.0
2025/05/21 11:56:38.282103494,1747821398,277403012,mA1/imu,0.011608708353358097,-0.9999321400003732,-0.0007985413420449426,-0.000561797442014837,0.0,0.0,0.0,0.0,0.0,0.0,0.0,0.0,0.0,6.403360723899574e-05,-6.3211574380091095e-06,0.0015523394460068727,0.0,0.0,0.0,0.0,0.0,0.0,0.0,0.0,0.0,0.012243433608150368,0.12376392771720368,9.806634179606792,0.0,0.0,0.0,0.0,0.0,0.0,0.0,0.0,0.0
2025/05/21 11:56:38.333478805,1747821398,330998228,mA1/imu,0.01156945941142423,-0.9999325955759316,-0.0007995736594388424,-0.00055910255828401,0.0,0.0,0.0,0.0,0.0,0.0,0.0,0.0,0.0,0.00023050139573411958,0.0001769560147322779,0.0015821134811672686,0.0,0.0,0.0,0.0,0.0,0.0,0.0,0.0,0.0,0.012052693657332605,0.05554029697316143,9.807927884639039,0.0,0.0,0.0,0.0,0.0,0.0,0.0,0.0,0.0
2025/05/21 11:56:38.382951731,1747821398,381160695,mA1/imu,0.011530251929278269,-0.9999330481478482,-0.0008039947152185767,-0.0005532672937700766,0.0,0.0,0.0,0.0,0.0,0.0,0.0,0.0,0.0,-0.00038681970765670786,0.00026153852955185274,0.0015477202632893042,0.0,0.0,0.0,0.0,0.0,0.0,0.0,0.0,0.0,0.015445010312843881,-0.033404564538208295,9.807613938696214,0.0,0.0,0.0,0.0,0.0,0.0,0.0,0.0,0.0
2025/05/21 11:56:38.434100094,1747821398,432199039,mA1/imu,0.0114911658042574,-0.9999335023967405,-0.0008047193917826566,-0.0005443525947473336,0.0,0.0,0.0,0.0,0.0,0.0,0.0,0.0,0.0,-3.1230276045501444e-05,0.000402110836965633,0.0015725717368275495,0.0,0.0,0.0,0.0,0.0,0.0,0.0,0.0,0.0,0.014171441395972938,-0.6538965097018663,9.807943334985268,0.0,0.0,0.0,0.0,0.0,0.0,0.0,0.0,0.0
2025/05/21 11:56:38.483599370,1747821398,482410425,mA1/imu,0.01144785165517704,-0.9999340241628543,-0.0007842208139914653,-0.0005282155585189233,0.0,0.0,0.0,0.0,0.0,0.0,0.0,0.0,0.0,0.0006252430994507554,0.0007788660786533738,0.0018195494183853777,0.0,0.0,0.0,0.0,0.0,0.0,0.0,0.0,0.0,0.013407840246936297,-0.13585304833021547,9.80666984736095,0.0,0.0,0.0,0.0,0.0,0.0,0.0,0.0,0.0
2025/05/21 11:56:38.535489757,1747821398,533226345,mA1/imu,0.011402862279007548,-0.9999345598808319,-0.0007685871149398823,-0.0005098643149731665,0.0,0.0,0.0,0.0,0.0,0.0,0.0,0.0,0.0,0.0015695415513836207,0.0007327797824339716,0.0018115273275225432,0.0,0.0,0.0,0.0,0.0,0.0,0.0,0.0,0.0,0.009804169534078368,-0.4891552748213711,9.80877602795101,0.0,0.0,0.0,0.0,0.0,0.0,0.0,0.0,0.0
2025/05/21 11:56:38.583990955,1747821398,582997089,mA1/imu,0.01135586977307698,-0.9999351123657813,-0.0007579599047369431,-0.000490689832895366,0.0,0.0,0.0,0.0,0.0,0.0,0.0,0.0,0.0,0.001890368148028214,0.0006986664701855804,0.0018886485254068226,0.0,0.0,0.0,0.0,0.0,0.0,0.0,0.0,0.0,0.020941188423160097,-0.5476316248125487,9.80707643222486,0.0,0.0,0.0,0.0,0.0,0.0,0.0,0.0,0.0
2025/05/21 11:56:38.636218601,1747821398,635046125,mA1/imu,0.011309224268332795,-0.9999356614798187,-0.0007401909913830254,-0.00047588303420991726,0.0,0.0,0.0,0.0,0.0,0.0,0.0,0.0,0.0,0.0005094031223966736,0.0005076765041834774,0.0018514155413794815,0.0,0.0,0.0,0.0,0.0,0.0,0.0,0.0,0.0,0.02046060057109433,-0.013119615524930245,9.808314687549897,0.0,0.0,0.0,0.0,0.0,0.0,0.0,0.0,0.0
2025/05/21 11:56:38.685640720,1747821398,684796003,mA1/imu,0.011263529740231938,-0.9999361938403222,-0.0007233074794867797,-0.0004668749410670947,0.0,0.0,0.0,0.0,0.0,0.0,0.0,0.0,0.0,-0.001220764778549759,0.00028874013291567185,0.0018117211174822007,0.0,0.0,0.0,0.0,0.0,0.0,0.0,0.0,0.0,0.019310529294447244,0.49719804484164154,9.81019922421039,0.0,0.0,0.0,0.0,0.0,0.0,0.0,0.0,0.0
2025/05/21 11:56:38.739711880,1747821398,735772375,mA1/imu,0.011218854398589573,-0.9999367120040473,-0.0007025611222686509,-0.0004644355583005953,0.0,0.0,0.0,0.0,0.0,0.0,0.0,0.0,0.0,0.0014252473496139005,1.3113125936861113e-05,0.001772119195563432,0.0,0.0,0.0,0.0,0.0,0.0,0.0,0.0,0.0,0.01841557141645895,-0.580271501008323,9.811012300960995,0.0,0.0,0.0,0.0,0.0,0.0,0.0,0.0,0.0
2025/05/21 11:56:38.776902881,1747821398,775514669,mA1/imu,0.011173111540472534,-0.9999372366304687,-0.0006841200476781846,-0.0004651430817395952,0.0,0.0,0.0,0.0,0.0,0.0,0.0,0.0,0.0,0.0008225571765507949,-2.077833701842684e-05,0.001888446984783118,0.0,0.0,0.0,0.0,0.0,0.0,0.0,0.0,0.0,0.012324352607274202,0.3086649288483592,9.812872947079441,0.0,0.0,0.0,0.0,0.0,0.0,0.0,0.0,0.0
2025/05/21 11:56:38.827514406,1747821398,826543654,mA1/imu,0.011126149284860293,-0.9999377661252081,-0.0006726655936657407,-0.0004692543218470223,0.0,0.0,0.0,0.0,0.0,0.0,0.0,0.0,0.0,4.592576600508379e-05,-0.00025165975883968157,0.0018710607947224954,0.0,0.0,0.0,0.0,0.0,0.0,0.0,0.0,0.0,0.019687375358767634,0.2708443639273208,9.812703626902957,0.0,0.0,0.0,0.0,0.0,0.0,0.0,0.0,0.0
2025/05/21 11:56:38.878896802,1747821398,876428604,mA1/imu,0.011079709373505666,-0.9999382886463131,-0.0006552588237399235,-0.00047914001639559666,0.0,0.0,0.0,0.0,0.0,0.0,0.0,0.0,0.0,0.0012994872477035708,-0.0004831613676357426,0.001846614676128046,0.0,0.0,0.0,0.0,0.0,0.0,0.0,0.0,0.0,0.019566197851167554,-0.30325115881764847,9.811289033450112,0.0,0.0,0.0,0.0,0.0,0.0,0.0,0.0,0.0
2025/05/21 11:56:38.928709172,1747821398,927474219,mA1/imu,0.011034076461753228,-0.9999387923145724,-0.0006453064444469784,-0.0004943285379654457,0.0,0.0,0.0,0.0,0.0,0.0,0.0,0.0,0.0,0.00012325214923799592,-0.0006876828627944935,0.0018105875745052125,0.0,0.0,0.0,0.0,0.0,0.0,0.0,0.0,0.0,0.019484043256178203,0.3551223545085048,9.81368660722798,0.0,0.0,0.0,0.0,0.0,0.0,0.0,0.0,0.0
2025/05/21 11:56:38.979171841,1747821398,977299589,mA1/imu,0.010987545853087808,-0.9999393011883528,-0.0006364886278354244,-0.000512501026011947,0.0,0.0,0.0,0.0,0.0,0.0,0.0,0.0,0.0,0.0008159756549203122,-0.0007363278723383249,0.0019004636579258833,0.0,0.0,0.0,0.0,0.0,0.0,0.0,0.0,0.0,0.016204370710491384,0.3409862868484582,9.81336727469734,0.0,0.0,0.0,0.0,0.0,0.0,0.0,0.0,0.0
2025/05/21 11:56:39.29182678,1747821399,28324056,mA1/imu,0.010940194396400552,-0.9999398085008101,-0.0006384531795683106,-0.0005328221746507368,0.0,0.0,0.0,0.0,0.0,0.0,0.0,0.0,0.0,0.00045020841019135816,-0.0008618562511577017,0.001889914460802812,0.0,0.0,0.0,0.0,0.0,0.0,0.0,0.0,0.0,0.01962424527244366,0.026042218147233856,9.813432361935625,0.0,0.0,0.0,0.0,0.0,0.0,0.0,0.0,0.0
2025/05/21 11:56:39.79175693,1747821399,78190167,mA1/imu,0.010893266921174675,-0.999940309571586,-0.0006364820153574265,-0.0005558059992863408,0.0,0.0,0.0,0.0,0.0,0.0,0.0,0.0,0.0,0.000564538422962702,-0.000951813676207039,0.001871770203521763,0.0,0.0,0.0,0.0,0.0,0.0,0.0,0.0,0.0,0.01888857412684359,-0.27058949843299174,9.812065322952828,0.0,0.0,0.0,0.0,0.0,0.0,0.0,0.0,0.0
2025/05/21 11:56:39.130989041,1747821399,130102382,mA1/imu,0.010846441713138392,-0.9999408018580981,-0.0006420944206961404,-0.0005789613998767562,0.0,0.0,0.0,0.0,0.0,0.0,0.0,0.0,0.0,0.0005015924584586832,-0.0009018410010219352,0.001891258349543942,0.0,0.0,0.0,0.0,0.0,0.0,0.0,0.0,0.0,0.01594650704253958,-0.5832035658125732,9.81144646917082,0.0,0.0,0.0,0.0,0.0,0.0,0.0,0.0,0.0
2025/05/21 11:56:39.180934676,1747821399,179278991,mA1/imu,0.010798191914692695,-0.9999413117515458,-0.0006460365694753024,-0.0005956011436928374,0.0,0.0,0.0,0.0,0.0,0.0,0.0,0.0,0.0,0.00025666432548772904,-0.0005402315556421835,0.001955538408763561,0.0,0.0,0.0,0.0,0.0,0.0,0.0,0.0,0.0,0.01312691685100878,-0.5935699090592222,9.811588241532863,0.0,0.0,0.0,0.0,0.0,0.0,0.0,0.0,0.0
2025/05/21 11:56:39.231272250,1747821399,230563340,mA1/imu,0.01074849252229254,-0.9999418335620166,-0.0006570574407170085,-0.0006063634639794758,0.0,0.0,0.0,0.0,0.0,0.0,0.0,0.0,0.0,-0.0018160528893989055,-0.00036587941631831494,0.0020101008824878358,0.0,0.0,0.0,0.0,0.0,0.0,0.0,0.0,0.0,0.016047729997821746,0.53283721853,9.810344624175528,0.0,0.0,0.0,0.0,0.0,0.0,0.0,0.0,0.0
2025/05/21 11:56:39.281416013,1747821399,280153782,mA1/imu,0.010697401566185191,-0.9999423708548938,-0.0006671241272201103,-0.0006127921545376789,0.0,0.0,0.0,0.0,0.0,0.0,0.0,0.0,0.0,-0.0010899042366411898,-0.00018171370760997486,0.0020662368223649773,0.0,0.0,0.0,0.0,0.0,0.0,0.0,0.0,0.0,0.015055148986770576,-0.03747075834938843,9.81020476081581,0.0,0.0,0.0,0.0,0.0,0.0,0.0,0.0,0.0
2025/05/21 11:56:39.334586649,1747821399,331634715,mA1/imu,0.010644929257940574,-0.9999429244424679,-0.0006751750933728993,-0.0006143916760762595,0.0,0.0,0.0,0.0,0.0,0.0,0.0,0.0,0.0,-0.0014710351041336209,1.9730546788700972e-05,0.0021217316035685176,0.0,0.0,0.0,0.0,0.0,0.0,0.0,0.0,0.0,0.015717398735008457,0.5682507937197703,9.810538633873312,0.0,0.0,0.0,0.0,0.0,0.0,0.0,0.0,0.0
