time,header_stamp_secs,header_stamp_nsecs,header_frame_id,orientation_x,orientation_y,orientation_z,orientation_w,orientation_covariance_0,orientation_covariance_1,orientation_covariance_2,orientation_covariance_3,orientation_covariance_4,orientation_covariance_5,orientation_covariance_6,orientation_covariance_7,orientation_covariance_8,angular_velocity_x,angular_velocity_y,angular_velocity_z,angular_velocity_covariance_0,angular_velocity_covariance_1,angular_velocity_covariance_2,angular_velocity_covariance_3,angular_velocity_covariance_4,angular_velocity_covariance_5,angular_velocity_covariance_6,angular_velocity_covariance_7,angular_velocity_covariance_8,linear_acceleration_x,linear_acceleration_y,linear_acceleration_z,linear_acceleration_covariance_0,linear_acceleration_covariance_1,linear_acceleration_covariance_2,linear_acceleration_covariance_3,linear_acceleration_covariance_4,linear_acceleration_covariance_5,linear_acceleration_covariance_6,linear_acceleration_covariance_7,linear_acceleration_covariance_8
2025/05/20 12:56:12.27257542,1747738571,63399169,mA1/imu,0.998829941717086,0.04832426713602595,1.7949628351584943e-05,0.0018741432761452265,0.0,0.0,0.0,0.0,0.0,0.0,0.0,0.0,0.0,-0.00389320706514476,0.007596652025379728,0.005523663667239896,0.0,0.0,0.0,0.0,0.0,0.0,0.0,0.0,0.0,0.02712860288359511,-0.24376153679054144,9.806085401167499,0.0,0.0,0.0,0.0,0.0,0.0,0.0,0.0,0.0
2025/05/20 12:56:12.27325935,1747738571,115939807,mA1/imu,0.9988361599191862,0.04819237972434893,0.00019187104232120316,0.0019450860909306594,0.0,0.0,0.0,0.0,0.0,0.0,0.0,0.0,0.0,-0.0035992345272196414,0.006429243517652665,0.00526469690804992,0.0,0.0,0.0,0.0,0.0,0.0,0.0,0.0,0.0,-0.008615462573833655,0.2103789898596245,9.807803685614527,0.0,0.0,0.0,0.0,0.0,0.0,0.0,0.0,0.0
2025/05/20 12:56:12.30715792,1747738571,165833130,mA1/imu,0.9988423155137504,0.048062654684303395,0.0003332902497060655,0.0019745585421830527,0.0,0.0,0.0,0.0,0.0,0.0,0.0,0.0,0.0,-0.001275350766819794,0.0050503084435328275,0.005204512637990875,0.0,0.0,0.0,0.0,0.0,0.0,0.0,0.0,0.0,0.0030330553542628636,0.08070129871876336,9.801866759399232,0.0,0.0,0.0,0.0,0.0,0.0,0.0,0.0,0.0
2025/05/20 12:56:12.38845139,1747738571,216957737,mA1/imu,0.9988485521119199,0.04793195646080567,0.00043919431400731316,0.001976006608024719,0.0,0.0,0.0,0.0,0.0,0.0,0.0,0.0,0.0,0.00029418203446760014,0.0036172047950275344,0.005258835048222255,0.0,0.0,0.0,0.0,0.0,0.0,0.0,0.0,0.0,0.005534820869365771,-0.09277345614157943,9.801928202282733,0.0,0.0,0.0,0.0,0.0,0.0,0.0,0.0,0.0
2025/05/20 12:56:12.51109943,1747738571,266708166,mA1/imu,0.9988548547023767,0.04780121177972377,0.0005077108576661644,0.0019405204376794051,0.0,0.0,0.0,0.0,0.0,0.0,0.0,0.0,0.0,0.0019093807881788284,0.0022032190517537564,0.005235492947363671,0.0,0.0,0.0,0.0,0.0,0.0,0.0,0.0,0.0,0.008539074184043337,-0.1763814442828077,9.800491427917402,0.0,0.0,0.0,0.0,0.0,0.0,0.0,0.0,0.0
2025/05/20 12:56:12.60224591,1747738571,317768456,mA1/imu,0.9988612580878401,0.04766968982016112,0.0005369297458118428,0.0018706870595459715,0.0,0.0,0.0,0.0,0.0,0.0,0.0,0.0,0.0,0.003022339938942847,0.0007242829598218162,0.005298031585049554,0.0,0.0,0.0,0.0,0.0,0.0,0.0,0.0,0.0,-0.007648477291160823,0.024390355712203354,9.803239651766138,0.0,0.0,0.0,0.0,0.0,0.0,0.0,0.0,0.0
2025/05/20 12:56:13.669563407,1747738572,665511563,mA1/imu,0.9986770980775983,0.05140548074313087,0.000537206390710074,0.0011143312651494504,0.0,0.0,0.0,0.0,0.0,0.0,0.0,0.0,0.0,-0.001680018912561011,0.00022338567413740648,-0.004480320102879948,0.0,0.0,0.0,0.0,0.0,0.0,0.0,0.0,0.0,0.017988058867637637,-0.171477490045813,9.798487472897898,0.0,0.0,0.0,0.0,0.0,0.0,0.0,0.0,0.0
2025/05/20 12:56:13.675517772,1747738572,720256205,mA1/imu,0.9986714568856151,0.0515137858166072,0.0005292318619928272,0.0011708913015246593,0.0,0.0,0.0,0.0,0.0,0.0,0.0,0.0,0.0,-0.0017902151182374645,-0.001072736236346219,-0.004317844960716252,0.0,0.0,0.0,0.0,0.0,0.0,0.0,0.0,0.0,0.03458172331572526,-0.489716714847624,9.78956358599798,0.0,0.0,0.0,0.0,0.0,0.0,0.0,0.0,0.0
2025/05/20 12:56:13.682721911,1747738572,816646261,mA1/imu,0.9986610629191109,0.05171417415225907,0.00040014481087483967,0.0012511934909277156,0.0,0.0,0.0,0.0,0.0,0.0,0.0,0.0,0.0,-0.00044860260406562753,-0.004230119659950663,-0.003845567952586764,0.0,0.0,0.0,0.0,0.0,0.0,0.0,0.0,0.0,0.015641689924422053,0.012180431642411203,9.775348669258786,0.0,0.0,0.0,0.0,0.0,0.0,0.0,0.0,0.0
2025/05/20 12:56:13.686906485,1747738572,872422744,mA1/imu,0.9986562738835233,0.051806449505631375,0.00031568477445163926,0.0012801428908395503,0.0,0.0,0.0,0.0,0.0,0.0,0.0,0.0,0.0,-0.0010496422979329092,-0.0022407691623003156,-0.003701399154815819,0.0,0.0,0.0,0.0,0.0,0.0,0.0,0.0,0.0,0.01218620983778346,0.014234084423100514,9.772952074751396,0.0,0.0,0.0,0.0,0.0,0.0,0.0,0.0,0.0
2025/05/20 12:56:13.696026525,1747738572,917190435,mA1/imu,0.9986511859624775,0.05190405986446487,0.00023234771627157882,0.0013127680152555552,0.0,0.0,0.0,0.0,0.0,0.0,0.0,0.0,0.0,0.0005174050317495829,-0.0039376886981899485,-0.0039228144802292125,0.0,0.0,0.0,0.0,0.0,0.0,0.0,0.0,0.0,0.01111786763615102,-0.32764783783415596,9.773897821632353,0.0,0.0,0.0,0.0,0.0,0.0,0.0,0.0,0.0
2025/05/20 12:56:14.468097460,1747738573,516171319,mA1/imu,0.9986039280995638,0.05281230736289374,-0.0008018347285891095,0.0006419004570232161,0.0,0.0,0.0,0.0,0.0,0.0,0.0,0.0,0.0,0.004423810320971982,0.00011709402318894576,-0.0020290722166560375,0.0,0.0,0.0,0.0,0.0,0.0,0.0,0.0,0.0,-0.0020689395546085454,0.03404687254175983,9.847106221411744,0.0,0.0,0.0,0.0,0.0,0.0,0.0,0.0,0.0
2025/05/20 12:56:14.473689143,1747738573,570935304,mA1/imu,0.9986014089792626,0.052861049880013604,-0.0007886117069851039,0.0005598944453058598,0.0,0.0,0.0,0.0,0.0,0.0,0.0,0.0,0.0,0.0023474105362670003,0.0010489642192424609,-0.001930014164244649,0.0,0.0,0.0,0.0,0.0,0.0,0.0,0.0,0.0,0.007618198064138458,0.5506155224730813,9.843382382446283,0.0,0.0,0.0,0.0,0.0,0.0,0.0,0.0,0.0
2025/05/20 12:56:14.482731531,1747738573,618879254,mA1/imu,0.9985989449674252,0.052908755855038556,-0.0007548853420355278,0.0004907259290728015,0.0,0.0,0.0,0.0,0.0,0.0,0.0,0.0,0.0,0.0018426685472068575,0.001769360996556325,-0.0019091747438685332,0.0,0.0,0.0,0.0,0.0,0.0,0.0,0.0,0.0,0.010858087817578167,-0.07252120472077879,9.833737030200934,0.0,0.0,0.0,0.0,0.0,0.0,0.0,0.0,0.0
2025/05/20 12:56:14.491230377,1747738573,667460985,mA1/imu,0.9985965245848853,0.05295564537608866,-0.000703973958212629,0.00043026788946677846,0.0,0.0,0.0,0.0,0.0,0.0,0.0,0.0,0.0,0.002689598154488852,0.002406068748771385,-0.0018560290595129709,0.0,0.0,0.0,0.0,0.0,0.0,0.0,0.0,0.0,0.009937752298884068,-0.5909628091411956,9.825958205995985,0.0,0.0,0.0,0.0,0.0,0.0,0.0,0.0,0.0
2025/05/20 12:56:14.502441954,1747738573,722093524,mA1/imu,0.9985941714254662,0.053001151380768496,-0.0006379641766604159,0.0003895498797105087,0.0,0.0,0.0,0.0,0.0,0.0,0.0,0.0,0.0,0.0017359365608076293,0.0029078151306481167,-0.0018008962144570077,0.0,0.0,0.0,0.0,0.0,0.0,0.0,0.0,0.0,0.009900338865927732,0.03247635808206299,9.81615634592471,0.0,0.0,0.0,0.0,0.0,0.0,0.0,0.0,0.0
2025/05/20 12:56:14.502876323,1747738573,764160165,mA1/imu,0.998591876052118,0.05304534506643774,-0.0005604689943286361,0.00037725853260729534,0.0,0.0,0.0,0.0,0.0,0.0,0.0,0.0,0.0,-0.0007045272602420192,0.0032488736886914825,-0.0017488270792001262,0.0,0.0,0.0,0.0,0.0,0.0,0.0,0.0,0.0,0.010285833832134874,0.5516870280051949,9.809077575561677,0.0,0.0,0.0,0.0,0.0,0.0,0.0,0.0,0.0
2025/05/20 12:56:14.514005813,1747738573,819956480,mA1/imu,0.9985896340899229,0.05308829922372078,-0.0004765051298840842,0.0003848591272998005,0.0,0.0,0.0,0.0,0.0,0.0,0.0,0.0,0.0,-0.0014085418635180786,0.003381486012751829,-0.001699869557232517,0.0,0.0,0.0,0.0,0.0,0.0,0.0,0.0,0.0,0.012964520806578188,-0.0703398373095081,9.795941875763607,0.0,0.0,0.0,0.0,0.0,0.0,0.0,0.0,0.0
2025/05/20 12:56:15.467160716,1747738574,515771034,mA1/imu,0.9985626402795561,0.053580672055895485,-0.0004292732740606357,0.0012572765871873106,0.0,0.0,0.0,0.0,0.0,0.0,0.0,0.0,0.0,0.000787607753332745,-0.003199352949048218,-0.0011020631248186855,0.0,0.0,0.0,0.0,0.0,0.0,0.0,0.0,0.0,0.011259302098450209,0.032500800903485616,9.837686715199757,0.0,0.0,0.0,0.0,0.0,0.0,0.0,0.0,0.0
2025/05/20 12:56:15.476983746,1747738574,565612014,mA1/imu,0.9985611821759847,0.0536072768800208,-0.0005071836721025973,0.0012522306223944981,0.0,0.0,0.0,0.0,0.0,0.0,0.0,0.0,0.0,1.4420583607570809e-06,-0.00295785378391778,-0.0010251612709446581,0.0,0.0,0.0,0.0,0.0,0.0,0.0,0.0,0.0,0.004335128814971447,0.555433050013447,9.842502242240652,0.0,0.0,0.0,0.0,0.0,0.0,0.0,0.0,0.0
2025/05/20 12:56:15.486176817,1747738574,622845813,mA1/imu,0.998559881969633,0.05363134270031481,-0.0005766089472532801,0.0012283008897725134,0.0,0.0,0.0,0.0,0.0,0.0,0.0,0.0,0.0,0.0008225108436983741,-0.002569825392942388,-0.0009528219251043928,0.0,0.0,0.0,0.0,0.0,0.0,0.0,0.0,0.0,0.010675928074492507,-0.07229744950847367,9.844275867348626,0.0,0.0,0.0,0.0,0.0,0.0,0.0,0.0,0.0
2025/05/20 12:56:16.120149442,1747738575,160751901,mA1/imu,0.998549359107047,0.05384065733060983,-0.00040953488306926926,0.0004396888593453546,0.0,0.0,0.0,0.0,0.0,0.0,0.0,0.0,0.0,0.0015141952707365051,0.003109090389274717,-0.0005747130572412592,0.0,0.0,0.0,0.0,0.0,0.0,0.0,0.0,0.0,0.01548390378397994,0.3412269265757588,9.781856814085689,0.0,0.0,0.0,0.0,0.0,0.0,0.0,0.0,0.0
2025/05/20 12:56:16.128483744,1747738575,212298692,mA1/imu,0.9985483149135457,0.05386070645606317,-0.0003431130001465827,0.00041152987892558677,0.0,0.0,0.0,0.0,0.0,0.0,0.0,0.0,0.0,0.0002484544228778683,0.0024529287510154023,-0.00095763593236751,0.0,0.0,0.0,0.0,0.0,0.0,0.0,0.0,0.0,0.027171595739758844,0.5884790289037172,9.778933782036056,0.0,0.0,0.0,0.0,0.0,0.0,0.0,0.0,0.0
2025/05/20 12:56:17.80431934,1747738576,117813290,mA1/imu,0.9985238660273522,0.054305084071576026,4.5568512206286074e-05,0.0010221258630882329,0.0,0.0,0.0,0.0,0.0,0.0,0.0,0.0,0.0,-0.0002565958972426236,0.001978108428551358,0.0008642636924929042,0.0,0.0,0.0,0.0,0.0,0.0,0.0,0.0,0.0,0.015113847838549457,-0.08351489101414933,9.816496067141374,0.0,0.0,0.0,0.0,0.0,0.0,0.0,0.0,0.0
2025/05/20 12:56:17.92047308,1747738576,170096515,mA1/imu,0.9985249680793917,0.054285531092588664,7.686195207713673e-05,0.0009814928861144507,0.0,0.0,0.0,0.0,0.0,0.0,0.0,0.0,0.0,0.0016373596548697753,0.000932023901432291,0.0007263207422103455,0.0,0.0,0.0,0.0,0.0,0.0,0.0,0.0,0.0,0.013093185910342966,0.0160367272788904,9.806978642054872,0.0,0.0,0.0,0.0,0.0,0.0,0.0,0.0,0.0
2025/05/20 12:56:18.16609426,1747738577,71104621,mA1/imu,0.998528977339074,0.05421306614003455,-0.0006836626317130807,0.0005978957144880656,0.0,0.0,0.0,0.0,0.0,0.0,0.0,0.0,0.0,-0.001642853742516077,0.0024471774138994907,-0.0004823021489240965,0.0,0.0,0.0,0.0,0.0,0.0,0.0,0.0,0.0,0.013874212816110437,0.060775488310576255,9.8368821852307,0.0,0.0,0.0,0.0,0.0,0.0,0.0,0.0,0.0
2025/05/20 12:56:18.19955416,1747738577,112821823,mA1/imu,0.9985282219200715,0.05422694119549561,-0.000611843882946206,0.0006741845323077775,0.0,0.0,0.0,0.0,0.0,0.0,0.0,0.0,0.0,-0.002620253771412961,0.0028610898330750888,-0.0005835413311547167,0.0,0.0,0.0,0.0,0.0,0.0,0.0,0.0,0.0,0.012173938991555642,0.0042726384917350785,9.836448311722434,0.0,0.0,0.0,0.0,0.0,0.0,0.0,0.0,0.0
2025/05/20 12:56:18.371897198,1747738577,417782058,mA1/imu,0.9985249900198624,0.05428512623988767,-7.101952743916975e-05,0.0009820036557368918,0.0,0.0,0.0,0.0,0.0,0.0,0.0,0.0,0.0,-0.0013908933086521917,0.005643748518336081,0.0016167225785266688,0.0,0.0,0.0,0.0,0.0,0.0,0.0,0.0,0.0,-0.025319096040254525,0.3419614429772983,9.80338325535992,0.0,0.0,0.0,0.0,0.0,0.0,0.0,0.0,0.0
2025/05/20 12:56:18.375180490,1747738577,467498691,mA1/imu,0.99852752622518,0.0542381897156799,6.520157507364646e-05,0.0009969431993619214,0.0,0.0,0.0,0.0,0.0,0.0,0.0,0.0,0.0,-0.0004297325715582514,0.005318877681644895,0.002144960497130095,0.0,0.0,0.0,0.0,0.0,0.0,0.0,0.0,0.0,-0.026938780159506615,-0.09568305510579489,9.798588240824824,0.0,0.0,0.0,0.0,0.0,0.0,0.0,0.0,0.0
2025/05/20 12:56:18.386102779,1747738577,518441974,mA1/imu,0.9985311960173103,0.054170229522172576,0.00019638876626733027,0.0009991222185338018,0.0,0.0,0.0,0.0,0.0,0.0,0.0,0.0,0.0,-0.0002193121575840534,0.005110257199401038,0.0031130405507288437,0.0,0.0,0.0,0.0,0.0,0.0,0.0,0.0,0.0,-0.018660318132058477,0.3548984750668086,9.789864371242203,0.0,0.0,0.0,0.0,0.0,0.0,0.0,0.0,0.0
2025/05/20 12:56:18.396347892,1747738577,569010340,mA1/imu,0.9985356492531364,0.054087867942817384,0.00030303384359782926,0.0009838101989164698,0.0,0.0,0.0,0.0,0.0,0.0,0.0,0.0,0.0,0.0015556372426077866,0.0036076912444827822,0.003379317700283497,0.0,0.0,0.0,0.0,0.0,0.0,0.0,0.0,0.0,0.011181985317848418,-0.41765082588990693,9.786794795970636,0.0,0.0,0.0,0.0,0.0,0.0,0.0,0.0,0.0
2025/05/20 12:56:18.407483995,1747738577,620506795,mA1/imu,0.9985407537950014,0.05399348785589865,0.0003746220370952543,0.0009622567197506721,0.0,0.0,0.0,0.0,0.0,0.0,0.0,0.0,0.0,0.0015557623790574352,0.002613364777124646,0.004172773846930846,0.0,0.0,0.0,0.0,0.0,0.0,0.0,0.0,0.0,-0.027013023555246846,0.0498347516939103,9.78797308217539,0.0,0.0,0.0,0.0,0.0,0.0,0.0,0.0,0.0
2025/05/20 12:56:18.417723723,1747738577,661662321,mA1/imu,0.998546729962488,0.053883008801033035,0.0004165696130731474,0.0009359025201979773,0.0,0.0,0.0,0.0,0.0,0.0,0.0,0.0,0.0,0.002218283680843846,0.0008126629941798524,0.004393058185392244,0.0,0.0,0.0,0.0,0.0,0.0,0.0,0.0,0.0,0.029615089062417617,-0.5792308481412217,9.783417381924068,0.0,0.0,0.0,0.0,0.0,0.0,0.0,0.0,0.0
2025/05/20 12:56:19.367625253,1747738578,423074870,mA1/imu,0.9986232227057311,0.05243930399593391,-0.0011798585888473446,0.0006216131852588629,0.0,0.0,0.0,0.0,0.0,0.0,0.0,0.0,0.0,-0.0016590528706201377,0.004408125472604491,0.004069382427477304,0.0,0.0,0.0,0.0,0.0,0.0,0.0,0.0,0.0,0.015836944666163106,-0.6536088665464747,9.826553220655914,0.0,0.0,0.0,0.0,0.0,0.0,0.0,0.0,0.0
2025/05/20 12:56:19.375470101,1747738578,463413630,mA1/imu,0.9986286142135851,0.05233897024620585,-0.0010497200867297142,0.0006489646838049243,0.0,0.0,0.0,0.0,0.0,0.0,0.0,0.0,0.0,-0.0022884725523592614,0.005574535006062459,0.00397723555131467,0.0,0.0,0.0,0.0,0.0,0.0,0.0,0.0,0.0,0.019630663571526947,-0.04075766210401571,9.823905218232207,0.0,0.0,0.0,0.0,0.0,0.0,0.0,0.0,0.0
2025/05/20 12:56:19.386278434,1747738578,519130965,mA1/imu,0.9986338529477313,0.05224137703509323,-0.0008963604229990018,0.000680301578782542,0.0,0.0,0.0,0.0,0.0,0.0,0.0,0.0,0.0,-0.0007350610195951922,0.006364496356193168,0.0038882453629662216,0.0,0.0,0.0,0.0,0.0,0.0,0.0,0.0,0.0,0.01848981933067559,0.013438145252651924,9.816084618948862,0.0,0.0,0.0,0.0,0.0,0.0,0.0,0.0,0.0
2025/05/20 12:56:19.398068006,1747738578,569240024,mA1/imu,0.9986389746162886,0.052145324152334645,-0.0007262518884856228,0.0007321916211403548,0.0,0.0,0.0,0.0,0.0,0.0,0.0,0.0,0.0,-0.002399914339595034,0.0068370089795075075,0.003832126836154021,0.0,0.0,0.0,0.0,0.0,0.0,0.0,0.0,0.0,0.019274430803878514,-0.0201353586250223,9.808774824801421,0.0,0.0,0.0,0.0,0.0,0.0,0.0,0.0,0.0
2025/05/20 12:56:19.408569431,1747738578,620248484,mA1/imu,0.9986439906463052,0.05205060894259938,-0.0005508349366988795,0.0007814317626210456,0.0,0.0,0.0,0.0,0.0,0.0,0.0,0.0,0.0,-0.002218531541443382,0.006885776926741393,0.003779313188769783,0.0,0.0,0.0,0.0,0.0,0.0,0.0,0.0,0.0,0.02139242266313662,-0.6328723219164292,9.801958331936303,0.0,0.0,0.0,0.0,0.0,0.0,0.0,0.0,0.0
2025/05/20 12:56:19.418999444,1747738578,673207683,mA1/imu,0.9986488973185923,0.05195710652035639,-0.0003788588905100346,0.0008339258560261008,0.0,0.0,0.0,0.0,0.0,0.0,0.0,0.0,0.0,-0.003779665710637443,0.006678684026719242,0.003738766016846786,0.0,0.0,0.0,0.0,0.0,0.0,0.0,0.0,0.0,0.012267430117237228,-0.11306262671783801,9.799505899914983,0.0,0.0,0.0,0.0,0.0,0.0,0.0,0.0,0.0
2025/05/20 12:56:20.368965041,1747738579,418887570,mA1/imu,0.9987083115526205,0.050796118861799945,-0.0010056677858517537,0.0006718456640441963,0.0,0.0,0.0,0.0,0.0,0.0,0.0,0.0,0.0,0.0011147849371147282,-0.005448022272265299,0.001460767714008553,0.0,0.0,0.0,0.0,0.0,0.0,0.0,0.0,0.0,0.004745050578506653,0.5297142182096093,9.832893614030064,0.0,0.0,0.0,0.0,0.0,0.0,0.0,0.0,0.0
2025/05/20 12:56:20.379547021,1747738579,469454179,mA1/imu,0.9987100865367171,0.05075951169137583,-0.0011220229919018472,0.0006132593918736121,0.0,0.0,0.0,0.0,0.0,0.0,0.0,0.0,0.0,0.001896621322282209,-0.0038731137422917624,0.0014607897201825068,0.0,0.0,0.0,0.0,0.0,0.0,0.0,0.0,0.0,0.003764888208676438,-0.03035481271808575,9.833839311434255,0.0,0.0,0.0,0.0,0.0,0.0,0.0,0.0,0.0
2025/05/20 12:56:20.389458859,1747738579,511934196,mA1/imu,0.9987118962017675,0.0507229159086015,-0.0011955506363496397,0.0005521281326167897,0.0,0.0,0.0,0.0,0.0,0.0,0.0,0.0,0.0,0.0013508179622779887,-0.0020753038233001044,0.0014613258861023092,0.0,0.0,0.0,0.0,0.0,0.0,0.0,0.0,0.0,0.0038256429939386404,0.5746421429889088,9.833772981912519,0.0,0.0,0.0,0.0,0.0,0.0,0.0,0.0,0.0
2025/05/20 12:56:20.401394650,1747738579,562400816,mA1/imu,0.9987137455080777,0.0506863455619913,-0.0012219471419290123,0.0005057192695341554,0.0,0.0,0.0,0.0,0.0,0.0,0.0,0.0,0.0,0.002314580545376766,-0.00020745167835686703,0.0014618427820054665,0.0,0.0,0.0,0.0,0.0,0.0,0.0,0.0,0.0,0.0037716103049967274,0.03888859565524281,9.829228964533494,0.0,0.0,0.0,0.0,0.0,0.0,0.0,0.0,0.0
2025/05/20 12:56:20.412999902,1747738579,614274396,mA1/imu,0.9987156422696125,0.05064981478394772,-0.001200757475086864,0.0004693930475059149,0.0,0.0,0.0,0.0,0.0,0.0,0.0,0.0,0.0,0.002024919614969343,0.0016495174621629254,0.001461715134682149,0.0,0.0,0.0,0.0,0.0,0.0,0.0,0.0,0.0,0.0050612333509847535,-0.5826206781808426,9.825202384267147,0.0,0.0,0.0,0.0,0.0,0.0,0.0,0.0,0.0
2025/05/20 12:56:21.262935509,1747738580,313855550,mA1/imu,0.9987373504643502,0.05022789450842741,0.00022239734279183598,0.00090218630115369,0.0,0.0,0.0,0.0,0.0,0.0,0.0,0.0,0.0,-0.002050149076442905,-0.00308965584619132,0.0010897923037290255,0.0,0.0,0.0,0.0,0.0,0.0,0.0,0.0,0.0,0.014696823405020563,-0.012406925072052065,9.805219973172298,0.0,0.0,0.0,0.0,0.0,0.0,0.0,0.0,0.0
2025/05/20 12:56:21.271181145,1747738580,368381121,mA1/imu,0.9987390247038892,0.050194190202562085,0.0001376321726447333,0.000940670408997108,0.0,0.0,0.0,0.0,0.0,0.0,0.0,0.0,0.0,-0.0023033958545587603,-0.002910492286389424,0.0019793356690876213,0.0,0.0,0.0,0.0,0.0,0.0,0.0,0.0,0.0,-0.10167244007735976,0.2406952843596461,9.811539804021725,0.0,0.0,0.0,0.0,0.0,0.0,0.0,0.0,0.0
2025/05/20 12:56:21.522378306,1747738580,566840967,mA1/imu,0.9987669955074596,0.04963367394813764,0.00011965916972292731,0.0009862946290277728,0.0,0.0,0.0,0.0,0.0,0.0,0.0,0.0,0.0,0.0010571242675740148,0.00021494809249087633,0.007673774876299629,0.0,0.0,0.0,0.0,0.0,0.0,0.0,0.0,0.0,0.03423085721222963,0.039873692991638995,9.829754217323684,0.0,0.0,0.0,0.0,0.0,0.0,0.0,0.0,0.0
2025/05/20 12:56:21.530253293,1747738580,617934106,mA1/imu,0.9987778337431658,0.049415295133633345,0.00014024996545628364,0.0009735297182172589,0.0,0.0,0.0,0.0,0.0,0.0,0.0,0.0,0.0,-0.00030901128901528494,0.0008495293631134139,0.009248609387457954,0.0,0.0,0.0,0.0,0.0,0.0,0.0,0.0,0.0,-0.00904747103399712,-0.03104443939413772,9.833192360823501,0.0,0.0,0.0,0.0,0.0,0.0,0.0,0.0,0.0
2025/05/20 12:56:21.543761356,1747738580,670691184,mA1/imu,0.9987895171993146,0.04917920009575076,0.0001356939534784032,0.0009424424931825245,0.0,0.0,0.0,0.0,0.0,0.0,0.0,0.0,0.0,0.001593218057559513,-0.0008538963847759604,0.009529147913130549,0.0,0.0,0.0,0.0,0.0,0.0,0.0,0.0,0.0,0.02360633435229888,0.035038501968518626,9.830710440529366,0.0,0.0,0.0,0.0,0.0,0.0,0.0,0.0,0.0
2025/05/20 12:56:21.554458281,1747738580,715548964,mA1/imu,0.9988013468497691,0.048938802997936355,8.668543109687749e-05,0.000924974514484209,0.0,0.0,0.0,0.0,0.0,0.0,0.0,0.0,0.0,0.0016508142397265854,-0.002725066207671587,0.009645555182962725,0.0,0.0,0.0,0.0,0.0,0.0,0.0,0.0,0.0,0.03478926665594942,-0.21346684979996136,9.831543856538563,0.0,0.0,0.0,0.0,0.0,0.0,0.0,0.0,0.0
2025/05/20 12:56:21.562731695,1747738580,763745052,mA1/imu,0.9988131998753071,0.048697033775593174,-9.847166418067968e-06,0.0008891340404985565,0.0,0.0,0.0,0.0,0.0,0.0,0.0,0.0,0.0,0.0007540511980948317,-0.004454363564967845,0.009712168402899233,0.0,0.0,0.0,0.0,0.0,0.0,0.0,0.0,0.0,0.032194735667105276,-0.050970278288967635,9.82812203061449,0.0,0.0,0.0,0.0,0.0,0.0,0.0,0.0,0.0
2025/05/20 12:56:22.525421976,1747738581,563305416,mA1/imu,0.9989838979369672,0.04505254620987491,-0.0008155454492845841,0.0008801297009454664,0.0,0.0,0.0,0.0,0.0,0.0,0.0,0.0,0.0,-0.0019557962479460718,0.008454700426987372,0.007495160049966792,0.0,0.0,0.0,0.0,0.0,0.0,0.0,0.0,0.0,0.013282401827769744,0.5980744367811266,9.808285487616855,0.0,0.0,0.0,0.0,0.0,0.0,0.0,0.0,0.0
2025/05/20 12:56:22.525855055,1747738581,614957682,mA1/imu,0.998992223259741,0.04487027481600211,-0.0005952669154745044,0.0009175847621115252,0.0,0.0,0.0,0.0,0.0,0.0,0.0,0.0,0.0,-0.0011864248720461872,0.008849081935469755,0.00717100185235837,0.0,0.0,0.0,0.0,0.0,0.0,0.0,0.0,0.0,0.01287734399234934,-0.17734661487230716,9.813415232942601,0.0,0.0,0.0,0.0,0.0,0.0,0.0,0.0,0.0
2025/05/20 12:56:22.535103982,1747738581,665158129,mA1/imu,0.9990002183525337,0.0446935764567725,-0.00036807120631033056,0.0009552374991333077,0.0,0.0,0.0,0.0,0.0,0.0,0.0,0.0,0.0,-0.0011106951052852459,0.008925471194681938,0.006955221927613891,0.0,0.0,0.0,0.0,0.0,0.0,0.0,0.0,0.0,0.020493547683562624,-0.6134748973548263,9.821092217145493,0.0,0.0,0.0,0.0,0.0,0.0,0.0,0.0,0.0
2025/05/20 12:56:22.545281521,1747738581,718940880,mA1/imu,0.9990077257609062,0.04452605227413277,-0.0001501678340205666,0.0009858947839509497,0.0,0.0,0.0,0.0,0.0,0.0,0.0,0.0,0.0,-0.0010452647276502796,0.008358329990353252,0.006544010061289449,0.0,0.0,0.0,0.0,0.0,0.0,0.0,0.0,0.0,0.020182299796544328,-0.6177776475872824,9.826616009264539,0.0,0.0,0.0,0.0,0.0,0.0,0.0,0.0,0.0
2025/05/20 12:56:22.565800005,1747738581,767986585,mA1/imu,0.9990146538470995,0.04436996724749018,4.5621471083841826e-05,0.001012582785683693,0.0,0.0,0.0,0.0,0.0,0.0,0.0,0.0,0.0,-0.0025913198505355746,0.007330559412801269,0.0060607181049643485,0.0,0.0,0.0,0.0,0.0,0.0,0.0,0.0,0.0,0.020169280319902186,0.5239953364349117,9.827531734074055,0.0,0.0,0.0,0.0,0.0,0.0,0.0,0.0,0.0
2025/05/20 12:56:23.520470344,1747738582,564438613,mA1/imu,0.9990911348421363,0.04262120541624749,-0.0003429179906030687,0.00046854665694398827,0.0,0.0,0.0,0.0,0.0,0.0,0.0,0.0,0.0,0.0008579903581596322,-0.00037113043424237855,0.006344830984587696,0.0,0.0,0.0,0.0,0.0,0.0,0.0,0.0,0.0,0.003367309365724361,0.5883427943495955,9.794739797444368,0.0,0.0,0.0,0.0,0.0,0.0,0.0,0.0,0.0
2025/05/20 12:56:23.531632222,1747738582,613687452,mA1/imu,0.9990979233418775,0.04246192147404149,-0.0003569456717736215,0.00044428421901461604,0.0,0.0,0.0,0.0,0.0,0.0,0.0,0.0,0.0,-0.0005689690547340121,-0.0006127913957948691,0.006393790192588602,0.0,0.0,0.0,0.0,0.0,0.0,0.0,0.0,0.0,0.011686767434058437,0.5250815280461104,9.79584890047146,0.0,0.0,0.0,0.0,0.0,0.0,0.0,0.0,0.0
2025/05/20 12:56:23.543655209,1747738582,666734414,mA1/imu,0.9991047638155766,0.042300657154225256,-0.00037590563616418286,0.0004289758668348516,0.0,0.0,0.0,0.0,0.0,0.0,0.0,0.0,0.0,0.000484845318013998,-0.0007918491837447093,0.00652565288556608,0.0,0.0,0.0,0.0,0.0,0.0,0.0,0.0,0.0,0.008453282551949205,-0.615524280144027,9.797841236806478,0.0,0.0,0.0,0.0,0.0,0.0,0.0,0.0,0.0
2025/05/20 12:56:23.554339656,1747738582,721904364,mA1/imu,0.9991117735974799,0.04213462209955746,-0.0003979671124293992,0.00042320397308471093,0.0,0.0,0.0,0.0,0.0,0.0,0.0,0.0,0.0,0.0012861600807399897,-0.0009374030445903735,0.006730829420601462,0.0,0.0,0.0,0.0,0.0,0.0,0.0,0.0,0.0,0.01018163562678664,-0.5188061101399968,9.80315993060674,0.0,0.0,0.0,0.0,0.0,0.0,0.0,0.0,0.0
2025/05/20 12:56:24.370612200,1747738583,414151895,mA1/imu,0.9992135390447584,0.03962529817960347,-0.0008843295938688167,0.0011649442029663332,0.0,0.0,0.0,0.0,0.0,0.0,0.0,0.0,0.0,0.0006290421059382985,0.0005583600645436152,0.006986412819673494,0.0,0.0,0.0,0.0,0.0,0.0,0.0,0.0,0.0,0.021726763892841765,0.05197209458590249,9.805833273538784,0.0,0.0,0.0,0.0,0.0,0.0,0.0,0.0,0.0
2025/05/20 12:56:24.380020495,1747738583,467399695,mA1/imu,0.9992204879285674,0.03945027614528261,-0.0008619116292814562,0.0011616041494277166,0.0,0.0,0.0,0.0,0.0,0.0,0.0,0.0,0.0,-0.00032599510970795153,0.0011015214473708262,0.007025105855563861,0.0,0.0,0.0,0.0,0.0,0.0,0.0,0.0,0.0,0.02493722366563218,0.5713697067810518,9.802652903246988,0.0,0.0,0.0,0.0,0.0,0.0,0.0,0.0,0.0
2025/05/20 12:56:24.389843626,1747738583,518615481,mA1/imu,0.9992274988957688,0.03927360428660146,-0.0008292904959965128,0.0011409356331699677,0.0,0.0,0.0,0.0,0.0,0.0,0.0,0.0,0.0,0.0004410919215506509,0.00147541091968636,0.007106561586487994,0.0,0.0,0.0,0.0,0.0,0.0,0.0,0.0,0.0,0.026713409094865477,-0.051351774480656184,9.796433011790764,0.0,0.0,0.0,0.0,0.0,0.0,0.0,0.0,0.0
2025/05/20 12:56:24.971400013,1747738584,21090895,mA1/imu,0.9992907280813275,0.03765045372290775,-0.0004908759972010932,0.0004930982710291563,0.0,0.0,0.0,0.0,0.0,0.0,0.0,0.0,0.0,0.0007877763509763629,0.00020597831640307938,0.005845913925560174,0.0,0.0,0.0,0.0,0.0,0.0,0.0,0.0,0.0,0.022328446699586117,0.49664113739427856,9.81531059703262,0.0,0.0,0.0,0.0,0.0,0.0,0.0,0.0,0.0
2025/05/20 12:56:24.974231532,1747738584,61133992,mA1/imu,0.9992962245748024,0.03750487451230242,-0.0004914060716034831,0.00044548673986817664,0.0,0.0,0.0,0.0,0.0,0.0,0.0,0.0,0.0,0.0027100637016322384,-6.802351005248832e-05,0.005812422623326026,0.0,0.0,0.0,0.0,0.0,0.0,0.0,0.0,0.0,0.02213662103434284,-0.538038297369015,9.816692326636193,0.0,0.0,0.0,0.0,0.0,0.0,0.0,0.0,0.0
2025/05/20 12:56:24.982581833,1747738584,113031823,mA1/imu,0.9993016504477991,0.037360252827232224,-0.0004975535617625676,0.00041876179747628946,0.0,0.0,0.0,0.0,0.0,0.0,0.0,0.0,0.0,0.0006957203046412284,-0.0003058741449042712,0.005772356182476705,0.0,0.0,0.0,0.0,0.0,0.0,0.0,0.0,0.0,0.021671772336737623,0.35695633371503505,9.823875674825954,0.0,0.0,0.0,0.0,0.0,0.0,0.0,0.0,0.0
2025/05/20 12:56:24.993585611,1747738584,163180050,mA1/imu,0.9993070006519558,0.03721683632469093,-0.0005093172597992043,0.00040760017389753866,0.0,0.0,0.0,0.0,0.0,0.0,0.0,0.0,0.0,0.00031060564320101284,-0.0005733004906595979,0.005705915431583154,0.0,0.0,0.0,0.0,0.0,0.0,0.0,0.0,0.0,0.024699944367414906,0.007290873796781702,9.82673495043408,0.0,0.0,0.0,0.0,0.0,0.0,0.0,0.0,0.0
2025/05/20 12:56:25.2912877,1747738584,214113714,mA1/imu,0.9993122430329042,0.037075520924585464,-0.0005275529297802354,0.00041031770959166114,0.0,0.0,0.0,0.0,0.0,0.0,0.0,0.0,0.0,-0.00033381346949206726,-0.0008106697068472423,0.005638392190712064,0.0,0.0,0.0,0.0,0.0,0.0,0.0,0.0,0.0,0.021045832063925837,0.0039005257260541736,9.82732538374835,0.0,0.0,0.0,0.0,0.0,0.0,0.0,0.0,0.0
2025/05/20 12:56:25.922879329,1747738584,969124011,mA1/imu,0.9993560785625449,0.03586409262593262,-0.0002453248518225816,0.0010653243299858562,0.0,0.0,0.0,0.0,0.0,0.0,0.0,0.0,0.0,0.0015703554236437976,0.0035405229273811163,0.0006538484265311877,0.0,0.0,0.0,0.0,0.0,0.0,0.0,0.0,0.0,0.002801018528706473,0.02704037413611714,9.794412117330944,0.0,0.0,0.0,0.0,0.0,0.0,0.0,0.0,0.0
2025/05/20 12:56:25.927817579,1747738585,20217610,mA1/imu,0.9993566130203331,0.03585111467301792,-0.00016045976733130354,0.0010157961868960531,0.0,0.0,0.0,0.0,0.0,0.0,0.0,0.0,0.0,0.002247701614382985,0.0034116855684727743,0.00044999455770731284,0.0,0.0,0.0,0.0,0.0,0.0,0.0,0.0,0.0,0.00048403013725930796,0.6498062112857473,9.79723844017234,0.0,0.0,0.0,0.0,0.0,0.0,0.0,0.0,0.0
2025/05/20 12:56:25.936642571,1747738585,61150081,mA1/imu,0.9993569832306876,0.03584276250338581,-8.133229857757403e-05,0.0009538496957650807,0.0,0.0,0.0,0.0,0.0,0.0,0.0,0.0,0.0,0.0019949490252356714,0.0031014107683899938,0.0002475334775970941,0.0,0.0,0.0,0.0,0.0,0.0,0.0,0.0,0.0,0.004401834173123013,0.5880382665759457,9.799202233598667,0.0,0.0,0.0,0.0,0.0,0.0,0.0,0.0,0.0
2025/05/20 12:56:25.947120329,1747738585,114423464,mA1/imu,0.9993571736218918,0.03583962820686253,-1.4478393495209899e-05,0.0008719924509234471,0.0,0.0,0.0,0.0,0.0,0.0,0.0,0.0,0.0,0.0048550865992495,0.0025806939690498393,5.857889982623896e-05,0.0,0.0,0.0,0.0,0.0,0.0,0.0,0.0,0.0,0.001864135432761562,-0.5127193008849525,9.803978355380053,0.0,0.0,0.0,0.0,0.0,0.0,0.0,0.0,0.0
2025/05/20 12:56:25.956428087,1747738585,166504737,mA1/imu,0.999357216380477,0.03584036646797058,3.838191662638778e-05,0.0007878620022566272,0.0,0.0,0.0,0.0,0.0,0.0,0.0,0.0,0.0,0.003831239013454848,0.0019984716786007888,-6.089429850682711e-05,0.0,0.0,0.0,0.0,0.0,0.0,0.0,0.0,0.0,-0.0018424558003813465,0.01859822527703863,9.807371008734105,0.0,0.0,0.0,0.0,0.0,0.0,0.0,0.0,0.0
2025/05/20 12:56:26.677770662,1747738585,718101906,mA1/imu,0.9993467982748707,0.036135530270444395,-0.00035439112369075633,0.0002731973095302679,0.0,0.0,0.0,0.0,0.0,0.0,0.0,0.0,0.0,-0.0028680245847200617,-0.0009725960400955711,-0.0019075159288760883,0.0,0.0,0.0,0.0,0.0,0.0,0.0,0.0,0.0,-0.01577282069867783,0.569337372210653,9.815487853171254,0.0,0.0,0.0,0.0,0.0,0.0,0.0,0.0,0.0
2025/05/20 12:56:26.677859590,1747738585,769048219,mA1/imu,0.9993449628455261,0.03618572119444092,-0.0003636833653453075,0.0003264220001211013,0.0,0.0,0.0,0.0,0.0,0.0,0.0,0.0,0.0,-0.0027023900356678396,-0.00011824693630175163,-0.0021073776856228065,0.0,0.0,0.0,0.0,0.0,0.0,0.0,0.0,0.0,-0.013889367452335858,-0.00039760810567261197,9.812821837561728,0.0,0.0,0.0,0.0,0.0,0.0,0.0,0.0,0.0
2025/05/20 12:56:26.682966863,1747738585,819993619,mA1/imu,0.9993428582033798,0.03624322532092217,-0.00035354575011557033,0.00039418477757870656,0.0,0.0,0.0,0.0,0.0,0.0,0.0,0.0,0.0,-0.002566376317999177,0.0005969737500543871,-0.0024351307057936915,0.0,0.0,0.0,0.0,0.0,0.0,0.0,0.0,0.0,-0.013506685566130234,0.04246571344200777,9.80843194804687,0.0,0.0,0.0,0.0,0.0,0.0,0.0,0.0,0.0
2025/05/20 12:56:26.695892807,1747738585,869834128,mA1/imu,0.9993404160667776,0.03630982220197303,-0.0003255311993486567,0.00047292343915097165,0.0,0.0,0.0,0.0,0.0,0.0,0.0,0.0,0.0,-0.001828949484749909,0.001239832529318515,-0.0028298429212638174,0.0,0.0,0.0,0.0,0.0,0.0,0.0,0.0,0.0,-0.01170448748861051,-0.3418587507109756,9.802992185804122,0.0,0.0,0.0,0.0,0.0,0.0,0.0,0.0,0.0
2025/05/20 12:56:27.324511318,1747738586,366247909,mA1/imu,0.9993071996993792,0.03719665169248166,0.0006111770933934287,0.001075264811031772,0.0,0.0,0.0,0.0,0.0,0.0,0.0,0.0,0.0,3.1997842724093185e-05,0.0031279809209297303,-0.002834831545198269,0.0,0.0,0.0,0.0,0.0,0.0,0.0,0.0,0.0,-0.041925496276803725,-0.14395524567422655,9.810290402829413,0.0,0.0,0.0,0.0,0.0,0.0,0.0,0.0,0.0
2025/05/20 12:56:27.325723580,1747738586,417310666,mA1/imu,0.9993047813870243,0.03726150960565128,0.0006703165851358873,0.0010413811095723886,0.0,0.0,0.0,0.0,0.0,0.0,0.0,0.0,0.0,0.002164616719144348,0.0017339132068604954,-0.0025704734035447547,0.0,0.0,0.0,0.0,0.0,0.0,0.0,0.0,0.0,-0.0004849615046899954,-0.22134328219608346,9.81282118303198,0.0,0.0,0.0,0.0,0.0,0.0,0.0,0.0,0.0
2025/05/20 12:56:27.964025491,1747738587,11007892,mA1/imu,0.9992666125190948,0.03827159959465632,-0.0011974714080795383,0.00029636347024103476,0.0,0.0,0.0,0.0,0.0,0.0,0.0,0.0,0.0,0.0015688214107197325,-0.00480191541046426,-0.004430623665317817,0.0,0.0,0.0,0.0,0.0,0.0,0.0,0.0,0.0,0.0020909797476290175,0.0641148131382536,9.80600498978037,0.0,0.0,0.0,0.0,0.0,0.0,0.0,0.0,0.0
2025/05/20 12:56:27.973687182,1747738587,60839874,mA1/imu,0.9992621681832483,0.038384538783664046,-0.001287700846340188,0.00029706330889609975,0.0,0.0,0.0,0.0,0.0,0.0,0.0,0.0,0.0,-0.0006325007277242955,-0.0027651337038914,-0.004575934071167065,0.0,0.0,0.0,0.0,0.0,0.0,0.0,0.0,0.0,-0.000371484818421728,0.06350359312891844,9.8026511526594,0.0,0.0,0.0,0.0,0.0,0.0,0.0,0.0,0.0
2025/05/20 12:56:27.984287464,1747738587,112303389,mA1/imu,0.9992576075172815,0.03850172687857152,-0.0013253850406268022,0.0003069213259533821,0.0,0.0,0.0,0.0,0.0,0.0,0.0,0.0,0.0,0.0002821234002843089,-0.0006772155552447022,-0.00476730285922408,0.0,0.0,0.0,0.0,0.0,0.0,0.0,0.0,0.0,0.0027604230879694804,-0.5479735640920291,9.79835695669997,0.0,0.0,0.0,0.0,0.0,0.0,0.0,0.0,0.0
2025/05/20 12:56:27.996815647,1747738587,162482390,mA1/imu,0.9992529114956277,0.03862371493336479,-0.0013097585188303923,0.0003347310558333968,0.0,0.0,0.0,0.0,0.0,0.0,0.0,0.0,0.0,-0.0009661528034913726,0.0014051779426033286,-0.004959467237703873,0.0,0.0,0.0,0.0,0.0,0.0,0.0,0.0,0.0,0.004202619792769681,0.045426726456547724,9.796710793622204,0.0,0.0,0.0,0.0,0.0,0.0,0.0,0.0,0.0
2025/05/20 12:56:28.519260465,1747738587,562600687,mA1/imu,0.9992374948022963,0.03902789213546676,0.000681333645230044,0.0008879195667836928,0.0,0.0,0.0,0.0,0.0,0.0,0.0,0.0,0.0,-0.0031873545239630144,0.009351136591102826,0.0007373871575895341,0.0,0.0,0.0,0.0,0.0,0.0,0.0,0.0,0.0,0.03935166736772809,-0.011555333781559264,9.809360874573414,0.0,0.0,0.0,0.0,0.0,0.0,0.0,0.0,0.0
2025/05/20 12:56:28.528292592,1747738587,614811691,mA1/imu,0.999238167519536,0.039005541713476886,0.000866496351052019,0.0009494587466902247,0.0,0.0,0.0,0.0,0.0,0.0,0.0,0.0,0.0,-0.00444243908278904,0.005883943724261569,0.0010172228377148813,0.0,0.0,0.0,0.0,0.0,0.0,0.0,0.0,0.0,0.042654085586259965,0.4984229915453587,9.814469460534756,0.0,0.0,0.0,0.0,0.0,0.0,0.0,0.0,0.0
2025/05/20 12:56:28.532786229,1747738587,665140192,mA1/imu,0.9992391563807289,0.03897678030187439,0.0009584686034730305,0.001000145371762416,0.0,0.0,0.0,0.0,0.0,0.0,0.0,0.0,0.0,-0.0020458499072259933,0.0020357846261116657,0.001246020892117431,0.0,0.0,0.0,0.0,0.0,0.0,0.0,0.0,0.0,0.043530655376045266,-0.17277564795097014,9.81689903576727,0.0,0.0,0.0,0.0,0.0,0.0,0.0,0.0,0.0
2025/05/20 12:56:28.916160083,1747738587,962128023,mA1/imu,0.9992502597143054,0.0387023951285393,-0.00030045424576987143,0.0009761144676370345,0.0,0.0,0.0,0.0,0.0,0.0,0.0,0.0,0.0,0.0026134955229598334,-0.014793354014768199,0.002389534364853624,0.0,0.0,0.0,0.0,0.0,0.0,0.0,0.0,0.0,0.024207763917597994,0.008026919545084013,9.826744496428981,0.0,0.0,0.0,0.0,0.0,0.0,0.0,0.0,0.0
2025/05/20 12:56:28.927376742,1747738588,16874182,mA1/imu,0.9992525648966031,0.0386394980871896,-0.0006780243322496806,0.000917070409038719,0.0,0.0,0.0,0.0,0.0,0.0,0.0,0.0,0.0,0.003146699358240082,-0.015005649111484989,0.002587013425334113,0.0,0.0,0.0,0.0,0.0,0.0,0.0,0.0,0.0,0.018118838065414047,0.006697185677603194,9.823364692190523,0.0,0.0,0.0,0.0,0.0,0.0,0.0,0.0,0.0
2025/05/20 12:56:29.464927429,1747738588,518111095,mA1/imu,0.9992832281401984,0.03782188599214755,-0.0015701038636178216,0.0002639537052230442,0.0,0.0,0.0,0.0,0.0,0.0,0.0,0.0,0.0,0.00034050271023840245,0.01086240349299369,0.0032044261029481502,0.0,0.0,0.0,0.0,0.0,0.0,0.0,0.0,0.0,0.010595900843799473,-0.5555178522053134,9.793519675337802,0.0,0.0,0.0,0.0,0.0,0.0,0.0,0.0,0.0
2025/05/20 12:56:29.469569356,1747738588,567654470,mA1/imu,0.9992865867158179,0.03774441332509574,-0.0012669278166298904,0.00026789270582848874,0.0,0.0,0.0,0.0,0.0,0.0,0.0,0.0,0.0,0.0008589037901547298,0.012803558235612978,0.0030385907241459835,0.0,0.0,0.0,0.0,0.0,0.0,0.0,0.0,0.0,0.01725020783271413,-0.4933240702961629,9.793873199675955,0.0,0.0,0.0,0.0,0.0,0.0,0.0,0.0,0.0
2025/05/20 12:56:29.720337847,1747738588,769876738,mA1/imu,0.9992984085104828,0.03744910826654356,0.00012444482932452353,0.0004894404373561704,0.0,0.0,0.0,0.0,0.0,0.0,0.0,0.0,0.0,-0.004900983140016615,0.012522534803424029,0.00276852830601708,0.0,0.0,0.0,0.0,0.0,0.0,0.0,0.0,0.0,0.035598952922092274,0.5493345629774845,9.80873183180076,0.0,0.0,0.0,0.0,0.0,0.0,0.0,0.0,0.0
2025/05/20 12:56:29.730071704,1747738588,811642539,mA1/imu,0.9993007032816549,0.03738467227397298,0.0004074815767921865,0.0005697881381480774,0.0,0.0,0.0,0.0,0.0,0.0,0.0,0.0,0.0,-0.004057040788712894,0.010358133781696763,0.002554781404027942,0.0,0.0,0.0,0.0,0.0,0.0,0.0,0.0,0.0,0.024959056077396305,0.004264659687930439,9.812554061349555,0.0,0.0,0.0,0.0,0.0,0.0,0.0,0.0,0.0
2025/05/20 12:56:29.740892555,1747738588,863096703,mA1/imu,0.9993028844371755,0.0373215469221424,0.0006337971665044469,0.0006675268017225122,0.0,0.0,0.0,0.0,0.0,0.0,0.0,0.0,0.0,-0.003354739973269611,0.007849902957436265,0.002500392986931793,0.0,0.0,0.0,0.0,0.0,0.0,0.0,0.0,0.0,0.027058153827440284,-0.5574205872280928,9.815175450417494,0.0,0.0,0.0,0.0,0.0,0.0,0.0,0.0,0.0
2025/05/20 12:56:29.750779203,1747738588,914362816,mA1/imu,0.9993049998413853,0.0372601159647593,0.0007901242113553886,0.0007594432382946379,0.0,0.0,0.0,0.0,0.0,0.0,0.0,0.0,0.0,-0.002356179158325899,0.004913543099905078,0.002447490452331483,0.0,0.0,0.0,0.0,0.0,0.0,0.0,0.0,0.0,0.02568410049685267,-0.5109254353080108,9.820660427765505,0.0,0.0,0.0,0.0,0.0,0.0,0.0,0.0,0.0
2025/05/20 12:56:29.760775105,1747738588,966333425,mA1/imu,0.999307119437868,0.037199329727721796,0.0008702596341592677,0.0008564792863812047,0.0,0.0,0.0,0.0,0.0,0.0,0.0,0.0,0.0,-0.0036269732335040715,0.0017856520914506702,0.002422407980898651,0.0,0.0,0.0,0.0,0.0,0.0,0.0,0.0,0.0,0.026127050194294548,-0.02806649066675445,9.822411486180872,0.0,0.0,0.0,0.0,0.0,0.0,0.0,0.0,0.0
2025/05/20 12:56:30.619088800,1747738589,666486447,mA1/imu,0.9993336064592683,0.0364604339061544,-0.0016513311270714612,0.0005028578289424275,0.0,0.0,0.0,0.0,0.0,0.0,0.0,0.0,0.0,0.004666040057555527,0.001995227448149131,0.0015882470582584554,0.0,0.0,0.0,0.0,0.0,0.0,0.0,0.0,0.0,2.6130740771485028e-05,0.0625671336452265,9.794174783466671,0.0,0.0,0.0,0.0,0.0,0.0,0.0,0.0,0.0
2025/05/20 12:56:30.625199193,1747738589,718360396,mA1/imu,0.9993352100890407,0.03642153226214077,-0.0015620963018405166,0.0004119697980667057,0.0,0.0,0.0,0.0,0.0,0.0,0.0,0.0,0.0,0.002620731555072803,0.004795940673997349,0.001529661607743336,0.0,0.0,0.0,0.0,0.0,0.0,0.0,0.0,0.0,0.0017366746618900988,0.5787249163026734,9.792800420520912,0.0,0.0,0.0,0.0,0.0,0.0,0.0,0.0,0.0
2025/05/20 12:56:30.629769413,1747738589,768151297,mA1/imu,0.9993368266153705,0.036384302684399475,-0.0014073037398599443,0.0003301282704867998,0.0,0.0,0.0,0.0,0.0,0.0,0.0,0.0,0.0,0.002728351047126653,0.007235040807643752,0.0014486679632513548,0.0,0.0,0.0,0.0,0.0,0.0,0.0,0.0,0.0,0.005601920087776473,-0.11114879825383198,9.793875902797048,0.0,0.0,0.0,0.0,0.0,0.0,0.0,0.0,0.0
2025/05/20 12:56:30.642534562,1747738589,819081655,mA1/imu,0.9993383920720358,0.0363493897243756,-0.0011985479824670345,0.00025195292634855613,0.0,0.0,0.0,0.0,0.0,0.0,0.0,0.0,0.0,0.0011443126580205655,0.009225917637253327,0.0013713033730972815,0.0,0.0,0.0,0.0,0.0,0.0,0.0,0.0,0.0,0.0065355103651290394,0.5601357171632334,9.795670179529235,0.0,0.0,0.0,0.0,0.0,0.0,0.0,0.0,0.0
2025/05/20 12:56:30.650273115,1747738589,868930075,mA1/imu,0.9993398862904193,0.03631603653707046,-0.0009465469576911385,0.00020299789927052836,0.0,0.0,0.0,0.0,0.0,0.0,0.0,0.0,0.0,-0.00016523634836943446,0.010690045571508862,0.001311064158496788,0.0,0.0,0.0,0.0,0.0,0.0,0.0,0.0,0.0,0.007117661160140162,0.5024028775746636,9.798842487410976,0.0,0.0,0.0,0.0,0.0,0.0,0.0,0.0,0.0
2025/05/20 12:56:30.660261060,1747738589,919814858,mA1/imu,0.999341274610083,0.036284239784936986,-0.000668456080401832,0.00015482374600430014,0.0,0.0,0.0,0.0,0.0,0.0,0.0,0.0,0.0,0.00047754543585996944,0.01145720214172022,0.0012481965756934229,0.0,0.0,0.0,0.0,0.0,0.0,0.0,0.0,0.0,0.01157281328792958,0.6285293525987333,9.803817604069838,0.0,0.0,0.0,0.0,0.0,0.0,0.0,0.0,0.0
2025/05/20 12:56:31.616637489,1747738590,666822252,mA1/imu,0.9993363484500288,0.036400267280233975,-0.0008020850896978658,0.0011134936008983774,0.0,0.0,0.0,0.0,0.0,0.0,0.0,0.0,0.0,-0.0010132115231018413,-0.00858159497274485,-0.002405498782816409,0.0,0.0,0.0,0.0,0.0,0.0,0.0,0.0,0.0,0.0009834131719934323,0.6085949220202779,9.806268486812852,0.0,0.0,0.0,0.0,0.0,0.0,0.0,0.0,0.0
2025/05/20 12:56:31.619146049,1747738590,718678038,mA1/imu,0.9993338497819039,0.03646364032453304,-0.0009959710662239029,0.001125902303623109,0.0,0.0,0.0,0.0,0.0,0.0,0.0,0.0,0.0,0.0013217379623598562,-0.007139090699361269,-0.002623736297433137,0.0,0.0,0.0,0.0,0.0,0.0,0.0,0.0,0.0,-0.0042665148781219735,-0.5469995707252707,9.799252622908606,0.0,0.0,0.0,0.0,0.0,0.0,0.0,0.0,0.0
2025/05/20 12:56:31.625954524,1747738590,768488734,mA1/imu,0.9993312068521626,0.03653182423501882,-0.0011474246545410988,0.0011172493562455294,0.0,0.0,0.0,0.0,0.0,0.0,0.0,0.0,0.0,0.0023133990903082186,-0.005283478072942707,-0.002811675951652946,0.0,0.0,0.0,0.0,0.0,0.0,0.0,0.0,0.0,-0.0031625649666328186,-0.5368206705465208,9.797991295331444,0.0,0.0,0.0,0.0,0.0,0.0,0.0,0.0,0.0
2025/05/20 12:56:32.114023343,1747738591,163404303,mA1/imu,0.9993056440830914,0.037252495985372655,-0.0005208151351857205,0.0004582555320055157,0.0,0.0,0.0,0.0,0.0,0.0,0.0,0.0,0.0,0.005167815973957762,0.008942874023045859,-0.00432773935168823,0.0,0.0,0.0,0.0,0.0,0.0,0.0,0.0,0.0,0.008319476710946853,-0.48275289346796385,9.805912812792839,0.0,0.0,0.0,0.0,0.0,0.0,0.0,0.0,0.0
2025/05/20 12:56:32.117844237,1747738591,214408913,mA1/imu,0.9993016128196354,0.037363820743488055,-0.0002982267673388384,0.00037759279536239357,0.0,0.0,0.0,0.0,0.0,0.0,0.0,0.0,0.0,0.003990771293714527,0.00899431607148686,-0.0045204374670840125,0.0,0.0,0.0,0.0,0.0,0.0,0.0,0.0,0.0,0.007692333457714578,-0.21682499782725254,9.809700911072992,0.0,0.0,0.0,0.0,0.0,0.0,0.0,0.0,0.0
2025/05/20 12:56:32.268052135,1747738591,316869852,mA1/imu,0.999295078044283,0.03753997564824255,0.00019564707062385897,0.00024279008142959302,0.0,0.0,0.0,0.0,0.0,0.0,0.0,0.0,0.0,0.0008621091611866351,0.010902352129212306,-0.0022782172373492556,0.0,0.0,0.0,0.0,0.0,0.0,0.0,0.0,0.0,-0.02497167093299149,0.23755889185388698,9.820636961893117,0.0,0.0,0.0,0.0,0.0,0.0,0.0,0.0,0.0
2025/05/20 12:56:32.271509479,1747738591,366631485,mA1/imu,0.9992930514251683,0.03759198198279524,0.0004475272599768506,0.0001999583273837462,0.0,0.0,0.0,0.0,0.0,0.0,0.0,0.0,0.0,0.0007628448397391966,0.009437725013246056,-0.0019790448085275866,0.0,0.0,0.0,0.0,0.0,0.0,0.0,0.0,0.0,0.008326415658346336,0.6298494945550746,9.824150367961444,0.0,0.0,0.0,0.0,0.0,0.0,0.0,0.0,0.0
2025/05/20 12:56:32.278794871,1747738591,419307486,mA1/imu,0.9992912289585127,0.03763751805153894,0.0006500233278420586,0.0001855564028102327,0.0,0.0,0.0,0.0,0.0,0.0,0.0,0.0,0.0,0.0012743562013312463,0.0071125972401860724,-0.0017697583607468891,0.0,0.0,0.0,0.0,0.0,0.0,0.0,0.0,0.0,0.021230958155160955,-0.541191164687361,9.825116241757852,0.0,0.0,0.0,0.0,0.0,0.0,0.0,0.0,0.0
2025/05/20 12:56:32.289794805,1747738591,469545876,mA1/imu,0.9992894851099972,0.03768117171307068,0.0007859745199547283,0.0001910261250285916,0.0,0.0,0.0,0.0,0.0,0.0,0.0,0.0,0.0,-0.00048921267362984,0.004233141390385054,-0.0017416684754657872,0.0,0.0,0.0,0.0,0.0,0.0,0.0,0.0,0.0,0.025379781084454024,0.017581218228254543,9.82487871014583,0.0,0.0,0.0,0.0,0.0,0.0,0.0,0.0,0.0
2025/05/20 12:56:32.299592618,1747738591,520524824,mA1/imu,0.9992877945058679,0.03772452121972486,0.0008466301053092048,0.00021787107602201056,0.0,0.0,0.0,0.0,0.0,0.0,0.0,0.0,0.0,-0.0019302181599972698,0.001134520174212716,-0.0017315737957788984,0.0,0.0,0.0,0.0,0.0,0.0,0.0,0.0,0.0,0.024986671472557384,-0.03272646571678532,9.825231029493247,0.0,0.0,0.0,0.0,0.0,0.0,0.0,0.0,0.0
2025/05/20 12:56:32.309914672,1747738591,561125843,mA1/imu,0.9992861729245897,0.037767611801295925,0.0008293917021955565,0.00025339683903936313,0.0,0.0,0.0,0.0,0.0,0.0,0.0,0.0,0.0,-0.0022237225845666555,-0.001980011998722836,-0.0017231161231886314,0.0,0.0,0.0,0.0,0.0,0.0,0.0,0.0,0.0,0.02373713783792329,0.0011827317932074193,9.82564633612819,0.0,0.0,0.0,0.0,0.0,0.0,0.0,0.0,0.0
2025/05/20 12:56:33.262856005,1747738592,315459737,mA1/imu,0.9992617276800376,0.038383072177436396,-0.0013611752189528195,0.000941576418347243,0.0,0.0,0.0,0.0,0.0,0.0,0.0,0.0,0.0,-0.0002478844174377657,0.006786672336653936,-0.002021124519703099,0.0,0.0,0.0,0.0,0.0,0.0,0.0,0.0,0.0,0.0019390934975113301,0.5046790645292877,9.804702908137966,0.0,0.0,0.0,0.0,0.0,0.0,0.0,0.0,0.0
2025/05/20 12:56:33.270904373,1747738592,365264432,mA1/imu,0.999260089023598,0.03843362599125667,-0.0011615855725948933,0.0008840795623771944,0.0,0.0,0.0,0.0,0.0,0.0,0.0,0.0,0.0,0.001590404227504318,0.008870304222372933,-0.00201705026148043,0.0,0.0,0.0,0.0,0.0,0.0,0.0,0.0,0.0,0.0018319290408937913,-0.02348505658320959,9.805127113800987,0.0,0.0,0.0,0.0,0.0,0.0,0.0,0.0,0.0
2025/05/20 12:56:33.281904042,1747738592,416474211,mA1/imu,0.9992584581686984,0.03848413637429768,-0.0009188974500855027,0.0008128058294304165,0.0,0.0,0.0,0.0,0.0,0.0,0.0,0.0,0.0,0.0024809037041609856,0.010363491781186382,-0.002015559429195519,0.0,0.0,0.0,0.0,0.0,0.0,0.0,0.0,0.0,0.006462904107383996,0.027694227922714258,9.812118668248257,0.0,0.0,0.0,0.0,0.0,0.0,0.0,0.0,0.0
2025/05/20 12:56:33.295102813,1747738592,466294618,mA1/imu,0.999256782038255,0.03853464204795857,-0.0006481084450842516,0.0007381519022564666,0.0,0.0,0.0,0.0,0.0,0.0,0.0,0.0,0.0,0.0023301436354755474,0.011249862237948098,-0.0020160132336697334,0.0,0.0,0.0,0.0,0.0,0.0,0.0,0.0,0.0,0.007269290488856928,0.2598264421516142,9.815030375330442,0.0,0.0,0.0,0.0,0.0,0.0,0.0,0.0,0.0
2025/05/20 12:56:33.307870680,1747738592,517279062,mA1/imu,0.999255028359052,0.03858523419713172,-0.0003658407450598093,0.0006589094413796356,0.0,0.0,0.0,0.0,0.0,0.0,0.0,0.0,0.0,0.003574750199083436,0.011421251012857906,-0.002020085595342293,0.0,0.0,0.0,0.0,0.0,0.0,0.0,0.0,0.0,0.011599659986219459,-0.05973118969207314,9.81937151561392,0.0,0.0,0.0,0.0,0.0,0.0,0.0,0.0,0.0
2025/05/20 12:56:33.570811711,1747738592,618855462,mA1/imu,0.9992512397991757,0.03868684134807077,0.0001676646579270827,0.0005098577074562727,0.0,0.0,0.0,0.0,0.0,0.0,0.0,0.0,0.0,0.0024780350128388745,0.009848550255120688,-0.0020352505149683875,0.0,0.0,0.0,0.0,0.0,0.0,0.0,0.0,0.0,0.016578149418023644,-0.1882604952572193,9.82415849245818,0.0,0.0,0.0,0.0,0.0,0.0,0.0,0.0,0.0
2025/05/20 12:56:33.580832317,1747738592,662144957,mA1/imu,0.9992492278739354,0.03873798938206592,0.00038779154918345144,0.0004454095789833157,0.0,0.0,0.0,0.0,0.0,0.0,0.0,0.0,0.0,0.0016424722590629977,0.00819354881977382,-0.0020479210568326474,0.0,0.0,0.0,0.0,0.0,0.0,0.0,0.0,0.0,0.016885028937616384,-0.14788813714613405,9.82506356606587,0.0,0.0,0.0,0.0,0.0,0.0,0.0,0.0,0.0
2025/05/20 12:56:33.592602589,1747738592,712973576,mA1/imu,0.999247177505922,0.03878947338025567,0.000558565338156755,0.00037816146562867886,0.0,0.0,0.0,0.0,0.0,0.0,0.0,0.0,0.0,0.0019301747225829809,0.006046265893106001,-0.0020628948217067487,0.0,0.0,0.0,0.0,0.0,0.0,0.0,0.0,0.0,0.018843518652757952,0.005973422109494132,9.825252374620614,0.0,0.0,0.0,0.0,0.0,0.0,0.0,0.0,0.0
2025/05/20 12:56:34.170507368,1747738593,212024914,mA1/imu,0.9992261606085214,0.039323241382802625,-0.0006963975412193681,0.0005269470255620446,0.0,0.0,0.0,0.0,0.0,0.0,0.0,0.0,0.0,-0.002206479132260913,-0.009930965386581782,-0.002182888674463568,0.0,0.0,0.0,0.0,0.0,0.0,0.0,0.0,0.0,0.002017812474904403,0.44246110268319416,9.796918034574407,0.0,0.0,0.0,0.0,0.0,0.0,0.0,0.0,0.0
2025/05/20 12:56:34.174475068,1747738593,261696357,mA1/imu,0.9992236444174397,0.03938106062457895,-0.0009318269105290209,0.0006100818156072309,0.0,0.0,0.0,0.0,0.0,0.0,0.0,0.0,0.0,-0.0018537358763834775,-0.009599830550986645,-0.0026491612452278243,0.0,0.0,0.0,0.0,0.0,0.0,0.0,0.0,0.0,0.058624099306230776,-0.5809793334995016,9.791530670890342,0.0,0.0,0.0,0.0,0.0,0.0,0.0,0.0,0.0
2025/05/20 12:56:34.181953293,1747738593,314929042,mA1/imu,0.9992202239615653,0.039460412708341656,-0.0011601094754310633,0.0006884773719795425,0.0,0.0,0.0,0.0,0.0,0.0,0.0,0.0,0.0,-0.003520420300413075,-0.00871655046704997,-0.003360305904927627,0.0,0.0,0.0,0.0,0.0,0.0,0.0,0.0,0.0,0.008116513196802563,0.5927314569481641,9.79649756681747,0.0,0.0,0.0,0.0,0.0,0.0,0.0,0.0,0.0
2025/05/20 12:56:34.189826200,1747738593,365367144,mA1/imu,0.9992165228746267,0.03954668186435339,-0.0013421286536125791,0.0007739887189937973,0.0,0.0,0.0,0.0,0.0,0.0,0.0,0.0,0.0,-0.004669270199894138,-0.006440133108769925,-0.003508281278112048,0.0,0.0,0.0,0.0,0.0,0.0,0.0,0.0,0.0,-0.004133813869864909,0.36915429617311635,9.796124309459517,0.0,0.0,0.0,0.0,0.0,0.0,0.0,0.0,0.0
2025/05/20 12:56:34.200203805,1747738593,418623704,mA1/imu,0.9992126917466119,0.03963773634169174,-0.0014631058090222731,0.0008401378389196113,0.0,0.0,0.0,0.0,0.0,0.0,0.0,0.0,0.0,-0.0031335493246625896,-0.0038417046520388782,-0.0037354221518407275,0.0,0.0,0.0,0.0,0.0,0.0,0.0,0.0,0.0,-0.006401454067777063,-0.024890299277555254,9.795580158158705,0.0,0.0,0.0,0.0,0.0,0.0,0.0,0.0,0.0
2025/05/20 12:56:34.210056810,1747738593,467370236,mA1/imu,0.9992086869351715,0.03973527438694734,-0.001514752434821291,0.0009019133801740516,0.0,0.0,0.0,0.0,0.0,0.0,0.0,0.0,0.0,-0.0016301050795221085,-0.001143396873770117,-0.004105353131744975,0.0,0.0,0.0,0.0,0.0,0.0,0.0,0.0,0.0,0.009473650581376655,0.06003586897318798,9.797107595965869,0.0,0.0,0.0,0.0,0.0,0.0,0.0,0.0,0.0
2025/05/20 12:56:35.169433993,1747738594,217967669,mA1/imu,0.9991084194700738,0.042207506773384945,0.0007882061051586956,0.0005208139027794706,0.0,0.0,0.0,0.0,0.0,0.0,0.0,0.0,0.0,0.0028271310963799015,-0.004297220339968376,-0.00832625830437113,0.0,0.0,0.0,0.0,0.0,0.0,0.0,0.0,0.0,0.008209852817370852,0.05268289642421821,9.80967110456571,0.0,0.0,0.0,0.0,0.0,0.0,0.0,0.0,0.0
2025/05/20 12:56:35.173780880,1747738594,269670180,mA1/imu,0.9990996204895686,0.04241818671977705,0.0006429790410942685,0.00048202796486064965,0.0,0.0,0.0,0.0,0.0,0.0,0.0,0.0,0.0,0.0009463671608242515,-0.0066815738514523545,-0.008505486348695702,0.0,0.0,0.0,0.0,0.0,0.0,0.0,0.0,0.0,0.014547928066880378,0.5700371261759588,9.807114117300264,0.0,0.0,0.0,0.0,0.0,0.0,0.0,0.0,0.0
2025/05/20 12:56:35.182922876,1747738594,316144502,mA1/imu,0.9990905939619419,0.04263311356200203,0.0004431680322165984,0.0004541881536446504,0.0,0.0,0.0,0.0,0.0,0.0,0.0,0.0,0.0,0.000695512410566349,-0.008662045258810917,-0.008677444134243092,0.0,0.0,0.0,0.0,0.0,0.0,0.0,0.0,0.0,0.006541425191680656,-0.043833331496838907,9.801514739324842,0.0,0.0,0.0,0.0,0.0,0.0,0.0,0.0,0.0
2025/05/20 12:56:35.190736373,1747738594,367874536,mA1/imu,0.9990812939850647,0.04285247464372547,0.00020303241818149414,0.0004384106233707951,0.0,0.0,0.0,0.0,0.0,0.0,0.0,0.0,0.0,0.0014366351509690278,-0.010139490558289107,-0.008865113922249332,0.0,0.0,0.0,0.0,0.0,0.0,0.0,0.0,0.0,0.011432355733198804,-0.3841300578466944,9.79899392059015,0.0,0.0,0.0,0.0,0.0,0.0,0.0,0.0,0.0
2025/05/20 12:56:35.200888750,1747738594,418836844,mA1/imu,0.9990762397344792,0.042969393685740924,0.0002297595909739446,0.000495595423254614,0.0,0.0,0.0,0.0,0.0,0.0,0.0,0.0,0.0,-0.004153991256283649,0.008043867883472892,-0.0018370638143023524,0.0,0.0,0.0,0.0,0.0,0.0,0.0,0.0,0.0,-0.07905020462101092,0.0017013645173688165,9.789795790685286,0.0,0.0,0.0,0.0,0.0,0.0,0.0,0.0,0.0
2025/05/20 12:56:35.211248401,1747738594,468683475,mA1/imu,0.9990754824340939,0.042983960625915835,0.00045241044692384444,0.0005956952068603452,0.0,0.0,0.0,0.0,0.0,0.0,0.0,0.0,0.0,-0.004443618358594612,0.00905017177251354,0.00022562593748875963,0.0,0.0,0.0,0.0,0.0,0.0,0.0,0.0,0.0,-0.06420206442469292,-0.0073407789098226105,9.796349757209601,0.0,0.0,0.0,0.0,0.0,0.0,0.0,0.0,0.0
2025/05/20 12:56:36.170934652,1747738595,217810818,mA1/imu,0.9991654096477097,0.040780211114039976,-0.0021557958820358878,0.0009006048712218549,0.0,0.0,0.0,0.0,0.0,0.0,0.0,0.0,0.0,0.005663604558738185,-0.0070481525144499985,0.009419956179330582,0.0,0.0,0.0,0.0,0.0,0.0,0.0,0.0,0.0,0.017070527829470775,0.09808278581181476,9.82285717730941,0.0,0.0,0.0,0.0,0.0,0.0,0.0,0.0,0.0
2025/05/20 12:56:36.173221494,1747738595,270456617,mA1/imu,0.9991749936556918,0.040539652619686596,-0.002283987510141529,0.0008074773537836878,0.0,0.0,0.0,0.0,0.0,0.0,0.0,0.0,0.0,0.005901359904486819,-0.0036187054717779733,0.009755494913140294,0.0,0.0,0.0,0.0,0.0,0.0,0.0,0.0,0.0,0.022330185696451836,-0.526220210184366,9.82067463156682,0.0,0.0,0.0,0.0,0.0,0.0,0.0,0.0,0.0
2025/05/20 12:56:36.822084945,1747738595,861343280,mA1/imu,0.9992815171893765,0.03788628788200258,0.0007764838075330389,0.0006896862448779983,0.0,0.0,0.0,0.0,0.0,0.0,0.0,0.0,0.0,-0.002976574307210669,0.008840739829926326,0.007061923470522037,0.0,0.0,0.0,0.0,0.0,0.0,0.0,0.0,0.0,0.029107761167877673,0.024226466403158915,9.799779779122446,0.0,0.0,0.0,0.0,0.0,0.0,0.0,0.0,0.0
2025/05/20 12:56:36.824900021,1747738595,912106760,mA1/imu,0.9992878052028629,0.03771433688666571,0.0009517146241217094,0.0007780779643007547,0.0,0.0,0.0,0.0,0.0,0.0,0.0,0.0,0.0,-0.003022550705227966,0.005484889598711262,0.006766625539190654,0.0,0.0,0.0,0.0,0.0,0.0,0.0,0.0,0.0,0.030809286616380233,-0.5957988694469409,9.801761568938055,0.0,0.0,0.0,0.0,0.0,0.0,0.0,0.0,0.0
2025/05/20 12:56:36.836504725,1747738595,965405909,mA1/imu,0.9992938502607618,0.03754969950023405,0.0010385596991608686,0.0008615638199621576,0.0,0.0,0.0,0.0,0.0,0.0,0.0,0.0,0.0,-0.0029100042388456554,0.001870553510049277,0.006473067478029819,0.0,0.0,0.0,0.0,0.0,0.0,0.0,0.0,0.0,0.030284093807262366,-0.5990167685217535,9.805079318438898,0.0,0.0,0.0,0.0,0.0,0.0,0.0,0.0,0.0
2025/05/20 12:56:36.846363666,1747738596,16432059,mA1/imu,0.9992996925727513,0.03739208361539827,0.001034082931367808,0.0009419020091082573,0.0,0.0,0.0,0.0,0.0,0.0,0.0,0.0,0.0,-0.004345762053215316,-0.0017471644338629977,0.006195151573685511,0.0,0.0,0.0,0.0,0.0,0.0,0.0,0.0,0.0,0.02795028992498546,0.5375356212686806,9.812267081949557,0.0,0.0,0.0,0.0,0.0,0.0,0.0,0.0,0.0
2025/05/20 12:56:36.856855795,1747738596,66147046,mA1/imu,0.9993053486123715,0.03724122864233445,0.0009403959404748695,0.0010133012341437052,0.0,0.0,0.0,0.0,0.0,0.0,0.0,0.0,0.0,-0.003891733568530113,-0.005201954265688234,0.005922534728865165,0.0,0.0,0.0,0.0,0.0,0.0,0.0,0.0,0.0,0.025641505925632732,0.5381920600954365,9.812905197193075,0.0,0.0,0.0,0.0,0.0,0.0,0.0,0.0,0.0
2025/05/20 12:56:36.867802459,1747738596,118431810,mA1/imu,0.9993108040900345,0.03709696210273741,0.0007645425572315757,0.0010713105783717654,0.0,0.0,0.0,0.0,0.0,0.0,0.0,0.0,0.0,-0.0015739139578537789,-0.008312573821242389,0.005662158945911421,0.0,0.0,0.0,0.0,0.0,0.0,0.0,0.0,0.0,0.022268360666927882,0.022353653941532575,9.816059740087487,0.0,0.0,0.0,0.0,0.0,0.0,0.0,0.0,0.0
2025/05/20 12:56:37.823872323,1747738596,870005641,mA1/imu,0.9993936881380068,0.03480169083081127,-0.0008929314490924562,0.0005487245724424112,0.0,0.0,0.0,0.0,0.0,0.0,0.0,0.0,0.0,0.0013729014912319249,0.009633059429489782,0.0069264205530302735,0.0,0.0,0.0,0.0,0.0,0.0,0.0,0.0,0.0,0.014819743444770678,-0.6181931533253052,9.79636178264534,0.0,0.0,0.0,0.0,0.0,0.0,0.0,0.0,0.0
2025/05/20 12:56:37.832731673,1747738596,923436210,mA1/imu,0.9993999047173426,0.03462857684955263,-0.0006441656401758424,0.0005264664939159967,0.0,0.0,0.0,0.0,0.0,0.0,0.0,0.0,0.0,-0.0009629541195557891,0.010117637334082852,0.006937639636209325,0.0,0.0,0.0,0.0,0.0,0.0,0.0,0.0,0.0,0.018658069225439597,0.5205848197827194,9.797873216939896,0.0,0.0,0.0,0.0,0.0,0.0,0.0,0.0,0.0
2025/05/20 12:56:37.845135227,1747738596,966579532,mA1/imu,0.9994060306193308,0.03445526731755238,-0.000391732816750451,0.0005167796334412837,0.0,0.0,0.0,0.0,0.0,0.0,0.0,0.0,0.0,-0.000861133609834283,0.010021067402934453,0.006942740685157278,0.0,0.0,0.0,0.0,0.0,0.0,0.0,0.0,0.0,0.018401333479286474,-0.055850616581357246,9.794839456551193,0.0,0.0,0.0,0.0,0.0,0.0,0.0,0.0,0.0
2025/05/20 12:56:37.856949976,1747738597,17491310,mA1/imu,0.9994120581059702,0.03428188555279395,-0.00015057892517628027,0.0005174565888606089,0.0,0.0,0.0,0.0,0.0,0.0,0.0,0.0,0.0,-0.001703248337514486,0.009320272944286438,0.006944808548537041,0.0,0.0,0.0,0.0,0.0,0.0,0.0,0.0,0.0,0.02227314585976482,0.5531075470911079,9.797186226094144,0.0,0.0,0.0,0.0,0.0,0.0,0.0,0.0,0.0
2025/05/20 12:56:38.814111224,1747738597,861655592,mA1/imu,0.999519297127741,0.030948387838154894,-0.0013794010968617976,0.0012121105972707638,0.0,0.0,0.0,0.0,0.0,0.0,0.0,0.0,0.0,0.0016538613309697902,-0.00300294845128335,0.00842976825999075,0.0,0.0,0.0,0.0,0.0,0.0,0.0,0.0,0.0,0.007139330259055887,0.5884096207924926,9.809608004665215,0.0,0.0,0.0,0.0,0.0,0.0,0.0,0.0,0.0
2025/05/20 12:56:38.822389198,1747738597,911977214,mA1/imu,0.999525821059327,0.030737003686355565,-0.0014232544424216506,0.0011593044705167767,0.0,0.0,0.0,0.0,0.0,0.0,0.0,0.0,0.0,0.0029633577401787597,-0.0008119265554368928,0.008470449453475264,0.0,0.0,0.0,0.0,0.0,0.0,0.0,0.0,0.0,0.005956766366424723,0.1472155965416932,9.80354010793856,0.0,0.0,0.0,0.0,0.0,0.0,0.0,0.0,0.0
2025/05/20 12:56:38.838326460,1747738597,963621607,mA1/imu,0.9995324230919704,0.03052468636422882,-0.001412145159470913,0.0010883732394027898,0.0,0.0,0.0,0.0,0.0,0.0,0.0,0.0,0.0,0.004061466578417371,0.0014025706796473004,0.008507236741640788,0.0,0.0,0.0,0.0,0.0,0.0,0.0,0.0,0.0,0.006812717410123414,0.06514567759281073,9.800726001526105,0.0,0.0,0.0,0.0,0.0,0.0,0.0,0.0,0.0
2025/05/20 12:56:39.19582007,1747738598,65891320,mA1/imu,0.9995457555232039,0.03009754857188292,-0.0012330077709550094,0.0009486186521641612,0.0,0.0,0.0,0.0,0.0,0.0,0.0,0.0,0.0,0.004337134449652211,0.005321921940377841,0.008578567291932241,0.0,0.0,0.0,0.0,0.0,0.0,0.0,0.0,0.0,0.009943314371172015,-0.5712681775614994,9.795922072425567,0.0,0.0,0.0,0.0,0.0,0.0,0.0,0.0,0.0
2025/05/20 12:56:39.20703702,1747738598,117736759,mA1/imu,0.9995524612869338,0.029882739975304946,-0.0010782126837642454,0.0008581632767754335,0.0,0.0,0.0,0.0,0.0,0.0,0.0,0.0,0.0,0.003934408088220241,0.006869999386338021,0.00861079148660911,0.0,0.0,0.0,0.0,0.0,0.0,0.0,0.0,0.0,0.011264363086823737,-0.21293662430987345,9.796011527984968,0.0,0.0,0.0,0.0,0.0,0.0,0.0,0.0,0.0
2025/05/20 12:56:39.30537909,1747738598,169398038,mA1/imu,0.9995591302245296,0.029667205006605225,-0.0008910555637251604,0.0007798409197078759,0.0,0.0,0.0,0.0,0.0,0.0,0.0,0.0,0.0,0.0021416210607844216,0.00798438424235471,0.008640003402285101,0.0,0.0,0.0,0.0,0.0,0.0,0.0,0.0,0.0,0.012333102286546854,0.5518065329347251,9.797459430958977,0.0,0.0,0.0,0.0,0.0,0.0,0.0,0.0,0.0
2025/05/20 12:56:39.40229098,1747738598,212119622,mA1/imu,0.9995657405190825,0.029451000272043094,-0.0006834579350253174,0.000708412849590551,0.0,0.0,0.0,0.0,0.0,0.0,0.0,0.0,0.0,0.001660293744227163,0.008580619030865228,0.008665962291503747,0.0,0.0,0.0,0.0,0.0,0.0,0.0,0.0,0.0,0.01598641177090784,0.033851528155021064,9.797864620316934,0.0,0.0,0.0,0.0,0.0,0.0,0.0,0.0,0.0
2025/05/20 12:56:39.52253080,1747738598,263003262,mA1/imu,0.9995722487100087,0.029235117633138206,-0.0004697042016435445,0.0006378744046474097,0.0,0.0,0.0,0.0,0.0,0.0,0.0,0.0,0.0,0.0027585897861958026,0.008469588905553306,0.008568168140791498,0.0,0.0,0.0,0.0,0.0,0.0,0.0,0.0,0.0,0.033460357283842924,-0.3769802815250176,9.798527110156952,0.0,0.0,0.0,0.0,0.0,0.0,0.0,0.0,0.0
2025/05/20 12:56:39.62228624,1747738598,313968150,mA1/imu,0.9995785102091497,0.02902400347830888,-0.00027034218001452056,0.0005797113540447072,0.0,0.0,0.0,0.0,0.0,0.0,0.0,0.0,0.0,0.00366661305306839,0.007740537552567168,0.008424700555924475,0.0,0.0,0.0,0.0,0.0,0.0,0.0,0.0,0.0,0.023169196475214343,-0.5162108828609631,9.801980793788756,0.0,0.0,0.0,0.0,0.0,0.0,0.0,0.0,0.0
2025/05/20 12:56:40.20830592,1747738599,66463810,mA1/imu,0.9996507638356551,0.02638159307971734,-0.0008581798140035562,0.001274926183880488,0.0,0.0,0.0,0.0,0.0,0.0,0.0,0.0,0.0,-0.0015710807511382671,-0.00480072159575526,0.0059749128365503765,0.0,0.0,0.0,0.0,0.0,0.0,0.0,0.0,0.0,0.005722919663666408,0.18210284307654842,9.808364401634334,0.0,0.0,0.0,0.0,0.0,0.0,0.0,0.0,0.0
2025/05/20 12:56:40.25480832,1747738599,119969416,mA1/imu,0.9996545348571453,0.026234334538697324,-0.0009599849848983002,0.0012841571884931833,0.0,0.0,0.0,0.0,0.0,0.0,0.0,0.0,0.0,0.000789644345416672,-0.0035545466371802712,0.005843490141934732,0.0,0.0,0.0,0.0,0.0,0.0,0.0,0.0,0.0,0.0021290486395841614,-0.607670680081719,9.80267938841351,0.0,0.0,0.0,0.0,0.0,0.0,0.0,0.0,0.0
2025/05/20 12:56:40.34051664,1747738599,172097690,mA1/imu,0.9996582663747489,0.02608974982629966,-0.0010263996814981226,0.00127354871386264,0.0,0.0,0.0,0.0,0.0,0.0,0.0,0.0,0.0,-0.00026847537440165644,-0.0020366943014013985,0.005740934847075031,0.0,0.0,0.0,0.0,0.0,0.0,0.0,0.0,0.0,0.0026267459666427864,0.16112392832091715,9.803048052357115,0.0,0.0,0.0,0.0,0.0,0.0,0.0,0.0,0.0
2025/05/20 12:56:40.43494380,1747738599,215978767,mA1/imu,0.9996619742406152,0.025947722081605736,-0.0010544504591886027,0.0012414146609747462,0.0,0.0,0.0,0.0,0.0,0.0,0.0,0.0,0.0,0.0013436683189943558,-0.00044853509502447897,0.005639956484514252,0.0,0.0,0.0,0.0,0.0,0.0,0.0,0.0,0.0,0.0021674588382416884,-0.03635656828150561,9.798787102400132,0.0,0.0,0.0,0.0,0.0,0.0,0.0,0.0,0.0
2025/05/20 12:56:40.54141607,1747738599,266915399,mA1/imu,0.9996656494792837,0.0258083629322325,-0.0010430034008490356,0.0011957415380087744,0.0,0.0,0.0,0.0,0.0,0.0,0.0,0.0,0.0,0.0012880894609424067,0.0010595542504283986,0.005521479819305295,0.0,0.0,0.0,0.0,0.0,0.0,0.0,0.0,0.0,0.011005688569095416,-0.023992075069823492,9.798768043168224,0.0,0.0,0.0,0.0,0.0,0.0,0.0,0.0,0.0
2025/05/20 12:56:40.66621592,1747738599,318088111,mA1/imu,0.9996692883447507,0.025671516305950045,-0.000997006775630732,0.0011371755986385762,0.0,0.0,0.0,0.0,0.0,0.0,0.0,0.0,0.0,0.0020328719459826146,0.002494575746095771,0.005479790395820705,0.0,0.0,0.0,0.0,0.0,0.0,0.0,0.0,0.0,0.003663414505538396,-0.06689380404376094,9.796360145069684,0.0,0.0,0.0,0.0,0.0,0.0,0.0,0.0,0.0
2025/05/20 12:56:41.24255110,1747738600,68819066,mA1/imu,0.9997013053866303,0.02443076578988804,7.859742680198958e-05,0.0006568969718317158,0.0,0.0,0.0,0.0,0.0,0.0,0.0,0.0,0.0,-0.0008826636916437874,-0.004385862977675122,0.0016232181225983486,0.0,0.0,0.0,0.0,0.0,0.0,0.0,0.0,0.0,0.009081048801152099,-0.14926400198869913,9.82090724722407,0.0,0.0,0.0,0.0,0.0,0.0,0.0,0.0,0.0
2025/05/20 12:56:41.25538720,1747738600,119891913,mA1/imu,0.9997021927682256,0.02439306963624844,-4.2444710326743296e-05,0.0007086088972149607,0.0,0.0,0.0,0.0,0.0,0.0,0.0,0.0,0.0,-0.002751969055198713,-0.005194006806329633,0.0014264676318634139,0.0,0.0,0.0,0.0,0.0,0.0,0.0,0.0,0.0,0.00645746909844979,0.5482651039928198,9.81739726739904,0.0,0.0,0.0,0.0,0.0,0.0,0.0,0.0,0.0
2025/05/20 12:56:41.33571010,1747738600,162169217,mA1/imu,0.9997029352483686,0.024360224158122813,-0.00017925031717620988,0.0007672053737462785,0.0,0.0,0.0,0.0,0.0,0.0,0.0,0.0,0.0,-0.0028765807729871917,-0.0057031377363664405,0.0012335977658403737,0.0,0.0,0.0,0.0,0.0,0.0,0.0,0.0,0.0,0.005478065444986993,-0.077087631033006,9.81453327144405,0.0,0.0,0.0,0.0,0.0,0.0,0.0,0.0,0.0
2025/05/20 12:56:41.43993729,1747738600,213190886,mA1/imu,0.9997035433107374,0.024332129473802346,-0.00032397431735513554,0.0008173174831168609,0.0,0.0,0.0,0.0,0.0,0.0,0.0,0.0,0.0,-0.0008278542138719038,-0.005870400207617017,0.0010451198510036267,0.0,0.0,0.0,0.0,0.0,0.0,0.0,0.0,0.0,0.0033703778815959125,-0.5493125496383389,9.810540275766288,0.0,0.0,0.0,0.0,0.0,0.0,0.0,0.0,0.0
2025/05/20 12:56:41.55013856,1747738600,263119161,mA1/imu,0.9997039915221034,0.02430949956504647,-0.0004689809853578365,0.000870415134667843,0.0,0.0,0.0,0.0,0.0,0.0,0.0,0.0,0.0,-0.0012346764066829498,-0.005889487631907483,0.0007425102418329137,0.0,0.0,0.0,0.0,0.0,0.0,0.0,0.0,0.0,0.019501416569111828,0.23058689423711828,9.810103166621111,0.0,0.0,0.0,0.0,0.0,0.0,0.0,0.0,0.0
2025/05/20 12:56:41.64833386,1747738600,313966779,mA1/imu,0.999704113884649,0.024298867998054703,-0.0006153309097069311,0.0009333080915227701,0.0,0.0,0.0,0.0,0.0,0.0,0.0,0.0,0.0,-0.002281991604925482,-0.005897645990545111,0.0001990211369331537,0.0,0.0,0.0,0.0,0.0,0.0,0.0,0.0,0.0,0.015250931510082048,0.3860664225529969,9.807030407491258,0.0,0.0,0.0,0.0,0.0,0.0,0.0,0.0,0.0
2025/05/20 12:56:42.22920982,1747738601,69852984,mA1/imu,0.9996823987208747,0.025180189175778547,0.0006700337261066514,0.0007815468993184001,0.0,0.0,0.0,0.0,0.0,0.0,0.0,0.0,0.0,0.0018837332199387392,0.005870433048692797,-0.003263958274504404,0.0,0.0,0.0,0.0,0.0,0.0,0.0,0.0,0.0,-0.05317967554419986,-0.04103267915016871,9.826568765744616,0.0,0.0,0.0,0.0,0.0,0.0,0.0,0.0,0.0
2025/05/20 12:56:42.30921841,1747738601,120772204,mA1/imu,0.9996804236321003,0.02525649237882344,0.0007950089931934876,0.0007267462855351023,0.0,0.0,0.0,0.0,0.0,0.0,0.0,0.0,0.0,0.0023523590957968705,0.004179995515729036,-0.003107068997743801,0.0,0.0,0.0,0.0,0.0,0.0,0.0,0.0,0.0,0.006197612844227101,0.011178582101156662,9.824225405362629,0.0,0.0,0.0,0.0,0.0,0.0,0.0,0.0,0.0
2025/05/20 12:56:42.46082124,1747738601,161535604,mA1/imu,0.9996783397881857,0.02533787475594302,0.0008611599548764563,0.0006837139174813569,0.0,0.0,0.0,0.0,0.0,0.0,0.0,0.0,0.0,0.003481404549165025,0.0016546968266172217,-0.0033490460426750944,0.0,0.0,0.0,0.0,0.0,0.0,0.0,0.0,0.0,0.00754288809162474,-0.5282842778792566,9.822279840889681,0.0,0.0,0.0,0.0,0.0,0.0,0.0,0.0,0.0
2025/05/20 12:56:42.57778842,1747738601,215629790,mA1/imu,0.9996761471992364,0.025424963753462624,0.0008641581436220802,0.000652050403385198,0.0,0.0,0.0,0.0,0.0,0.0,0.0,0.0,0.0,0.0020537559562452718,-0.0008832263864200794,-0.00357531640573499,0.0,0.0,0.0,0.0,0.0,0.0,0.0,0.0,0.0,0.006895708700631543,-0.4109681446673998,9.820402798344876,0.0,0.0,0.0,0.0,0.0,0.0,0.0,0.0,0.0
2025/05/20 12:56:43.16378165,1747738602,61075471,mA1/imu,0.9996525529986044,0.02632408263914757,-0.0007712116966313851,0.0011050742502971794,0.0,0.0,0.0,0.0,0.0,0.0,0.0,0.0,0.0,-0.0007080656056613665,0.005846061850279044,-0.0013457663081166784,0.0,0.0,0.0,0.0,0.0,0.0,0.0,0.0,0.0,0.001711831761492687,-0.054299594957571314,9.812565606858984,0.0,0.0,0.0,0.0,0.0,0.0,0.0,0.0,0.0
2025/05/20 12:56:43.24068865,1747738602,111618843,mA1/imu,0.9996517701261738,0.026358203181556596,-0.0006121323455410278,0.0010995010861919285,0.0,0.0,0.0,0.0,0.0,0.0,0.0,0.0,0.0,0.0002843429206971725,0.006666944733443529,-0.0013673216814942767,0.0,0.0,0.0,0.0,0.0,0.0,0.0,0.0,0.0,0.004383459715044292,-0.013735912633443658,9.815984986647777,0.0,0.0,0.0,0.0,0.0,0.0,0.0,0.0,0.0
2025/05/20 12:56:43.36767501,1747738602,163290645,mA1/imu,0.9996509632544937,0.02639280529366483,-0.0004382496079147561,0.0010860158261165277,0.0,0.0,0.0,0.0,0.0,0.0,0.0,0.0,0.0,0.0015463318245252826,0.007110408980058462,-0.0013770310516842878,0.0,0.0,0.0,0.0,0.0,0.0,0.0,0.0,0.0,0.004287960867263281,-0.5699617401801556,9.817428341122334,0.0,0.0,0.0,0.0,0.0,0.0,0.0,0.0,0.0
2025/05/20 12:56:43.47870842,1747738602,214441714,mA1/imu,0.9996501381352241,0.026427177963971527,-0.0002591385761128799,0.001066976235094184,0.0,0.0,0.0,0.0,0.0,0.0,0.0,0.0,0.0,0.0021816998495799845,0.007149761647509364,-0.0013640412646575893,0.0,0.0,0.0,0.0,0.0,0.0,0.0,0.0,0.0,0.007165503244338969,-0.5711089508627557,9.819272984890045,0.0,0.0,0.0,0.0,0.0,0.0,0.0,0.0,0.0
2025/05/20 12:56:43.59014349,1747738602,264730012,mA1/imu,0.9996493318730065,0.026459990026856443,-8.407410919576111e-05,0.0010368920746721343,0.0,0.0,0.0,0.0,0.0,0.0,0.0,0.0,0.0,0.000981216117287191,0.007010319536579938,-0.0011674773284518233,0.0,0.0,0.0,0.0,0.0,0.0,0.0,0.0,0.0,-0.012034116715728623,-0.04667440866748573,9.82112098832274,0.0,0.0,0.0,0.0,0.0,0.0,0.0,0.0,0.0
2025/05/20 12:56:44.16599022,1747738603,65362409,mA1/imu,0.9996631004487527,0.025913970770250688,-0.0012889600015837121,0.0007002158378960181,0.0,0.0,0.0,0.0,0.0,0.0,0.0,0.0,0.0,-0.0007032396783894252,-0.005332655653935422,0.002036473520816823,0.0,0.0,0.0,0.0,0.0,0.0,0.0,0.0,0.0,0.005681504873973151,0.024448997966822622,9.80174738495076,0.0,0.0,0.0,0.0,0.0,0.0,0.0,0.0,0.0
2025/05/20 12:56:44.20415566,1747738603,116568670,mA1/imu,0.9996642672069204,0.025862435034790392,-0.0013894499196779315,0.0007461585909040179,0.0,0.0,0.0,0.0,0.0,0.0,0.0,0.0,0.0,-0.002500859055012245,-0.003198427868639733,0.0020780680466946037,0.0,0.0,0.0,0.0,0.0,0.0,0.0,0.0,0.0,0.004341701755255101,0.5464955092842967,9.80357958947207,0.0,0.0,0.0,0.0,0.0,0.0,0.0,0.0,0.0
2025/05/20 12:56:44.28132518,1747738603,167123835,mA1/imu,0.9996655239363015,0.02580991681308345,-0.0014341096517273767,0.0007948438640921089,0.0,0.0,0.0,0.0,0.0,0.0,0.0,0.0,0.0,-0.00254012279850723,-0.0009123347758960878,0.0021190069453867638,0.0,0.0,0.0,0.0,0.0,0.0,0.0,0.0,0.0,0.004098716134239747,-0.07377497326870967,9.805136354290056,0.0,0.0,0.0,0.0,0.0,0.0,0.0,0.0,0.0
2025/05/20 12:56:44.36703779,1747738603,219657905,mA1/imu,0.9996668878103603,0.02575643526070486,-0.0014213585788114954,0.000836180602488742,0.0,0.0,0.0,0.0,0.0,0.0,0.0,0.0,0.0,-0.000976027642459058,0.0013810671994967298,0.002158373474563648,0.0,0.0,0.0,0.0,0.0,0.0,0.0,0.0,0.0,0.00525181516016034,-0.5941005991826955,9.809871093326452,0.0,0.0,0.0,0.0,0.0,0.0,0.0,0.0,0.0
2025/05/20 12:56:44.52103997,1747738603,268604590,mA1/imu,0.9996684328025556,0.02569897480916336,-0.0013484623292151035,0.0008768130857592974,0.0,0.0,0.0,0.0,0.0,0.0,0.0,0.0,0.0,-0.0011058115320535795,0.0041089967847656285,0.0026099438804968976,0.0,0.0,0.0,0.0,0.0,0.0,0.0,0.0,0.0,-0.037617490427677175,0.023996398156820073,9.814287665673923,0.0,0.0,0.0,0.0,0.0,0.0,0.0,0.0,0.0
2025/05/20 12:56:44.52210268,1747738603,319603639,mA1/imu,0.9996706849140404,0.025617295435270814,-0.001194318662552791,0.0009216837894537813,0.0,0.0,0.0,0.0,0.0,0.0,0.0,0.0,0.0,-0.0026033080824563325,0.0073492525923083045,0.0037152986606321685,0.0,0.0,0.0,0.0,0.0,0.0,0.0,0.0,0.0,-0.030749137311968083,0.5495861012564656,9.815407261976912,0.0,0.0,0.0,0.0,0.0,0.0,0.0,0.0,0.0
2025/05/20 12:56:44.59658077,1747738603,369431222,mA1/imu,0.9996733977229223,0.02551872887300828,-0.0009830280778809404,0.000962298088883937,0.0,0.0,0.0,0.0,0.0,0.0,0.0,0.0,0.0,-0.002392933042013976,0.008837490710073524,0.0039757418706638445,0.0,0.0,0.0,0.0,0.0,0.0,0.0,0.0,0.0,0.016763405438248693,-0.07943563843260663,9.81735384265324,0.0,0.0,0.0,0.0,0.0,0.0,0.0,0.0,0.0
2025/05/20 12:56:45.23162416,1747738604,64641008,mA1/imu,0.9997111348612099,0.02401637834042649,-0.000383528562215452,0.0008445778609077394,0.0,0.0,0.0,0.0,0.0,0.0,0.0,0.0,0.0,0.0012432911593337698,-0.008246498727973716,0.004599162870909881,0.0,0.0,0.0,0.0,0.0,0.0,0.0,0.0,0.0,0.01588410738616613,0.5493002078204579,9.798419201507148,0.0,0.0,0.0,0.0,0.0,0.0,0.0,0.0,0.0
2025/05/20 12:56:45.24797315,1747738604,116048251,mA1/imu,0.9997138458970986,0.023900519180873915,-0.0005916402945318768,0.0008009158997557148,0.0,0.0,0.0,0.0,0.0,0.0,0.0,0.0,0.0,0.0013437110931513038,-0.008235931423402284,0.004647454309531615,0.0,0.0,0.0,0.0,0.0,0.0,0.0,0.0,0.0,0.01291538204851257,-0.07132819262441645,9.798790122678371,0.0,0.0,0.0,0.0,0.0,0.0,0.0,0.0,0.0
2025/05/20 12:56:45.33457986,1747738604,168997283,mA1/imu,0.9997165378030957,0.023783435059411495,-0.0007923251051569995,0.0007513193022430786,0.0,0.0,0.0,0.0,0.0,0.0,0.0,0.0,0.0,0.0028113690301608497,-0.0077523963229666525,0.00469727656668169,0.0,0.0,0.0,0.0,0.0,0.0,0.0,0.0,0.0,0.01167031619988295,-0.5899400710056597,9.798151680149772,0.0,0.0,0.0,0.0,0.0,0.0,0.0,0.0,0.0
2025/05/20 12:56:45.45381145,1747738604,212135425,mA1/imu,0.9997192189352746,0.023665091119231842,-0.0009733064045699224,0.0007067024873169864,0.0,0.0,0.0,0.0,0.0,0.0,0.0,0.0,0.0,0.002456980554092876,-0.006778805916868372,0.004748559414085925,0.0,0.0,0.0,0.0,0.0,0.0,0.0,0.0,0.0,0.008708955581451867,0.030206450714253735,9.798566801222306,0.0,0.0,0.0,0.0,0.0,0.0,0.0,0.0,0.0
2025/05/20 12:56:45.45922438,1747738604,264082856,mA1/imu,0.9997217428714222,0.023551982329952828,-0.0011329264495329634,0.0006763402365299767,0.0,0.0,0.0,0.0,0.0,0.0,0.0,0.0,0.0,0.0005238902085935306,-0.00665716020245568,0.003910138526339329,0.0,0.0,0.0,0.0,0.0,0.0,0.0,0.0,0.0,0.11186771744336993,0.5331409686746981,9.800125061698191,0.0,0.0,0.0,0.0,0.0,0.0,0.0,0.0,0.0
2025/05/20 12:56:45.56276231,1747738604,315142177,mA1/imu,0.9997232402022556,0.02347953582307681,-0.001312679200725041,0.0006567117725420962,0.0,0.0,0.0,0.0,0.0,0.0,0.0,0.0,0.0,0.00020518123334233742,-0.00699418762406153,0.0024998627894282617,0.0,0.0,0.0,0.0,0.0,0.0,0.0,0.0,0.0,0.04444184998064668,-0.0676630529714676,9.804480103476465,0.0,0.0,0.0,0.0,0.0,0.0,0.0,0.0,0.0
2025/05/20 12:56:45.67668252,1747738604,365392709,mA1/imu,0.9997244073499797,0.023421500770835393,-0.0014607268820603576,0.0006394742759594396,0.0,0.0,0.0,0.0,0.0,0.0,0.0,0.0,0.0,0.001332275215034861,-0.005081750038906912,0.0021881399454227444,0.0,0.0,0.0,0.0,0.0,0.0,0.0,0.0,0.0,0.016588870503983298,-0.6181118541814857,9.807114815067202,0.0,0.0,0.0,0.0,0.0,0.0,0.0,0.0,0.0
2025/05/20 12:56:46.20762134,1747738605,69528797,mA1/imu,0.9997408101444375,0.0227262943263362,0.0008828307385220698,0.0010240545999949042,0.0,0.0,0.0,0.0,0.0,0.0,0.0,0.0,0.0,-0.0024153324081225953,0.002045019449924956,0.0023369205090169763,0.0,0.0,0.0,0.0,0.0,0.0,0.0,0.0,0.0,0.013312239535819191,0.36107791467681527,9.807750533159538,0.0,0.0,0.0,0.0,0.0,0.0,0.0,0.0,0.0
2025/05/20 12:56:46.30533016,1747738605,121066710,mA1/imu,0.9997421411738727,0.022667196033297282,0.0008911483047890882,0.0010272486394931155,0.0,0.0,0.0,0.0,0.0,0.0,0.0,0.0,0.0,-0.0009999962316870276,-0.0007891713170273012,0.0023828804929413127,0.0,0.0,0.0,0.0,0.0,0.0,0.0,0.0,0.0,0.01291896596993106,0.4421126701380008,9.805074157866857,0.0,0.0,0.0,0.0,0.0,0.0,0.0,0.0,0.0
2025/05/20 12:56:46.42667831,1747738605,161287430,mA1/imu,0.9997435579310258,0.02260689376200085,0.0008301535211145258,0.0010283846452939873,0.0,0.0,0.0,0.0,0.0,0.0,0.0,0.0,0.0,0.00030223028611466637,-0.003518093195507944,0.002428730132555224,0.0,0.0,0.0,0.0,0.0,0.0,0.0,0.0,0.0,0.011716024055153484,-0.01305176613160344,9.80274327219693,0.0,0.0,0.0,0.0,0.0,0.0,0.0,0.0,0.0
2025/05/20 12:56:46.52088709,1747738605,213219972,mA1/imu,0.999745050985399,0.02254537377472216,0.0007042871432109638,0.0010213379360584948,0.0,0.0,0.0,0.0,0.0,0.0,0.0,0.0,0.0,0.0008927632920907356,-0.005993700391031759,0.002475540126514697,0.0,0.0,0.0,0.0,0.0,0.0,0.0,0.0,0.0,0.009399740414677567,-0.00322798958798488,9.800329231874398,0.0,0.0,0.0,0.0,0.0,0.0,0.0,0.0,0.0
2025/05/20 12:56:46.62207269,1747738605,264206833,mA1/imu,0.9997464331913082,0.02248967963770915,0.0005120061105913325,0.0010106833297406116,0.0,0.0,0.0,0.0,0.0,0.0,0.0,0.0,0.0,-0.0010254909919836701,-0.009445947668617808,0.0015646932851502541,0.0,0.0,0.0,0.0,0.0,0.0,0.0,0.0,0.0,0.12309963667073077,0.27943107405117534,9.804874497556668,0.0,0.0,0.0,0.0,0.0,0.0,0.0,0.0,0.0
2025/05/20 12:56:47.17310591,1747738606,68121208,mA1/imu,0.9997347357903459,0.023017807071369783,0.00044518123467379895,0.0006636456137087443,0.0,0.0,0.0,0.0,0.0,0.0,0.0,0.0,0.0,-0.0005324226544437307,0.01559239561102789,-0.0014942956781478257,0.0,0.0,0.0,0.0,0.0,0.0,0.0,0.0,0.0,-0.009169498983174849,-0.5951224987586908,9.817642472351295,0.0,0.0,0.0,0.0,0.0,0.0,0.0,0.0,0.0
2025/05/20 12:56:47.23916074,1747738606,120005832,mA1/imu,0.99973363692542,0.02305466590887584,0.0008130685193020572,0.0006902892765488094,0.0,0.0,0.0,0.0,0.0,0.0,0.0,0.0,0.0,-0.0009127028363802212,0.013963449440414614,-0.0014469706047372916,0.0,0.0,0.0,0.0,0.0,0.0,0.0,0.0,0.0,-0.004096202283206672,0.02620395322938382,9.816587250335573,0.0,0.0,0.0,0.0,0.0,0.0,0.0,0.0,0.0
2025/05/20 12:56:47.34891469,1747738606,170014950,mA1/imu,0.9997324783282197,0.02309034043611773,0.0011285029858733387,0.0007310507992168223,0.0,0.0,0.0,0.0,0.0,0.0,0.0,0.0,0.0,-0.0026666421259951803,0.011559476256939073,-0.0014031456835349443,0.0,0.0,0.0,0.0,0.0,0.0,0.0,0.0,0.0,-0.0028802243773130877,0.5456458712223193,9.815219443696074,0.0,0.0,0.0,0.0,0.0,0.0,0.0,0.0,0.0
2025/05/20 12:56:47.45570300,1747738606,211046451,mA1/imu,0.9997313397012405,0.023124905904821625,0.0013730851241559978,0.0007757469290819235,0.0,0.0,0.0,0.0,0.0,0.0,0.0,0.0,0.0,-0.0026144916928486864,0.00846036477114537,-0.0013619712887440653,0.0,0.0,0.0,0.0,0.0,0.0,0.0,0.0,0.0,0.0006915974439126969,-0.07533408760035051,9.810738481428812,0.0,0.0,0.0,0.0,0.0,0.0,0.0,0.0,0.0
2025/05/20 12:56:47.57953670,1747738606,261510318,mA1/imu,0.9997302979216682,0.023158548214586832,0.0015327878244705004,0.000814630916504266,0.0,0.0,0.0,0.0,0.0,0.0,0.0,0.0,0.0,-0.000998352314096827,0.00486286522713713,-0.0013393993523304777,0.0,0.0,0.0,0.0,0.0,0.0,0.0,0.0,0.0,0.004626347012593769,-0.596600717488719,9.807583228195362,0.0,0.0,0.0,0.0,0.0,0.0,0.0,0.0,0.0
2025/05/20 12:56:48.13959080,1747738607,65132972,mA1/imu,0.9997321102795624,0.023076874672873768,-0.001634732275593742,0.0007022689602050839,0.0,0.0,0.0,0.0,0.0,0.0,0.0,0.0,0.0,0.001707433728578022,0.0048934407306135555,0.0007350635787311437,0.0,0.0,0.0,0.0,0.0,0.0,0.0,0.0,0.0,-0.016470582056244368,-0.023879225611540978,9.818716491863345,0.0,0.0,0.0,0.0,0.0,0.0,0.0,0.0,0.0
2025/05/20 12:56:48.22716804,1747738607,116687800,mA1/imu,0.9997328460254865,0.023057704191643404,-0.0014639080547822448,0.000660173006774545,0.0,0.0,0.0,0.0,0.0,0.0,0.0,0.0,0.0,0.0013968605493632248,0.008123721842732586,0.0007918189992732166,0.0,0.0,0.0,0.0,0.0,0.0,0.0,0.0,0.0,-0.01232415463100961,-0.02549542383871982,9.82220847567156,0.0,0.0,0.0,0.0,0.0,0.0,0.0,0.0,0.0
2025/05/20 12:56:48.30450018,1747738607,166293700,mA1/imu,0.9997336682840888,0.023037228000636175,-0.0012197490337971526,0.0006251700413939551,0.0,0.0,0.0,0.0,0.0,0.0,0.0,0.0,0.0,0.0010204941861173056,0.010827529211195326,0.0008446049704106446,0.0,0.0,0.0,0.0,0.0,0.0,0.0,0.0,0.0,-0.010596768619997955,-0.025476007213331674,9.821879705564617,0.0,0.0,0.0,0.0,0.0,0.0,0.0,0.0,0.0
2025/05/20 12:56:48.41842649,1747738607,217569389,mA1/imu,0.9997345058165213,0.023015549207611466,-0.0009183984104525034,0.0005990983454244954,0.0,0.0,0.0,0.0,0.0,0.0,0.0,0.0,0.0,0.0005907004323645862,0.012803197491506555,0.0008929859880709043,0.0,0.0,0.0,0.0,0.0,0.0,0.0,0.0,0.0,-0.004834172694227461,-0.02561922861427588,9.819061780128091,0.0,0.0,0.0,0.0,0.0,0.0,0.0,0.0,0.0
2025/05/20 12:56:48.60010688,1747738607,269015927,mA1/imu,0.9997353537446159,0.02299022959383263,-0.0005756934919660433,0.000583432390060592,0.0,0.0,0.0,0.0,0.0,0.0,0.0,0.0,0.0,0.00011988292443510154,0.014478723877745233,0.0013052014018100446,0.0,0.0,0.0,0.0,0.0,0.0,0.0,0.0,0.0,-0.04681267239732451,-0.01747016925350181,9.814845818095508,0.0,0.0,0.0,0.0,0.0,0.0,0.0,0.0,0.0
2025/05/20 12:56:49.18803714,1747738608,63035473,mA1/imu,0.9997729339649986,0.021225823724909176,-0.001469747369614646,0.001176758635970617,0.0,0.0,0.0,0.0,0.0,0.0,0.0,0.0,0.0,0.0007007388869422971,-0.014172227992642237,0.00521950476515485,0.0,0.0,0.0,0.0,0.0,0.0,0.0,0.0,0.0,0.0027097336666038335,-0.6533294907561751,9.81131035040395,0.0,0.0,0.0,0.0,0.0,0.0,0.0,0.0,0.0
2025/05/20 12:56:49.23115258,1747738608,114584094,mA1/imu,0.9997752375028838,0.021094329309373744,-0.0017825975994121496,0.0011515610443292503,0.0,0.0,0.0,0.0,0.0,0.0,0.0,0.0,0.0,0.0001643127746859397,-0.011278332946653596,0.005261181028668298,0.0,0.0,0.0,0.0,0.0,0.0,0.0,0.0,0.0,-0.0006566753582454704,0.5282878069394995,9.815915032248174,0.0,0.0,0.0,0.0,0.0,0.0,0.0,0.0,0.0
2025/05/20 12:56:49.33686909,1747738608,164492970,mA1/imu,0.9997776258719803,0.020961832238655574,-0.002014265843891344,0.0011149565441587659,0.0,0.0,0.0,0.0,0.0,0.0,0.0,0.0,0.0,0.0015152759146871292,-0.007797369970725829,0.005304198203099782,0.0,0.0,0.0,0.0,0.0,0.0,0.0,0.0,0.0,-0.0016338024844643959,-0.03708639000534835,9.814647351437289,0.0,0.0,0.0,0.0,0.0,0.0,0.0,0.0,0.0
2025/05/20 12:56:49.44099910,1747738608,217109671,mA1/imu,0.9997801762832356,0.020828350620011215,-0.002152355129482681,0.0010706488260039879,0.0,0.0,0.0,0.0,0.0,0.0,0.0,0.0,0.0,0.0021481242708179023,-0.003916118628195516,0.005346839052386046,0.0,0.0,0.0,0.0,0.0,0.0,0.0,0.0,0.0,-0.0016879192524741973,-0.022844592998210855,9.817207454320037,0.0,0.0,0.0,0.0,0.0,0.0,0.0,0.0,0.0
2025/05/20 12:56:49.56853533,1747738608,266916079,mA1/imu,0.9997828598114872,0.020697516249184478,-0.0021960232862361776,0.001011696597651976,0.0,0.0,0.0,0.0,0.0,0.0,0.0,0.0,0.0,0.002852221171943726,-0.0005648892323291281,0.004904987608184994,0.0,0.0,0.0,0.0,0.0,0.0,0.0,0.0,0.0,0.05386969010521187,-0.21827893091413,9.82082436180731,0.0,0.0,0.0,0.0,0.0,0.0,0.0,0.0,0.0
2025/05/20 12:56:49.69191999,1747738608,318590740,mA1/imu,0.9997852235429242,0.02058855514609939,-0.0021690429613171074,0.0009557378579337304,0.0,0.0,0.0,0.0,0.0,0.0,0.0,0.0,0.0,0.0030501589075745575,0.002453386699100583,0.0041638619128408294,0.0,0.0,0.0,0.0,0.0,0.0,0.0,0.0,0.0,0.018190966774720776,-0.6149165108513763,9.818596106080571,0.0,0.0,0.0,0.0,0.0,0.0,0.0,0.0,0.0
2025/05/20 12:56:50.17397867,1747738609,67414666,mA1/imu,0.9998079297785744,0.01957776314825323,0.0003188803892865225,0.0008444271960824344,0.0,0.0,0.0,0.0,0.0,0.0,0.0,0.0,0.0,-0.00197175156129714,-0.008579453178823896,0.00024047227087737713,0.0,0.0,0.0,0.0,0.0,0.0,0.0,0.0,0.0,0.002325366259190954,0.5972623453986554,9.801816253828571,0.0,0.0,0.0,0.0,0.0,0.0,0.0,0.0,0.0
2025/05/20 12:56:50.24406285,1747738609,118395415,mA1/imu,0.9998080683536691,0.019570912862417484,9.035571280749838e-05,0.0008931184030987724,0.0,0.0,0.0,0.0,0.0,0.0,0.0,0.0,0.0,-0.002338100469231019,-0.009496300951223106,0.0002824789569091535,0.0,0.0,0.0,0.0,0.0,0.0,0.0,0.0,0.0,-0.0016024880897141862,0.5635411640797449,9.80288907311316,0.0,0.0,0.0,0.0,0.0,0.0,0.0,0.0,0.0
2025/05/20 12:56:50.39061049,1747738609,168204444,mA1/imu,0.9998081745308655,0.019562978446744657,-0.00015302490976485793,0.000938402327215583,0.0,0.0,0.0,0.0,0.0,0.0,0.0,0.0,0.0,-0.002126019024361014,-0.009864232667602373,0.00032547811538942634,0.0,0.0,0.0,0.0,0.0,0.0,0.0,0.0,0.0,-0.0024957736980212807,0.5620326959310752,9.805750502266852,0.0,0.0,0.0,0.0,0.0,0.0,0.0,0.0,0.0
2025/05/20 12:56:50.47849852,1747738609,219537526,mA1/imu,0.9998082458055793,0.019553957069036166,-0.00039674029963543335,0.000978253161322769,0.0,0.0,0.0,0.0,0.0,0.0,0.0,0.0,0.0,-0.0007874826298542425,-0.009643877118566992,0.0003697915042688093,0.0,0.0,0.0,0.0,0.0,0.0,0.0,0.0,0.0,-0.005563686595583716,-0.5604600127306053,9.807238248921685,0.0,0.0,0.0,0.0,0.0,0.0,0.0,0.0,0.0
2025/05/20 12:56:50.59650244,1747738609,269354113,mA1/imu,0.9998082994152454,0.01954382391059087,-0.0006271301920759712,0.0010050249095922641,0.0,0.0,0.0,0.0,0.0,0.0,0.0,0.0,0.0,-0.00024223965523761717,-0.008896098301780698,0.00041470033657512476,0.0,0.0,0.0,0.0,0.0,0.0,0.0,0.0,0.0,-0.005634795294001453,-0.07569812512448171,9.810090897089621,0.0,0.0,0.0,0.0,0.0,0.0,0.0,0.0,0.0
2025/05/20 12:56:51.17372453,1747738610,65089958,mA1/imu,0.9998135004766306,0.01929649232156568,0.0004377872463920859,0.0006465222944781727,0.0,0.0,0.0,0.0,0.0,0.0,0.0,0.0,0.0,-0.00037016593189319005,0.0027440513125565765,0.0004823267953521571,0.0,0.0,0.0,0.0,0.0,0.0,0.0,0.0,0.0,0.005087551433899686,0.025826767965119683,9.801280224967547,0.0,0.0,0.0,0.0,0.0,0.0,0.0,0.0,0.0
2025/05/20 12:56:51.20598853,1747738610,116039360,mA1/imu,0.9998137179858929,0.019283812538897976,0.000481732272602053,0.0006571416953239979,0.0,0.0,0.0,0.0,0.0,0.0,0.0,0.0,0.0,-0.001433989842595096,0.0010799318233912683,0.0005252259817427465,0.0,0.0,0.0,0.0,0.0,0.0,0.0,0.0,0.0,0.006179595782979049,0.4254047001919835,9.800482213431804,0.0,0.0,0.0,0.0,0.0,0.0,0.0,0.0,0.0
2025/05/20 12:56:51.166391451,1747738610,217330417,mA1/imu,0.9998142624677974,0.019255160323196588,0.00044292579561249314,0.0006951141216636495,0.0,0.0,0.0,0.0,0.0,0.0,0.0,0.0,0.0,-0.0007180345741322753,-0.0022899243445290624,0.0006110577516132231,0.0,0.0,0.0,0.0,0.0,0.0,0.0,0.0,0.0,0.00448562230868175,-0.004130336318280527,9.800649612028076,0.0,0.0,0.0,0.0,0.0,0.0,0.0,0.0,0.0
2025/05/20 12:56:51.166459706,1747738610,267183364,mA1/imu,0.9998145791960362,0.019239178701750376,0.0003634577618451373,0.0007274121186050093,0.0,0.0,0.0,0.0,0.0,0.0,0.0,0.0,0.0,-0.002024645688768147,-0.0037775047199045514,0.0006533082543097905,0.0,0.0,0.0,0.0,0.0,0.0,0.0,0.0,0.0,0.004143591192036002,0.5493896867517695,9.802508823334799,0.0,0.0,0.0,0.0,0.0,0.0,0.0,0.0,0.0
2025/05/20 12:56:51.178279073,1747738610,318266942,mA1/imu,0.9998149127903504,0.019222115554599566,0.00025033052237091356,0.0007666617632082166,0.0,0.0,0.0,0.0,0.0,0.0,0.0,0.0,0.0,-0.0029181748702685494,-0.005025193261076427,0.0006956255478394216,0.0,0.0,0.0,0.0,0.0,0.0,0.0,0.0,0.0,0.0025921220057905535,0.4971574590021796,9.804003704306611,0.0,0.0,0.0,0.0,0.0,0.0,0.0,0.0,0.0
2025/05/20 12:56:51.189016926,1747738610,369147691,mA1/imu,0.9998152606518725,0.01920396943378561,0.00011023246210147751,0.0007999840116267822,0.0,0.0,0.0,0.0,0.0,0.0,0.0,0.0,0.0,-0.0010726314891411834,-0.005977775194833558,0.0007381485340633055,0.0,0.0,0.0,0.0,0.0,0.0,0.0,0.0,0.0,0.001363926212231091,0.0016725872852580842,9.805794726737743,0.0,0.0,0.0,0.0,0.0,0.0,0.0,0.0,0.0
2025/05/20 12:56:51.199607741,1747738610,420249898,mA1/imu,0.9998156019239176,0.019184755010228313,-4.779002732471026e-05,0.0008396670917914673,0.0,0.0,0.0,0.0,0.0,0.0,0.0,0.0,0.0,-0.0001872392075367578,-0.006553649086958031,0.0007804438935476742,0.0,0.0,0.0,0.0,0.0,0.0,0.0,0.0,0.0,-0.0012766791905727151,-0.2555382069633396,9.807841918821978,0.0,0.0,0.0,0.0,0.0,0.0,0.0,0.0,0.0
2025/05/20 12:56:51.206988933,1747738610,460463393,mA1/imu,0.9998159370953091,0.01916448081202575,-0.00021449812688927345,0.0008766960635508621,0.0,0.0,0.0,0.0,0.0,0.0,0.0,0.0,0.0,-0.00018038467951805493,-0.006742139155661294,0.0008220508746067557,0.0,0.0,0.0,0.0,0.0,0.0,0.0,0.0,0.0,-0.0012440596918033868,0.05685387704568402,9.81050593901879,0.0,0.0,0.0,0.0,0.0,0.0,0.0,0.0,0.0
2025/05/20 12:56:51.513664268,1747738610,562353887,mA1/imu,0.9998165833292304,0.019120824593298478,-0.0005333529154092663,0.000953572967272237,0.0,0.0,0.0,0.0,0.0,0.0,0.0,0.0,0.0,-0.0009881236913221701,-0.005920132380615297,0.0009053202481575447,0.0,0.0,0.0,0.0,0.0,0.0,0.0,0.0,0.0,-0.004373836642933492,-0.4540956466066661,9.814760630276744,0.0,0.0,0.0,0.0,0.0,0.0,0.0,0.0,0.0
2025/05/20 12:56:51.519252977,1747738610,613376211,mA1/imu,0.999816928563284,0.019097463178124108,-0.0006676527720051234,0.0009749349809564978,0.0,0.0,0.0,0.0,0.0,0.0,0.0,0.0,0.0,-0.0006522950724593932,-0.004990760439105159,0.0009463345294978801,0.0,0.0,0.0,0.0,0.0,0.0,0.0,0.0,0.0,-0.005515756694007374,0.2740820740408067,9.818150533414304,0.0,0.0,0.0,0.0,0.0,0.0,0.0,0.0,0.0
2025/05/20 12:56:51.530082713,1747738610,665571304,mA1/imu,0.9998172968156053,0.01907310312090834,-0.0007746255571247546,0.0009948270811406547,0.0,0.0,0.0,0.0,0.0,0.0,0.0,0.0,0.0,-0.0013750759086131156,-0.0037892759184199537,0.000986979057724725,0.0,0.0,0.0,0.0,0.0,0.0,0.0,0.0,0.0,-0.005350436662432659,0.5474008177502852,9.818286763301263,0.0,0.0,0.0,0.0,0.0,0.0,0.0,0.0,0.0
2025/05/20 12:56:51.540242047,1747738610,717349686,mA1/imu,0.9998177084244653,0.019047774544943715,-0.0008487310219377294,0.0010059132111660965,0.0,0.0,0.0,0.0,0.0,0.0,0.0,0.0,0.0,-0.0007498661832961957,-0.0023952368476074393,0.0010263206510622831,0.0,0.0,0.0,0.0,0.0,0.0,0.0,0.0,0.0,-0.005715054206721502,0.5693616016645712,9.819357316618845,0.0,0.0,0.0,0.0,0.0,0.0,0.0,0.0,0.0
2025/05/20 12:56:51.555342245,1747738610,768198895,mA1/imu,0.9998181735792443,0.019021483323573424,-0.000886417631927045,0.0010085715724941215,0.0,0.0,0.0,0.0,0.0,0.0,0.0,0.0,0.0,0.0013080920660485265,-0.0009321318618199913,0.0010668875627691482,0.0,0.0,0.0,0.0,0.0,0.0,0.0,0.0,0.0,-0.0036791822849570575,-0.5734257866470658,9.81915576701536,0.0,0.0,0.0,0.0,0.0,0.0,0.0,0.0,0.0
2025/05/20 12:56:52.212801038,1747738611,268846429,mA1/imu,0.9998246862331245,0.018707110954598465,5.60566998129101e-05,0.0007985337895036487,0.0,0.0,0.0,0.0,0.0,0.0,0.0,0.0,0.0,0.001298887002552238,0.0039042059181139885,0.001424056394509284,0.0,0.0,0.0,0.0,0.0,0.0,0.0,0.0,0.0,0.008154369311793369,0.6289653838610549,9.803148652818244,0.0,0.0,0.0,0.0,0.0,0.0,0.0,0.0,0.0
2025/05/20 12:56:52.225251883,1747738611,321664386,mA1/imu,0.9998254559885604,0.018666008657712712,0.0001461892370233418,0.0007850520775197429,0.0,0.0,0.0,0.0,0.0,0.0,0.0,0.0,0.0,0.00042893279964139366,0.0033027820510339264,0.0017563681536773817,0.0,0.0,0.0,0.0,0.0,0.0,0.0,0.0,0.0,0.010218877403092666,0.19917349833879283,9.801179298689206,0.0,0.0,0.0,0.0,0.0,0.0,0.0,0.0,0.0
2025/05/20 12:56:52.234819915,1747738611,363745054,mA1/imu,0.9998262831536798,0.01862168407140409,0.00021027810375815617,0.0007695326904260659,0.0,0.0,0.0,0.0,0.0,0.0,0.0,0.0,0.0,0.0010412825582827383,0.0020654430193115616,0.0017877894484960631,0.0,0.0,0.0,0.0,0.0,0.0,0.0,0.0,0.0,0.009885304118513207,-0.24764538608507608,9.80025609870995,0.0,0.0,0.0,0.0,0.0,0.0,0.0,0.0,0.0
2025/05/20 12:56:52.248951428,1747738611,417735568,mA1/imu,0.9998271298638551,0.01857657302957556,0.00024156286251782505,0.0007503133118225516,0.0,0.0,0.0,0.0,0.0,0.0,0.0,0.0,0.0,0.0025507974834947512,0.000717780111948663,0.0018181901892611878,0.0,0.0,0.0,0.0,0.0,0.0,0.0,0.0,0.0,0.009312306589672362,-0.5069549162707775,9.800063489464938,0.0,0.0,0.0,0.0,0.0,0.0,0.0,0.0,0.0
2025/05/20 12:56:52.260509848,1747738611,461063686,mA1/imu,0.9998279840087411,0.01853066081328425,0.00023919207646192587,0.0007481911454791562,0.0,0.0,0.0,0.0,0.0,0.0,0.0,0.0,0.0,0.0017222754527389562,-0.0006588719094906325,0.0018492496148553251,0.0,0.0,0.0,0.0,0.0,0.0,0.0,0.0,0.0,0.010241841984973124,-0.5547473848600856,9.800699597023215,0.0,0.0,0.0,0.0,0.0,0.0,0.0,0.0,0.0
2025/05/20 12:56:52.260604362,1747738611,511228999,mA1/imu,0.9998288534742371,0.018483982907482585,0.0002036211141105148,0.0007514484080891564,0.0,0.0,0.0,0.0,0.0,0.0,0.0,0.0,0.0,-3.310846688388959e-05,-0.0019399511485966297,0.001877825123751825,0.0,0.0,0.0,0.0,0.0,0.0,0.0,0.0,0.0,0.008786117042384571,-0.030996127451383002,9.803232993754253,0.0,0.0,0.0,0.0,0.0,0.0,0.0,0.0,0.0
2025/05/20 12:56:53.214489689,1747738612,262961487,mA1/imu,0.9998461128444099,0.017505744940725147,-0.0006080320448265639,0.0009642722779164658,0.0,0.0,0.0,0.0,0.0,0.0,0.0,0.0,0.0,-0.0010643841351846975,0.0025552798191056207,0.003290339641580755,0.0,0.0,0.0,0.0,0.0,0.0,0.0,0.0,0.0,0.008932215714091522,0.5421459180237191,9.809806232940222,0.0,0.0,0.0,0.0,0.0,0.0,0.0,0.0,0.0
2025/05/20 12:56:53.226294846,1747738612,314536843,mA1/imu,0.9998475860093159,0.017423396495471217,-0.000538858488315196,0.0009693489748643995,0.0,0.0,0.0,0.0,0.0,0.0,0.0,0.0,0.0,-0.0007677151912427966,0.0028791494121447863,0.003301859795341516,0.0,0.0,0.0,0.0,0.0,0.0,0.0,0.0,0.0,0.010205496127833988,-0.07802236653021746,9.807963363023486,0.0,0.0,0.0,0.0,0.0,0.0,0.0,0.0,0.0
2025/05/20 12:56:53.226876247,1747738612,363717196,mA1/imu,0.9998490637599626,0.01734077870593722,-0.0004641258072256407,0.0009652354288021345,0.0,0.0,0.0,0.0,0.0,0.0,0.0,0.0,0.0,0.0007805740482565072,0.0030318962298756776,0.003312018389474406,0.0,0.0,0.0,0.0,0.0,0.0,0.0,0.0,0.0,0.010089564825526063,-0.5614390635276549,9.805373306452234,0.0,0.0,0.0,0.0,0.0,0.0,0.0,0.0,0.0
2025/05/20 12:56:53.237083137,1747738612,415396008,mA1/imu,0.9998505371188134,0.01725791753753897,-0.0003882962054685431,0.000957565425588116,0.0,0.0,0.0,0.0,0.0,0.0,0.0,0.0,0.0,-0.00014602889514697397,0.003011697740963752,0.003321447130491719,0.0,0.0,0.0,0.0,0.0,0.0,0.0,0.0,0.0,0.011181258973299647,0.5752266569112187,9.803544296162784,0.0,0.0,0.0,0.0,0.0,0.0,0.0,0.0,0.0
2025/05/20 12:56:53.920668506,1747738612,966035444,mA1/imu,0.9998653738443893,0.016385144265998387,-0.0003756281103756298,0.0007874883648043544,0.0,0.0,0.0,0.0,0.0,0.0,0.0,0.0,0.0,0.0007050832433221129,-0.003443836688435568,0.0024536965739665553,0.0,0.0,0.0,0.0,0.0,0.0,0.0,0.0,0.0,0.005498780224776371,-0.005587599992501318,9.815254509843319,0.0,0.0,0.0,0.0,0.0,0.0,0.0,0.0,0.0
2025/05/20 12:56:53.929425406,1747738613,16672604,mA1/imu,0.9998663547631318,0.016323158600843088,-0.00045895281770321573,0.0007851549464431626,0.0,0.0,0.0,0.0,0.0,0.0,0.0,0.0,0.0,-0.0010754202474332235,-0.0032388700238863218,0.0024930151576275667,0.0,0.0,0.0,0.0,0.0,0.0,0.0,0.0,0.0,0.004227627898788768,0.2511140052673594,9.818911964617625,0.0,0.0,0.0,0.0,0.0,0.0,0.0,0.0,0.0
2025/05/20 12:56:53.935157991,1747738613,68109820,mA1/imu,0.9998673480353124,0.016260181700156504,-0.0005347423339738126,0.0007790215309268671,0.0,0.0,0.0,0.0,0.0,0.0,0.0,0.0,0.0,-0.0011829160380454216,-0.0028406111079622904,0.0025324692680052502,0.0,0.0,0.0,0.0,0.0,0.0,0.0,0.0,0.0,0.003111457558664883,0.520898772269147,9.817025574889136,0.0,0.0,0.0,0.0,0.0,0.0,0.0,0.0,0.0
2025/05/20 12:56:53.945420874,1747738613,120755410,mA1/imu,0.99986835203541,0.016196216667278947,-0.0005982009179995809,0.0007767363269032723,0.0,0.0,0.0,0.0,0.0,0.0,0.0,0.0,0.0,0.0002709052195218599,-0.002303409409382575,0.002572453659896023,0.0,0.0,0.0,0.0,0.0,0.0,0.0,0.0,0.0,0.0027653452277391303,-0.00011855237260801656,9.81756502080269,0.0,0.0,0.0,0.0,0.0,0.0,0.0,0.0,0.0
2025/05/20 12:56:53.955840056,1747738613,160473852,mA1/imu,0.9998693664858398,0.016131291132413555,-0.0006458550492586807,0.0007837607174167447,0.0,0.0,0.0,0.0,0.0,0.0,0.0,0.0,0.0,0.0011429850918221907,-0.0016513532974264495,0.0026116676361311107,0.0,0.0,0.0,0.0,0.0,0.0,0.0,0.0,0.0,0.003185872289200033,-0.3261483458996927,9.818232309821909,0.0,0.0,0.0,0.0,0.0,0.0,0.0,0.0,0.0
2025/05/20 12:56:53.966131698,1747738613,211577352,mA1/imu,0.9998703982605782,0.016065433306999822,-0.0006755040503405221,0.000795128397875302,0.0,0.0,0.0,0.0,0.0,0.0,0.0,0.0,0.0,-0.0008435740028994025,-0.0008934108730255104,0.002648842252972692,0.0,0.0,0.0,0.0,0.0,0.0,0.0,0.0,0.0,0.0029416717742658856,0.5720088531035781,9.818878021999616,0.0,0.0,0.0,0.0,0.0,0.0,0.0,0.0,0.0
2025/05/20 12:56:53.966968619,1747738613,263777960,mA1/imu,0.9998714542955673,0.015998666905143948,-0.0006861574159131073,0.0008041953282421427,0.0,0.0,0.0,0.0,0.0,0.0,0.0,0.0,0.0,-0.0009243323157002348,-0.00011364364292009598,0.0026852476262321724,0.0,0.0,0.0,0.0,0.0,0.0,0.0,0.0,0.0,0.003076975695478535,0.5744772387035353,9.818127769522935,0.0,0.0,0.0,0.0,0.0,0.0,0.0,0.0,0.0
2025/05/20 12:56:54.925300880,1747738613,969738837,mA1/imu,0.9998868785026974,0.015012524695313327,-0.00013188228786980674,0.0009148264680816126,0.0,0.0,0.0,0.0,0.0,0.0,0.0,0.0,0.0,0.0002811149676808659,-0.0015733595905693357,0.002389681749180736,0.0,0.0,0.0,0.0,0.0,0.0,0.0,0.0,0.0,0.02416572463286951,0.05447751393482761,9.805748652647788,0.0,0.0,0.0,0.0,0.0,0.0,0.0,0.0,0.0
2025/05/20 12:56:54.925559033,1747738614,20743585,mA1/imu,0.9998877336846111,0.014955396814750317,-0.000182281367442824,0.0009071420333185923,0.0,0.0,0.0,0.0,0.0,0.0,0.0,0.0,0.0,-0.0003314194181704552,-0.0021456617681221944,0.0022913625706486775,0.0,0.0,0.0,0.0,0.0,0.0,0.0,0.0,0.0,0.0033853266346004682,0.5460707458388969,9.8083863479844,0.0,0.0,0.0,0.0,0.0,0.0,0.0,0.0,0.0
2025/05/20 12:56:54.934714533,1747738614,60412574,mA1/imu,0.9998886036037435,0.014897181592464632,-0.0002388781836237263,0.0008929172247759814,0.0,0.0,0.0,0.0,0.0,0.0,0.0,0.0,0.0,0.00048317785867906644,-0.002314154357864597,0.0023501688849173175,0.0,0.0,0.0,0.0,0.0,0.0,0.0,0.0,0.0,0.002805015647222011,-0.032429454580161644,9.809407812533752,0.0,0.0,0.0,0.0,0.0,0.0,0.0,0.0,0.0
2025/05/20 12:56:54.947130822,1747738614,113425717,mA1/imu,0.9998894897037707,0.014837492690201733,-0.00029796459507965754,0.0008765886728592844,0.0,0.0,0.0,0.0,0.0,0.0,0.0,0.0,0.0,0.0010379799643528268,-0.002362636370871606,0.0024090215040929604,0.0,0.0,0.0,0.0,0.0,0.0,0.0,0.0,0.0,0.002140839923980637,-0.07691860573158785,9.812675815147712,0.0,0.0,0.0,0.0,0.0,0.0,0.0,0.0,0.0
2025/05/20 12:56:54.957229324,1747738614,164897697,mA1/imu,0.9998903898554503,0.014776356549015638,-0.0003563616067620456,0.0008605627560300769,0.0,0.0,0.0,0.0,0.0,0.0,0.0,0.0,0.0,0.000948081421106758,-0.002292028153528157,0.0024660669545730754,0.0,0.0,0.0,0.0,0.0,0.0,0.0,0.0,0.0,0.002646965215741685,0.2790266867963844,9.81467543603846,0.0,0.0,0.0,0.0,0.0,0.0,0.0,0.0,0.0
2025/05/20 12:56:55.574419771,1747738614,621852002,mA1/imu,0.9998992120530971,0.014167211073061774,-0.00048192368065401697,0.0007896933411110418,0.0,0.0,0.0,0.0,0.0,0.0,0.0,0.0,0.0,0.00013482289652453128,0.0013962947025796207,0.00291814930129368,0.0,0.0,0.0,0.0,0.0,0.0,0.0,0.0,0.0,0.0035153044564137153,-0.0008697353541866782,9.811406264377755,0.0,0.0,0.0,0.0,0.0,0.0,0.0,0.0,0.0
2025/05/20 12:56:55.582503821,1747738614,661012362,mA1/imu,0.999900260420605,0.014093661487897874,-0.0004424846762453555,0.0008013263891265535,0.0,0.0,0.0,0.0,0.0,0.0,0.0,0.0,0.0,-0.0014809740351747864,0.0016752326737636974,0.0029606264902139814,0.0,0.0,0.0,0.0,0.0,0.0,0.0,0.0,0.0,0.004198558371893674,0.5249666628374869,9.810253184946859,0.0,0.0,0.0,0.0,0.0,0.0,0.0,0.0,0.0
2025/05/20 12:56:55.593876018,1747738614,711647682,mA1/imu,0.9999013224250356,0.014019068306204117,-0.00039797720234498196,0.0008079298466551714,0.0,0.0,0.0,0.0,0.0,0.0,0.0,0.0,0.0,-0.000542899770774336,0.001835472190382838,0.0030019957202500535,0.0,0.0,0.0,0.0,0.0,0.0,0.0,0.0,0.0,0.0048259858791953065,-0.03264728229764194,9.809140262078632,0.0,0.0,0.0,0.0,0.0,0.0,0.0,0.0,0.0
2025/05/20 12:56:55.600431864,1747738614,763362397,mA1/imu,0.9999023903218496,0.01394347873256711,-0.00035076282520881617,0.0008162076489519916,0.0,0.0,0.0,0.0,0.0,0.0,0.0,0.0,0.0,-0.000129593728768361,0.0018966763040231568,0.0030411275936400818,0.0,0.0,0.0,0.0,0.0,0.0,0.0,0.0,0.0,0.005047532079486234,0.0061213865528689446,9.807349372432755,0.0,0.0,0.0,0.0,0.0,0.0,0.0,0.0,0.0
2025/05/20 12:56:56.262668138,1747738615,318172064,mA1/imu,0.9999108982011911,0.013311808995016345,-0.00039145256992447093,0.0009155133275782663,0.0,0.0,0.0,0.0,0.0,0.0,0.0,0.0,0.0,-0.0008243529086641438,-0.0008957378071998538,0.0015855720964136704,0.0,0.0,0.0,0.0,0.0,0.0,0.0,0.0,0.0,-0.006934470340641725,0.5304762170453029,9.812440336894065,0.0,0.0,0.0,0.0,0.0,0.0,0.0,0.0,0.0
2025/05/20 12:56:56.269825986,1747738615,368093005,mA1/imu,0.9999114471070972,0.013271012216020932,-0.0004055098712371578,0.0009020757712370254,0.0,0.0,0.0,0.0,0.0,0.0,0.0,0.0,0.0,0.0013860572868665114,-0.0003293595171757263,0.0016612457339560663,0.0,0.0,0.0,0.0,0.0,0.0,0.0,0.0,0.0,-0.007361900577749493,-0.5802834100342121,9.812538851816333,0.0,0.0,0.0,0.0,0.0,0.0,0.0,0.0,0.0
2025/05/20 12:56:56.269951105,1747738615,419085364,mA1/imu,0.9999120241635331,0.013228373951894183,-0.00040545174952972125,0.000888630774672144,0.0,0.0,0.0,0.0,0.0,0.0,0.0,0.0,0.0,0.0004944994847133794,0.0002245492929460432,0.001734757568997629,0.0,0.0,0.0,0.0,0.0,0.0,0.0,0.0,0.0,-0.006223925190034906,0.4621080486432213,9.815749807954285,0.0,0.0,0.0,0.0,0.0,0.0,0.0,0.0,0.0
2025/05/20 12:56:56.279869866,1747738615,469189236,mA1/imu,0.9999126324497173,0.013183926049525539,-0.00039220265374664495,0.000870481749313897,0.0,0.0,0.0,0.0,0.0,0.0,0.0,0.0,0.0,-6.873983662805716e-05,0.0007523777585430601,0.0018069326603514892,0.0,0.0,0.0,0.0,0.0,0.0,0.0,0.0,0.0,-0.005923948524390892,0.5562553160207632,9.816246220463047,0.0,0.0,0.0,0.0,0.0,0.0,0.0,0.0,0.0
2025/05/20 12:56:56.294248591,1747738615,520141421,mA1/imu,0.9999132637185543,0.013137717698172425,-0.00036693852913501437,0.0008548505764878218,0.0,0.0,0.0,0.0,0.0,0.0,0.0,0.0,0.0,0.0002991948718976243,0.0011936888222911716,0.0018770219610302645,0.0,0.0,0.0,0.0,0.0,0.0,0.0,0.0,0.0,-0.004755674553145231,0.5188101676166369,9.817510922411737,0.0,0.0,0.0,0.0,0.0,0.0,0.0,0.0,0.0
2025/05/20 12:56:56.303511841,1747738615,570187453,mA1/imu,0.9999139219692028,0.013089798483161632,-0.0003315851072810322,0.0008341937149021773,0.0,0.0,0.0,0.0,0.0,0.0,0.0,0.0,0.0,0.0014436044539315658,0.001559411152671538,0.001944566410997157,0.0,0.0,0.0,0.0,0.0,0.0,0.0,0.0,0.0,-0.004978486104968737,-0.605022209664285,9.81700463715935,0.0,0.0,0.0,0.0,0.0,0.0,0.0,0.0,0.0
2025/05/20 12:56:56.314258577,1747738615,613212429,mA1/imu,0.9999146055292234,0.01304023480898757,-0.000288934330969417,0.0008065001031647656,0.0,0.0,0.0,0.0,0.0,0.0,0.0,0.0,0.0,0.0029100228167955253,0.0018029368259336474,0.002009700384317397,0.0,0.0,0.0,0.0,0.0,0.0,0.0,0.0,0.0,-0.003918784754731166,-0.5042485787356704,9.81628286218968,0.0,0.0,0.0,0.0,0.0,0.0,0.0,0.0,0.0
2025/05/20 12:56:56.315008760,1747738615,663006735,mA1/imu,0.999915293189872,0.012989086669438122,-0.0002416600362930986,0.000794778543307942,0.0,0.0,0.0,0.0,0.0,0.0,0.0,0.0,0.0,0.0008853444977592717,0.0019244676618847866,0.0020721949481195116,0.0,0.0,0.0,0.0,0.0,0.0,0.0,0.0,0.0,-0.0023062087868683384,-0.015453956057113923,9.81855954015634,0.0,0.0,0.0,0.0,0.0,0.0,0.0,0.0,0.0
2025/05/20 12:56:57.267707321,1747738616,312398246,mA1/imu,0.9999235544729907,0.012334624457785938,-0.00024921548558330957,0.000824706752123102,0.0,0.0,0.0,0.0,0.0,0.0,0.0,0.0,0.0,-0.0020616056079790683,-0.0009851755131368783,0.0021711121059110505,0.0,0.0,0.0,0.0,0.0,0.0,0.0,0.0,0.0,-0.0042999154185458304,0.517778352916191,9.803990311090148,0.0,0.0,0.0,0.0,0.0,0.0,0.0,0.0,0.0
2025/05/20 12:56:57.276493759,1747738616,361503920,mA1/imu,0.9999242162724232,0.012279330913580667,-0.00027139522813487244,0.0008402909763033114,0.0,0.0,0.0,0.0,0.0,0.0,0.0,0.0,0.0,-0.0003925160830001113,-0.0008255980834316026,0.0022374399434744317,0.0,0.0,0.0,0.0,0.0,0.0,0.0,0.0,0.0,-0.004604319024493708,0.003636841091421504,9.804930271053488,0.0,0.0,0.0,0.0,0.0,0.0,0.0,0.0,0.0
2025/05/20 12:56:57.285566876,1747738616,415737145,mA1/imu,0.9999248960895183,0.012222419552476297,-0.00028890261430540316,0.0008550882578176374,0.0,0.0,0.0,0.0,0.0,0.0,0.0,0.0,0.0,0.001312945620925449,-0.0006335653521346165,0.002301719225445379,0.0,0.0,0.0,0.0,0.0,0.0,0.0,0.0,0.0,-0.004783363752367098,-0.5106046431894893,9.805874358099384,0.0,0.0,0.0,0.0,0.0,0.0,0.0,0.0,0.0
2025/05/20 12:56:57.295973651,1747738616,465632619,mA1/imu,0.9999255866825315,0.012163933534449906,-0.00030101175649794985,0.0008770464567924735,0.0,0.0,0.0,0.0,0.0,0.0,0.0,0.0,0.0,-0.0001376388347225181,-0.0004190432682255971,0.002364416622135999,0.0,0.0,0.0,0.0,0.0,0.0,0.0,0.0,0.0,-0.0033867932719202944,0.008512277948414242,9.81014807834516,0.0,0.0,0.0,0.0,0.0,0.0,0.0,0.0,0.0
2025/05/20 12:56:57.306585764,1747738616,516678073,mA1/imu,0.9999262966914388,0.012103907217480277,-0.0003075670701081125,0.000895554304793366,0.0,0.0,0.0,0.0,0.0,0.0,0.0,0.0,0.0,-0.0007336041376663255,-0.00018822272510513803,0.0024257471365623914,0.0,0.0,0.0,0.0,0.0,0.0,0.0,0.0,0.0,-0.0031945915106752513,-0.466598924921217,9.81217803805267,0.0,0.0,0.0,0.0,0.0,0.0,0.0,0.0,0.0
2025/05/20 12:56:58.265462435,1747738617,319687593,mA1/imu,0.9999406760383723,0.010862232796871048,-0.0002496991461534398,0.0007706834146898349,0.0,0.0,0.0,0.0,0.0,0.0,0.0,0.0,0.0,-0.00024108739779962513,-0.0014699745789750526,0.0036392442213870166,0.0,0.0,0.0,0.0,0.0,0.0,0.0,0.0,0.0,0.0038698956219496592,0.5771210385949153,9.804231844368044,0.0,0.0,0.0,0.0,0.0,0.0,0.0,0.0,0.0
2025/05/20 12:56:58.280018157,1747738617,369545893,mA1/imu,0.9999416560249906,0.010770795688511773,-0.0002883815929230368,0.0007689878363545869,0.0,0.0,0.0,0.0,0.0,0.0,0.0,0.0,0.0,-0.0002730309564579925,-0.0015855898756482365,0.0036676208182158396,0.0,0.0,0.0,0.0,0.0,0.0,0.0,0.0,0.0,0.0032044782164914586,-0.04384876625913818,9.802775075144178,0.0,0.0,0.0,0.0,0.0,0.0,0.0,0.0,0.0
2025/05/20 12:56:58.289482978,1747738617,420497841,mA1/imu,0.9999426309405486,0.010678670660524227,-0.0003286684028656216,0.0007699335678850347,0.0,0.0,0.0,0.0,0.0,0.0,0.0,0.0,0.0,-0.00033382852704597776,-0.0016176780400982875,0.0036947356652788526,0.0,0.0,0.0,0.0,0.0,0.0,0.0,0.0,0.0,0.003258727251401876,-0.04310559973154348,9.802593276555212,0.0,0.0,0.0,0.0,0.0,0.0,0.0,0.0,0.0
2025/05/20 12:56:58.289954759,1747738617,470272055,mA1/imu,0.9999436192995184,0.010584733431429606,-0.0003667685407932598,0.0007662383460006344,0.0,0.0,0.0,0.0,0.0,0.0,0.0,0.0,0.0,0.0010677261265444721,-0.0013472385010237014,0.003873857480324769,0.0,0.0,0.0,0.0,0.0,0.0,0.0,0.0,0.0,-0.015442385711718987,-0.5656785710392966,9.800967199846248,0.0,0.0,0.0,0.0,0.0,0.0,0.0,0.0,0.0
2025/05/20 12:56:58.297387177,1747738617,517681032,mA1/imu,0.9999446640357318,0.010484110357774731,-0.00039262911878335644,0.0007733943680457827,0.0,0.0,0.0,0.0,0.0,0.0,0.0,0.0,0.0,-0.0006946661284788635,-0.0009756569424245054,0.004050131255771654,0.0,0.0,0.0,0.0,0.0,0.0,0.0,0.0,0.0,0.00438012092790048,0.5776716569588128,9.805763211019489,0.0,0.0,0.0,0.0,0.0,0.0,0.0,0.0,0.0
2025/05/20 12:56:58.308078286,1747738617,567482980,mA1/imu,0.999945708338535,0.010382456061264854,-0.0004150091711995384,0.000782782772607711,0.0,0.0,0.0,0.0,0.0,0.0,0.0,0.0,0.0,-0.0007178753300794122,-0.000842157717342331,0.004076247393309471,0.0,0.0,0.0,0.0,0.0,0.0,0.0,0.0,0.0,0.0038562577793548342,-0.04362472302296079,9.805761806078422,0.0,0.0,0.0,0.0,0.0,0.0,0.0,0.0,0.0
2025/05/20 12:56:59.266030253,1747738618,314885908,mA1/imu,0.9999633229332393,0.008511218985727926,-0.0002682268364786972,0.0009165118957870449,0.0,0.0,0.0,0.0,0.0,0.0,0.0,0.0,0.0,0.001130885220723039,-0.0014056412867927406,0.005863350764294852,0.0,0.0,0.0,0.0,0.0,0.0,0.0,0.0,0.0,0.016931162249101128,0.19183946435184768,9.808995411544108,0.0,0.0,0.0,0.0,0.0,0.0,0.0,0.0,0.0
2025/05/20 12:56:59.270611507,1747738618,366392788,mA1/imu,0.9999645402324953,0.008365104708139622,-0.0003124212658097821,0.0009196161095131266,0.0,0.0,0.0,0.0,0.0,0.0,0.0,0.0,0.0,0.001031476883468422,-0.002013860414343528,0.005830579940914331,0.0,0.0,0.0,0.0,0.0,0.0,0.0,0.0,0.0,0.016803900365337614,0.04310914673394859,9.806896989078828,0.0,0.0,0.0,0.0,0.0,0.0,0.0,0.0,0.0
2025/05/20 12:56:59.278080067,1747738618,417644303,mA1/imu,0.9999657277960049,0.008219749248346949,-0.00036965013404047643,0.0009177769221508633,0.0,0.0,0.0,0.0,0.0,0.0,0.0,0.0,0.0,0.0008745420605769634,-0.002464828342966403,0.005799446625545952,0.0,0.0,0.0,0.0,0.0,0.0,0.0,0.0,0.0,0.015109146373308817,0.028964528696194012,9.803507013676365,0.0,0.0,0.0,0.0,0.0,0.0,0.0,0.0,0.0
2025/05/20 12:56:59.469522078,1747738618,518566252,mA1/imu,0.9999680008875262,0.007931264805341266,-0.0005066488949791088,0.0009140823206137555,0.0,0.0,0.0,0.0,0.0,0.0,0.0,0.0,0.0,0.0007803420179216847,-0.0028731419190083356,0.005741498483162127,0.0,0.0,0.0,0.0,0.0,0.0,0.0,0.0,0.0,0.013079414981439469,-0.5384036173462847,9.801780869356776,0.0,0.0,0.0,0.0,0.0,0.0,0.0,0.0,0.0
2025/05/20 12:56:59.476576996,1747738618,568801416,mA1/imu,0.9999690955326085,0.0077880941026015876,-0.0005778545870988749,0.0009053474593135169,0.0,0.0,0.0,0.0,0.0,0.0,0.0,0.0,0.0,0.0010601824746033688,-0.0028208430964491555,0.005713661442746251,0.0,0.0,0.0,0.0,0.0,0.0,0.0,0.0,0.0,0.012682438834941566,-0.6060495689088844,9.801814517783766,0.0,0.0,0.0,0.0,0.0,0.0,0.0,0.0,0.0
2025/05/20 12:56:59.484341242,1747738618,619754354,mA1/imu,0.9999701617077403,0.007645602705220822,-0.0006448858493244375,0.0008969814439843712,0.0,0.0,0.0,0.0,0.0,0.0,0.0,0.0,0.0,-0.0010339977725052935,-0.002575265818475232,0.0056864210730026565,0.0,0.0,0.0,0.0,0.0,0.0,0.0,0.0,0.0,0.01218588320026948,0.38745394423332336,9.803864395856785,0.0,0.0,0.0,0.0,0.0,0.0,0.0,0.0,0.0
2025/05/20 12:56:59.494698627,1747738618,663510335,mA1/imu,0.9999712132403747,0.007503771686592106,-0.0007038189469686963,0.0008779179564228009,0.0,0.0,0.0,0.0,0.0,0.0,0.0,0.0,0.0,0.0003111079453836647,-0.0021789199920511757,0.005659354534351852,0.0,0.0,0.0,0.0,0.0,0.0,0.0,0.0,0.0,0.011118017469253463,-0.031822119196240485,9.801860277883636,0.0,0.0,0.0,0.0,0.0,0.0,0.0,0.0,0.0
2025/05/20 12:56:59.505325733,1747738618,719208206,mA1/imu,0.9999722410421894,0.007362603113701975,-0.0007510567934033142,0.0008632115294742649,0.0,0.0,0.0,0.0,0.0,0.0,0.0,0.0,0.0,0.0007032746942006848,-0.001678647295317047,0.00563454578873141,0.0,0.0,0.0,0.0,0.0,0.0,0.0,0.0,0.0,0.010999161393994115,0.27101197567698343,9.804063078895803,0.0,0.0,0.0,0.0,0.0,0.0,0.0,0.0,0.0
2025/05/20 12:56:59.505462124,1747738618,764349235,mA1/imu,0.9999732529242249,0.007222068711744291,-0.0007841239646321926,0.000848710359875058,0.0,0.0,0.0,0.0,0.0,0.0,0.0,0.0,0.0,0.002174212592524861,-0.001080379837505688,0.005610240750898076,0.0,0.0,0.0,0.0,0.0,0.0,0.0,0.0,0.0,0.010526219580678668,-0.5366204446448606,9.805397860842138,0.0,0.0,0.0,0.0,0.0,0.0,0.0,0.0,0.0
2025/05/20 12:56:59.869700061,1747738618,915047264,mA1/imu,0.9999763883490901,0.006781100874862049,-0.000754012631755842,0.0008190727598509407,0.0,0.0,0.0,0.0,0.0,0.0,0.0,0.0,0.0,-0.000131760071698605,0.0019667320404422395,0.006376161613218507,0.0,0.0,0.0,0.0,0.0,0.0,0.0,0.0,0.0,0.01830399092138265,-0.0673266260579376,9.812051749507226,0.0,0.0,0.0,0.0,0.0,0.0,0.0,0.0,0.0
2025/05/20 12:56:59.878723528,1747738618,967126194,mA1/imu,0.9999774963979314,0.006622655123717859,-0.0007010403585952649,0.0008097402380681326,0.0,0.0,0.0,0.0,0.0,0.0,0.0,0.0,0.0,-0.0005520693433701011,0.00220511876989528,0.006313690783711499,0.0,0.0,0.0,0.0,0.0,0.0,0.0,0.0,0.0,0.018010687343283205,-0.08310693728347474,9.811790900766068,0.0,0.0,0.0,0.0,0.0,0.0,0.0,0.0,0.0
2025/05/20 12:57:00.520262349,1747738619,569148330,mA1/imu,0.9999883322103114,0.004723482826606961,-0.0004268648844118101,0.0009175726660013681,0.0,0.0,0.0,0.0,0.0,0.0,0.0,0.0,0.0,-0.0010967754645829066,-0.0015735616045391813,0.006311030345297262,0.0,0.0,0.0,0.0,0.0,0.0,0.0,0.0,0.0,0.017564219155371916,0.27405667000012135,9.805836542079161,0.0,0.0,0.0,0.0,0.0,0.0,0.0,0.0,0.0
2025/05/20 12:57:00.526037216,1747738619,612248327,mA1/imu,0.9999890341061362,0.00456614274283037,-0.00047095611755880435,0.0009274741314151988,0.0,0.0,0.0,0.0,0.0,0.0,0.0,0.0,0.0,4.876256361664273e-05,-0.0018814576486610233,0.0062789829886031375,0.0,0.0,0.0,0.0,0.0,0.0,0.0,0.0,0.0,0.01630370401939136,0.05072567039698037,9.804324435470678,0.0,0.0,0.0,0.0,0.0,0.0,0.0,0.0,0.0
2025/05/20 12:57:00.532980414,1747738619,662663490,mA1/imu,0.9999897008556986,0.004409585309447098,-0.0005207244200326872,0.0009394604875193978,0.0,0.0,0.0,0.0,0.0,0.0,0.0,0.0,0.0,9.58910175677302e-05,-0.002056051029880671,0.006248659130437839,0.0,0.0,0.0,0.0,0.0,0.0,0.0,0.0,0.0,0.01578925026135586,0.010870576405428784,9.80495680487721,0.0,0.0,0.0,0.0,0.0,0.0,0.0,0.0,0.0
2025/05/20 12:57:01.174136624,1747738620,216696260,mA1/imu,0.9999962295031415,0.002511918125303901,-0.0006883600753186899,0.0008702914677207212,0.0,0.0,0.0,0.0,0.0,0.0,0.0,0.0,0.0,0.0007119952293437229,0.00021751137187871569,0.007048639129266438,0.0,0.0,0.0,0.0,0.0,0.0,0.0,0.0,0.0,0.0180978564270487,-0.0034596704853896276,9.813640336293968,0.0,0.0,0.0,0.0,0.0,0.0,0.0,0.0,0.0
2025/05/20 12:57:01.187473259,1747738620,270494584,mA1/imu,0.9999966624047708,0.002336059915953747,-0.0006810422247425526,0.0008684381820684364,0.0,0.0,0.0,0.0,0.0,0.0,0.0,0.0,0.0,-0.0009600435289260475,0.00033654627345721755,0.007024846773650409,0.0,0.0,0.0,0.0,0.0,0.0,0.0,0.0,0.0,0.018299661464829385,0.4702558055350886,9.815153702159026,0.0,0.0,0.0,0.0,0.0,0.0,0.0,0.0,0.0
2025/05/20 12:57:01.196130572,1747738620,315861209,mA1/imu,0.9999970706811181,0.0021607814654307257,-0.0006710900782060914,0.0008598201838355423,0.0,0.0,0.0,0.0,0.0,0.0,0.0,0.0,0.0,0.0002488165047979337,0.00043796763282787397,0.007001916766774419,0.0,0.0,0.0,0.0,0.0,0.0,0.0,0.0,0.0,0.01782425851323924,-0.20004338623038576,9.81690927590977,0.0,0.0,0.0,0.0,0.0,0.0,0.0,0.0,0.0
2025/05/20 12:57:01.207609652,1747738620,367164871,mA1/imu,0.9999974509485595,0.0019860836451681143,-0.0006585933994054022,0.0008484237572013062,0.0,0.0,0.0,0.0,0.0,0.0,0.0,0.0,0.0,0.0008168790367015509,0.0005251282193537707,0.006979418191956182,0.0,0.0,0.0,0.0,0.0,0.0,0.0,0.0,0.0,0.017927532811741267,0.01601113559294578,9.817030890190583,0.0,0.0,0.0,0.0,0.0,0.0,0.0,0.0,0.0
2025/05/20 12:57:02.171867906,1747738621,211453644,mA1/imu,0.9999990234007234,-0.0003070430340524741,-0.000985154954378613,0.0009425454315665511,0.0,0.0,0.0,0.0,0.0,0.0,0.0,0.0,0.0,0.0013192949835719725,0.0012618524818228595,0.0030002578874992877,0.0,0.0,0.0,0.0,0.0,0.0,0.0,0.0,0.0,-0.0011093765820046342,-0.5751373474737886,9.807652001232452,0.0,0.0,0.0,0.0,0.0,0.0,0.0,0.0,0.0
2025/05/20 12:57:02.188168628,1747738621,263461365,mA1/imu,0.9999990578109674,-0.0003832804486969826,-0.0009318606642720129,0.0009322601447716356,0.0,0.0,0.0,0.0,0.0,0.0,0.0,0.0,0.0,0.0010059927805466289,0.002679809188016886,0.0030846524346938007,0.0,0.0,0.0,0.0,0.0,0.0,0.0,0.0,0.0,0.00029811553454387255,0.01733134024902847,9.809776426315468,0.0,0.0,0.0,0.0,0.0,0.0,0.0,0.0,0.0
2025/05/20 12:57:02.195640778,1747738621,314986172,mA1/imu,0.9999991070118985,-0.00046155710607786863,-0.0008460203333552883,0.0009258455803033778,0.0,0.0,0.0,0.0,0.0,0.0,0.0,0.0,0.0,-0.00033877435650635164,0.0038962282993737067,0.003166566096200947,0.0,0.0,0.0,0.0,0.0,0.0,0.0,0.0,0.0,0.002401680183913053,0.5426442816877102,9.813171334676412,0.0,0.0,0.0,0.0,0.0,0.0,0.0,0.0,0.0
2025/05/20 12:57:02.783045537,1747738621,812637003,mA1/imu,0.9999988079525326,-0.0013411249783699876,0.00017210730042788825,0.0007455577665540161,0.0,0.0,0.0,0.0,0.0,0.0,0.0,0.0,0.0,0.001148571711108121,-0.0001580908111706395,0.0038211032906074797,0.0,0.0,0.0,0.0,0.0,0.0,0.0,0.0,0.0,0.010215311448389839,-0.5892383097655888,9.809722477955713,0.0,0.0,0.0,0.0,0.0,0.0,0.0,0.0,0.0
2025/05/20 12:57:02.783984399,1747738621,863199288,mA1/imu,0.9999986781699934,-0.0014408831462606345,0.00015319283131351335,0.0007375947268848974,0.0,0.0,0.0,0.0,0.0,0.0,0.0,0.0,0.0,0.0008211339567002466,-0.0008514678972082853,0.004329254802827484,0.0,0.0,0.0,0.0,0.0,0.0,0.0,0.0,0.0,-0.040771297741439026,0.03676911927030106,9.807330380248173,0.0,0.0,0.0,0.0,0.0,0.0,0.0,0.0,0.0
2025/05/20 12:57:02.784234359,1747738621,917583387,mA1/imu,0.9999984994233057,-0.0015606876755728985,0.0001287440675976159,0.0007408306699267396,0.0,0.0,0.0,0.0,0.0,0.0,0.0,0.0,0.0,-0.0008954243243492967,-0.001442103094202627,0.004897638527049294,0.0,0.0,0.0,0.0,0.0,0.0,0.0,0.0,0.0,0.012164491013436151,0.5511051397232611,9.80965312547065,0.0,0.0,0.0,0.0,0.0,0.0,0.0,0.0,0.0
2025/05/20 12:57:02.786247908,1747738621,967389314,mA1/imu,0.9999982988438468,-0.001684465911009844,7.358227194075933e-05,0.0007479770425824982,0.0,0.0,0.0,0.0,0.0,0.0,0.0,0.0,0.0,-0.0009541120277541238,-0.0027027937168651824,0.004969177089452083,0.0,0.0,0.0,0.0,0.0,0.0,0.0,0.0,0.0,0.011979209181107248,-0.06849892157609179,9.807519675428859,0.0,0.0,0.0,0.0,0.0,0.0,0.0,0.0,0.0
2025/05/20 12:57:02.794732615,1747738622,18958197,mA1/imu,0.9999980799125242,-0.0018094892697005423,-1.0629380866917612e-05,0.0007522013453896497,0.0,0.0,0.0,0.0,0.0,0.0,0.0,0.0,0.0,0.00044079612894161577,-0.003784939564177578,0.005017867897684513,0.0,0.0,0.0,0.0,0.0,0.0,0.0,0.0,0.0,0.010129279522758277,-0.5898343025712357,9.80449206387455,0.0,0.0,0.0,0.0,0.0,0.0,0.0,0.0,0.0
2025/05/20 12:57:02.795491449,1747738622,68845785,mA1/imu,0.9999978293248732,-0.0019357385300826655,-0.00011827273789003512,0.0007617568144840841,0.0,0.0,0.0,0.0,0.0,0.0,0.0,0.0,0.0,0.0001231950246393635,-0.004626343816659118,0.005065885750282937,0.0,0.0,0.0,0.0,0.0,0.0,0.0,0.0,0.0,0.00998630673184561,0.027838424210481272,9.80495061384884,0.0,0.0,0.0,0.0,0.0,0.0,0.0,0.0,0.0
2025/05/20 12:57:02.806497640,1747738622,119937027,mA1/imu,0.9999975354844701,-0.002063191251428545,-0.00024235392847750842,0.000783282464532862,0.0,0.0,0.0,0.0,0.0,0.0,0.0,0.0,0.0,-0.0016220445580063963,-0.005153506826238629,0.005113328829345628,0.0,0.0,0.0,0.0,0.0,0.0,0.0,0.0,0.0,0.0078078373502225955,0.5497429105297159,9.805818753017109,0.0,0.0,0.0,0.0,0.0,0.0,0.0,0.0,0.0
2025/05/20 12:57:02.809335023,1747738622,169611971,mA1/imu,0.99999720169659,-0.0021918266838421726,-0.00037526892297122023,0.0008072595696366361,0.0,0.0,0.0,0.0,0.0,0.0,0.0,0.0,0.0,-0.0015919384547031811,-0.005381451972180805,0.005160217964797725,0.0,0.0,0.0,0.0,0.0,0.0,0.0,0.0,0.0,0.006718156867462886,-0.06716444583538456,9.80485648975593,0.0,0.0,0.0,0.0,0.0,0.0,0.0,0.0,0.0
2025/05/20 12:57:02.819550064,1747738622,221749664,mA1/imu,0.9999968347738015,-0.0023216242165899556,-0.0005090054065321101,0.0008254797824223007,0.0,0.0,0.0,0.0,0.0,0.0,0.0,0.0,0.0,-6.985676563755347e-05,-0.005287583979773957,0.0052062724917098955,0.0,0.0,0.0,0.0,0.0,0.0,0.0,0.0,0.0,0.004852221259371323,-0.5889382192371565,9.803450288472378,0.0,0.0,0.0,0.0,0.0,0.0,0.0,0.0,0.0
2025/05/20 12:57:02.830246892,1747738622,262278930,mA1/imu,0.9999964328666204,-0.0024525464015164905,-0.0006358248588094059,0.00084557491215661,0.0,0.0,0.0,0.0,0.0,0.0,0.0,0.0,0.0,-0.00023849935219256998,-0.004898810965434245,0.005250634339975193,0.0,0.0,0.0,0.0,0.0,0.0,0.0,0.0,0.0,0.005158470699045715,0.02854394709205774,9.805058071885838,0.0,0.0,0.0,0.0,0.0,0.0,0.0,0.0,0.0
2025/05/20 12:57:02.841011480,1747738622,313314696,mA1/imu,0.9999959982914332,-0.002584534325558343,-0.0007484544274027875,0.0008737273086878048,0.0,0.0,0.0,0.0,0.0,0.0,0.0,0.0,0.0,-0.0018192865119955248,-0.004215268452264028,0.005293456609264681,0.0,0.0,0.0,0.0,0.0,0.0,0.0,0.0,0.0,0.003934407361963295,0.5500462688843263,9.807550268550141,0.0,0.0,0.0,0.0,0.0,0.0,0.0,0.0,0.0
2025/05/20 12:57:02.851353603,1747738622,363960564,mA1/imu,0.9999955488068106,-0.0027175593397206926,-0.0008407746506109298,0.0009001865293460324,0.0,0.0,0.0,0.0,0.0,0.0,0.0,0.0,0.0,-0.0016184887471441982,-0.0033162252746262878,0.005335198624763983,0.0,0.0,0.0,0.0,0.0,0.0,0.0,0.0,0.0,0.0034600562693354302,-0.06708033106781332,9.807619657190322,0.0,0.0,0.0,0.0,0.0,0.0,0.0,0.0,0.0
2025/05/20 12:57:02.861755724,1747738622,419190502,mA1/imu,0.9999951018117292,-0.002851592104628582,-0.0009079810165780989,0.0009167036006998641,0.0,0.0,0.0,0.0,0.0,0.0,0.0,0.0,0.0,7.260970708513309e-05,-0.002254153075360254,0.00537550940666202,0.0,0.0,0.0,0.0,0.0,0.0,0.0,0.0,0.0,0.0031160226499624723,-0.5890460545885048,9.807568665595738,0.0,0.0,0.0,0.0,0.0,0.0,0.0,0.0,0.0
2025/05/20 12:57:03.821067416,1747738622,869371863,mA1/imu,0.9999911312790115,-0.004088505199713751,-0.00041354558754115253,0.0009222085457936313,0.0,0.0,0.0,0.0,0.0,0.0,0.0,0.0,0.0,0.001375218283776146,0.0027178920574058647,0.004690566968051227,0.0,0.0,0.0,0.0,0.0,0.0,0.0,0.0,0.0,0.13631693669143213,0.014784178991009363,9.810058755805755,0.0,0.0,0.0,0.0,0.0,0.0,0.0,0.0,0.0
2025/05/20 12:57:03.829948282,1747738622,920367084,mA1/imu,0.9999907860388761,-0.004177420378270023,-0.00038874248894627667,0.0009087769866324148,0.0,0.0,0.0,0.0,0.0,0.0,0.0,0.0,0.0,-0.00014336135409814032,0.0002466705714695708,0.003082587391104907,0.0,0.0,0.0,0.0,0.0,0.0,0.0,0.0,0.0,0.05333135179399307,0.5389766021880085,9.817139350678529,0.0,0.0,0.0,0.0,0.0,0.0,0.0,0.0,0.0
2025/05/20 12:57:03.841502991,1747738622,965722628,mA1/imu,0.9999904929113496,-0.0042505721080303704,-0.0003873795546693159,0.0008925585422063707,0.0,0.0,0.0,0.0,0.0,0.0,0.0,0.0,0.0,0.00011286767250844112,0.00010051001313385285,0.00295035061761419,0.0,0.0,0.0,0.0,0.0,0.0,0.0,0.0,0.0,0.005146543333262376,-0.06795133477804638,9.813444892670931,0.0,0.0,0.0,0.0,0.0,0.0,0.0,0.0,0.0
2025/05/20 12:57:03.854366221,1747738623,17755106,mA1/imu,0.9999902076176894,-0.004322316812679149,-0.0003878347579484249,0.0008670814851442628,0.0,0.0,0.0,0.0,0.0,0.0,0.0,0.0,0.0,0.0017058932880371143,-5.541576865855934e-05,0.002833491825587857,0.0,0.0,0.0,0.0,0.0,0.0,0.0,0.0,0.0,-0.0019868673252498017,-0.5934279395255954,9.81005358849716,0.0,0.0,0.0,0.0,0.0,0.0,0.0,0.0,0.0
2025/05/20 12:57:03.863756889,1747738623,68208591,mA1/imu,0.9999899179229109,-0.004393924988798081,-0.0003873002193402847,0.0008411148926598366,0.0,0.0,0.0,0.0,0.0,0.0,0.0,0.0,0.0,0.0016396533907680427,-9.817944381843637e-05,0.0027966740291288407,0.0,0.0,0.0,0.0,0.0,0.0,0.0,0.0,0.0,0.021433063901269013,0.025444213650226588,9.80876647988064,0.0,0.0,0.0,0.0,0.0,0.0,0.0,0.0,0.0
2025/05/20 12:57:04.822697336,1747738623,869418604,mA1/imu,0.9999836730247829,-0.005649391823428966,-0.0002188581947942183,0.0008307568717750326,0.0,0.0,0.0,0.0,0.0,0.0,0.0,0.0,0.0,-0.0010231751421500169,-0.0007731277143008536,0.003655015626707656,0.0,0.0,0.0,0.0,0.0,0.0,0.0,0.0,0.0,0.022631756281093065,-0.02153596011543259,9.816597501560482,0.0,0.0,0.0,0.0,0.0,0.0,0.0,0.0,0.0
2025/05/20 12:57:04.826879657,1747738623,922888991,mA1/imu,0.9999831499607337,-0.005736144311336249,-0.0002509312851584775,0.0008564324482357335,0.0,0.0,0.0,0.0,0.0,0.0,0.0,0.0,0.0,-0.0010281744277227253,-0.00158957743035039,0.0033479294380576994,0.0,0.0,0.0,0.0,0.0,0.0,0.0,0.0,0.0,0.02019056606443225,-0.019959605669128973,9.812856438733611,0.0,0.0,0.0,0.0,0.0,0.0,0.0,0.0,0.0
2025/05/20 12:57:04.836100166,1747738623,970323550,mA1/imu,0.9999826346078597,-0.005819553251541865,-0.0002944072521084064,0.0008812531110708945,0.0,0.0,0.0,0.0,0.0,0.0,0.0,0.0,0.0,-0.0009692450015269215,-0.0017271871573088337,0.0033787070656318896,0.0,0.0,0.0,0.0,0.0,0.0,0.0,0.0,0.0,-0.0011988272496865331,-0.017689498558402548,9.813876061240117,0.0,0.0,0.0,0.0,0.0,0.0,0.0,0.0,0.0
2025/05/20 12:57:04.845016592,1747738624,13015517,mA1/imu,0.9999820966750375,-0.005905645981250284,-0.0003363752075559727,0.0009036186474255147,0.0,0.0,0.0,0.0,0.0,0.0,0.0,0.0,0.0,-0.0008539005550107286,-0.0016314289042203142,0.0034847771521391785,0.0,0.0,0.0,0.0,0.0,0.0,0.0,0.0,0.0,-0.0013758436859947149,-0.018360103289485587,9.816091133299174,0.0,0.0,0.0,0.0,0.0,0.0,0.0,0.0,0.0
