time,header_stamp_secs,header_stamp_nsecs,header_frame_id,orientation_x,orientation_y,orientation_z,orientation_w,orientation_covariance_0,orientation_covariance_1,orientation_covariance_2,orientation_covariance_3,orientation_covariance_4,orientation_covariance_5,orientation_covariance_6,orientation_covariance_7,orientation_covariance_8,angular_velocity_x,angular_velocity_y,angular_velocity_z,angular_velocity_covariance_0,angular_velocity_covariance_1,angular_velocity_covariance_2,angular_velocity_covariance_3,angular_velocity_covariance_4,angular_velocity_covariance_5,angular_velocity_covariance_6,angular_velocity_covariance_7,angular_velocity_covariance_8,linear_acceleration_x,linear_acceleration_y,linear_acceleration_z,linear_acceleration_covariance_0,linear_acceleration_covariance_1,linear_acceleration_covariance_2,linear_acceleration_covariance_3,linear_acceleration_covariance_4,linear_acceleration_covariance_5,linear_acceleration_covariance_6,linear_acceleration_covariance_7,linear_acceleration_covariance_8
2025/05/21 11:47:31.380667728,1747820851,380071802,mA1/imu,0.12060964544406277,0.9926996105300507,0.0007425874535520757,0.0004952203722056311,0.0,0.0,0.0,0.0,0.0,0.0,0.0,0.0,0.0,-0.0008788870641469427,6.082403048525738e-06,-4.374509818444857e-07,0.0,0.0,0.0,0.0,0.0,0.0,0.0,0.0,0.0,0.007934614096128882,0.554246630995087,9.81116821126168,0.0,0.0,0.0,0.0,0.0,0.0,0.0,0.0,0.0
2025/05/21 11:47:31.432890180,1747820851,432273529,mA1/imu,0.12060963334226707,0.9926996087124219,0.0007466165526534354,0.0004957529341955298,0.0,0.0,0.0,0.0,0.0,0.0,0.0,0.0,0.0,-0.0007469716230016784,-1.4703629021009738e-06,-4.233370164492247e-07,0.0,0.0,0.0,0.0,0.0,0.0,0.0,0.0,0.0,0.008269363999808743,-0.0666189997808429,9.809720812765914,0.0,0.0,0.0,0.0,0.0,0.0,0.0,0.0,0.0
2025/05/21 11:47:31.486734598,1747820851,485590252,mA1/imu,0.12060962547693854,0.9926996127859162,0.0007427108551476381,0.00049537621048413,0.0,0.0,0.0,0.0,0.0,0.0,0.0,0.0,0.0,0.0008491577167837552,-1.0135078989850782e-05,-3.7171721174833375e-07,0.0,0.0,0.0,0.0,0.0,0.0,0.0,0.0,0.0,0.007857578616886646,-0.5851868970988255,9.808678792840041,0.0,0.0,0.0,0.0,0.0,0.0,0.0,0.0,0.0
2025/05/21 11:47:31.535484738,1747820851,532929668,mA1/imu,0.12060961717242155,0.9926996163925259,0.0007394508216481672,0.0004950476105098688,0.0,0.0,0.0,0.0,0.0,0.0,0.0,0.0,0.0,0.0007145204967439877,-3.1645249987193527e-06,-3.87038801632057e-07,0.0,0.0,0.0,0.0,0.0,0.0,0.0,0.0,0.0,0.007513485000048899,0.03521515249760486,9.810383854408046,0.0,0.0,0.0,0.0,0.0,0.0,0.0,0.0,0.0
2025/05/21 11:47:31.584142436,1747820851,583875272,mA1/imu,0.1206096046305809,0.9926996141969374,0.0007440387452695988,0.0004956313668918814,0.0,0.0,0.0,0.0,0.0,0.0,0.0,0.0,0.0,-0.0008741169667220985,5.080374293327909e-06,-4.414579097863604e-07,0.0,0.0,0.0,0.0,0.0,0.0,0.0,0.0,0.0,0.007926157497989167,0.5541569517252046,9.811178540775714,0.0,0.0,0.0,0.0,0.0,0.0,0.0,0.0,0.0
2025/05/21 11:47:31.628748475,1747820851,628127392,mA1/imu,0.12060959250691987,0.9926996125070342,0.0007478963882345979,0.0004961599452911887,0.0,0.0,0.0,0.0,0.0,0.0,0.0,0.0,0.0,-0.0007388569983907121,-1.8840899491742664e-06,-4.284959952672987e-07,0.0,0.0,0.0,0.0,0.0,0.0,0.0,0.0,0.0,0.008265967057084586,-0.06665484392382098,9.809726100489433,0.0,0.0,0.0,0.0,0.0,0.0,0.0,0.0,0.0
2025/05/21 11:47:31.680217943,1747820851,678694624,mA1/imu,0.12060958462436415,0.9926996167835312,0.0007437505500557572,0.0004957516390770134,0.0,0.0,0.0,0.0,0.0,0.0,0.0,0.0,0.0,0.0008598186072403743,-9.640675793896957e-06,-3.7734963281158564e-07,0.0,0.0,0.0,0.0,0.0,0.0,0.0,0.0,0.0,0.007849876995595402,-0.5852016034535379,9.808677615443758,0.0,0.0,0.0,0.0,0.0,0.0,0.0,0.0,0.0
2025/05/21 11:47:31.735930335,1747820851,733480123,mA1/imu,0.1206095762979522,0.9926996206386332,0.0007401996181131039,0.0004953722516783575,0.0,0.0,0.0,0.0,0.0,0.0,0.0,0.0,0.0,0.0007269744738265536,-2.4490351072094706e-06,-3.9378058455135166e-07,0.0,0.0,0.0,0.0,0.0,0.0,0.0,0.0,0.0,0.00752215096362939,0.03520680089410043,9.810378381684204,0.0,0.0,0.0,0.0,0.0,0.0,0.0,0.0,0.0
2025/05/21 11:47:31.778491167,1747820851,778111284,mA1/imu,0.12060956372889754,0.9926996187195626,0.000744462010880127,0.0004958905872701267,0.0,0.0,0.0,0.0,0.0,0.0,0.0,0.0,0.0,-0.0008604654872476898,6.312128919246604e-06,-4.4835512702900567e-07,0.0,0.0,0.0,0.0,0.0,0.0,0.0,0.0,0.0,0.007928181092885733,0.5541547290521609,9.811177229421723,0.0,0.0,0.0,0.0,0.0,0.0,0.0,0.0,0.0
2025/05/21 11:47:31.834952816,1747820851,834280561,mA1/imu,0.12060955158481641,0.9926996173307275,0.0007479761573347723,0.0004963361812572459,0.0,0.0,0.0,0.0,0.0,0.0,0.0,0.0,0.0,-0.0007246527318123022,-5.590517165958818e-08,-4.349060923330336e-07,0.0,0.0,0.0,0.0,0.0,0.0,0.0,0.0,0.0,0.008257757894095111,-0.06665647051014091,9.80972585782277,0.0,0.0,0.0,0.0,0.0,0.0,0.0,0.0,0.0
2025/05/21 11:47:31.885610105,1747820851,884580382,mA1/imu,0.12060954368912574,0.9926996219136234,0.0007434853236338448,0.0004958358835557272,0.0,0.0,0.0,0.0,0.0,0.0,0.0,0.0,0.0,0.000873849180069936,-7.636310735602979e-06,-3.833734327398309e-07,0.0,0.0,0.0,0.0,0.0,0.0,0.0,0.0,0.0,0.007850871775973507,-0.5852041354990759,9.808671179621426,0.0,0.0,0.0,0.0,0.0,0.0,0.0,0.0,0.0
2025/05/21 11:47:31.926864252,1747820851,926404887,mA1/imu,0.12060953535603655,0.9926996260623033,0.0007396033122688693,0.0004953623972154583,0.0,0.0,0.0,0.0,0.0,0.0,0.0,0.0,0.0,0.0007402011129247506,-1.8451327405787037e-07,-3.987473194937657e-07,0.0,0.0,0.0,0.0,0.0,0.0,0.0,0.0,0.0,0.007514025450860868,0.035202900095249706,9.810378671726898,0.0,0.0,0.0,0.0,0.0,0.0,0.0,0.0,0.0
2025/05/21 11:47:31.978167703,1747820851,977666005,mA1/imu,0.12060952279376422,0.9926996244196332,0.0007435630838234765,0.0004957847516436237,0.0,0.0,0.0,0.0,0.0,0.0,0.0,0.0,0.0,-0.0008485964282377534,8.633299070267927e-06,-4.5210220497898134e-07,0.0,0.0,0.0,0.0,0.0,0.0,0.0,0.0,0.0,0.007928559067455135,0.5541524439940142,9.811181216022893,0.0,0.0,0.0,0.0,0.0,0.0,0.0,0.0,0.0
2025/05/21 11:47:32.29083552,1747820852,28840408,mA1/imu,0.12060951066787516,0.9926996232712664,0.0007468169917695829,0.0004961430462314529,0.0,0.0,0.0,0.0,0.0,0.0,0.0,0.0,0.0,-0.0007146887649936808,2.098914646021092e-06,-4.373397424151191e-07,0.0,0.0,0.0,0.0,0.0,0.0,0.0,0.0,0.0,0.008266168030011595,-0.06665872809502615,9.809719455806071,0.0,0.0,0.0,0.0,0.0,0.0,0.0,0.0,0.0
2025/05/21 11:47:32.80687311,1747820852,80415109,mA1/imu,0.12060950280151868,0.9926996280373095,0.0007421193662383212,0.0004955677594003797,0.0,0.0,0.0,0.0,0.0,0.0,0.0,0.0,0.0,0.0008814773362722487,-5.773945354782926e-06,-3.8435660182607e-07,0.0,0.0,0.0,0.0,0.0,0.0,0.0,0.0,0.0,0.007854871934785719,-0.5852071524620018,9.808660307589989,0.0,0.0,0.0,0.0,0.0,0.0,0.0,0.0,0.0
2025/05/21 11:47:32.133276273,1747820852,131422193,mA1/imu,0.12060949451279987,0.992699632312788,0.0007380928934606136,0.0004950336386841496,0.0,0.0,0.0,0.0,0.0,0.0,0.0,0.0,0.0,0.0007451142107970593,1.377772432282883e-06,-3.979526342532765e-07,0.0,0.0,0.0,0.0,0.0,0.0,0.0,0.0,0.0,0.0075196766524596986,0.035197498937153494,9.810367790104971,0.0,0.0,0.0,0.0,0.0,0.0,0.0,0.0,0.0
2025/05/21 11:47:32.181703478,1747820852,181248207,mA1/imu,0.12060948201031514,0.9926996307455541,0.0007419763260589243,0.0004954169715872013,0.0,0.0,0.0,0.0,0.0,0.0,0.0,0.0,0.0,-0.0008465456670397345,9.583000682683849e-06,-4.4986089257512747e-07,0.0,0.0,0.0,0.0,0.0,0.0,0.0,0.0,0.0,0.007932004068511037,0.5541499094216422,9.81118196914025,0.0,0.0,0.0,0.0,0.0,0.0,0.0,0.0,0.0
2025/05/21 11:47:32.234014721,1747820852,232868622,mA1/imu,0.12060946996076886,0.9926996296072433,0.0007452252827594508,0.0004957546796717954,0.0,0.0,0.0,0.0,0.0,0.0,0.0,0.0,0.0,-0.0007155545880592313,2.843371579692461e-06,-4.329636396234473e-07,0.0,0.0,0.0,0.0,0.0,0.0,0.0,0.0,0.0,0.008268138402807095,-0.06665952664988639,9.809721752212,0.0,0.0,0.0,0.0,0.0,0.0,0.0,0.0,0.0
2025/05/21 11:47:32.283147292,1747820852,282753720,mA1/imu,0.12060946218517361,0.9926996343060857,0.0007405948551936927,0.000495175955996065,0.0,0.0,0.0,0.0,0.0,0.0,0.0,0.0,0.0,0.0008776740378205325,-5.509433833823041e-06,-3.7830497543668237e-07,0.0,0.0,0.0,0.0,0.0,0.0,0.0,0.0,0.0,0.007856947741789808,-0.5852106467793535,9.808656045556996,0.0,0.0,0.0,0.0,0.0,0.0,0.0,0.0,0.0
2025/05/21 11:47:32.338486774,1747820852,337078216,mA1/imu,0.1206094539992839,0.9926996384525283,0.0007367040041612125,0.0004946609187996236,0.0,0.0,0.0,0.0,0.0,0.0,0.0,0.0,0.0,0.0007385384858413837,1.0038357046219616e-06,-3.9063080006318473e-07,0.0,0.0,0.0,0.0,0.0,0.0,0.0,0.0,0.0,0.00752440821283318,0.03519338889183857,9.810363712207375,0.0,0.0,0.0,0.0,0.0,0.0,0.0,0.0,0.0
2025/05/21 11:47:32.378232841,1747820852,377047367,mA1/imu,0.12060944160982169,0.9926996367078579,0.0007407850497978189,0.0004950880366659169,0.0,0.0,0.0,0.0,0.0,0.0,0.0,0.0,0.0,-0.0008555623097912843,8.606182650146959e-06,-4.4144595839313825e-07,0.0,0.0,0.0,0.0,0.0,0.0,0.0,0.0,0.0,0.007932332247541146,0.5541486650285528,9.811178862524264,0.0,0.0,0.0,0.0,0.0,0.0,0.0,0.0,0.0
2025/05/21 11:47:32.428709718,1747820852,428156284,mA1/imu,0.12060942968921042,0.9926996353548058,0.0007442624369367562,0.0004954895598221114,0.0,0.0,0.0,0.0,0.0,0.0,0.0,0.0,0.0,-0.0007222702359374313,1.0958757372373087e-06,-4.2394968927626394e-07,0.0,0.0,0.0,0.0,0.0,0.0,0.0,0.0,0.0,0.008265463875214613,-0.06816591387412674,9.809717533359684,0.0,0.0,0.0,0.0,0.0,0.0,0.0,0.0,0.0
2025/05/21 11:47:32.481206443,1747820852,480083053,mA1/imu,0.12060942202455319,0.99269963983111,0.0007398583040210142,0.0004949826033804445,0.0,0.0,0.0,0.0,0.0,0.0,0.0,0.0,0.0,0.0008669890899397834,-7.163523735265729e-06,-3.7145556560824676e-07,0.0,0.0,0.0,0.0,0.0,0.0,0.0,0.0,0.0,0.007849627724664382,-0.585085709461105,9.80864808241092,0.0,0.0,0.0,0.0,0.0,0.0,0.0,0.0,0.0
2025/05/21 11:47:32.531856048,1747820852,531361837,mA1/imu,0.1206094138700212,0.9926996437152168,0.0007362616738270102,0.000494542575690104,0.0,0.0,0.0,0.0,0.0,0.0,0.0,0.0,0.0,0.0007258088973299082,-4.7159192626527786e-07,-3.847812387807423e-07,0.0,0.0,0.0,0.0,0.0,0.0,0.0,0.0,0.0,0.00751794443787791,0.035246855444338004,9.81036860802131,0.0,0.0,0.0,0.0,0.0,0.0,0.0,0.0,0.0
2025/05/21 11:47:32.583264517,1747820852,582968827,mA1/imu,0.1206094014844763,0.9926996416922842,0.000740671155336638,0.0004950391969447024,0.0,0.0,0.0,0.0,0.0,0.0,0.0,0.0,0.0,-0.0008692466692373818,7.502959618035149e-06,-4.3563071169436164e-07,0.0,0.0,0.0,0.0,0.0,0.0,0.0,0.0,0.0,0.007932587889504246,0.5541681357051021,9.811175988676954,0.0,0.0,0.0,0.0,0.0,0.0,0.0,0.0,0.0
2025/05/21 11:47:32.636891278,1747820852,636662286,mA1/imu,0.12060938953629621,0.9926996400366284,0.0007445075462439424,0.0004955152305580903,0.0,0.0,0.0,0.0,0.0,0.0,0.0,0.0,0.0,-0.0007402882898450511,-2.558876291297266e-07,-4.192136220981288e-07,0.0,0.0,0.0,0.0,0.0,0.0,0.0,0.0,0.0,0.008276276035613817,-0.06664801877620999,9.809719549302221,0.0,0.0,0.0,0.0,0.0,0.0,0.0,0.0,0.0
2025/05/21 11:47:32.678904209,1747820852,678436845,mA1/imu,0.12060938185893212,0.9926996441980391,0.000740471996833783,0.0004950938443850882,0.0,0.0,0.0,0.0,0.0,0.0,0.0,0.0,0.0,0.0008534452514974069,-9.016426718872288e-06,-3.648182435611713e-07,0.0,0.0,0.0,0.0,0.0,0.0,0.0,0.0,0.0,0.00786000172102811,-0.5851128815621255,9.808660929602157,0.0,0.0,0.0,0.0,0.0,0.0,0.0,0.0,0.0
2025/05/21 11:47:32.729879791,1747820852,729486777,mA1/imu,0.12060937376359372,0.9926996478087186,0.0007371818591775695,0.0004947359965174549,0.0,0.0,0.0,0.0,0.0,0.0,0.0,0.0,0.0,0.0007139458589429243,-2.1965494682050404e-06,-3.7726990411457694e-07,0.0,0.0,0.0,0.0,0.0,0.0,0.0,0.0,0.0,0.007514376914002467,0.03523728766718392,9.810378500879086,0.0,0.0,0.0,0.0,0.0,0.0,0.0,0.0,0.0
2025/05/21 11:47:32.779657672,1747820852,779472486,mA1/imu,0.12060936145658471,0.9926996455413658,0.0007418508494544837,0.0004953063687060952,0.0,0.0,0.0,0.0,0.0,0.0,0.0,0.0,0.0,-0.0008790507549921388,5.973342985709946e-06,-4.2849329925339345e-07,0.0,0.0,0.0,0.0,0.0,0.0,0.0,0.0,0.0,0.007926236253009124,0.5541668075351288,9.811195035186344,0.0,0.0,0.0,0.0,0.0,0.0,0.0,0.0,0.0
2025/05/21 11:47:32.831893883,1747820852,831660899,mA1/imu,0.12060934959566695,0.9926996436906765,0.0007458912646595952,0.0004958353911243777,0.0,0.0,0.0,0.0,0.0,0.0,0.0,0.0,0.0,-0.0007475987286747983,-1.0313109687390699e-06,-4.124763242399157e-07,0.0,0.0,0.0,0.0,0.0,0.0,0.0,0.0,0.0,0.008269618388680318,-0.06664550101231904,9.809724639061693,0.0,0.0,0.0,0.0,0.0,0.0,0.0,0.0,0.0
2025/05/21 11:47:32.882629784,1747820852,882318026,mA1/imu,0.12060934199489932,0.9926996477102787,0.0007420194257476995,0.0004954458776570322,0.0,0.0,0.0,0.0,0.0,0.0,0.0,0.0,0.0,0.0008475405150482617,-9.18493242932697e-06,-3.5913543121032894e-07,0.0,0.0,0.0,0.0,0.0,0.0,0.0,0.0,0.0,0.007850063567021308,-0.5852029283133717,9.808662351096398,0.0,0.0,0.0,0.0,0.0,0.0,0.0,0.0,0.0
2025/05/21 11:47:32.935614358,1747820852,933607512,mA1/imu,0.12060933396839527,0.9926996512438083,0.0007388197460017486,0.0004951015089722875,0.0,0.0,0.0,0.0,0.0,0.0,0.0,0.0,0.0,0.000711704403233955,-2.1949018523468683e-06,-3.735792112488321e-07,0.0,0.0,0.0,0.0,0.0,0.0,0.0,0.0,0.0,0.0075229373089961485,0.035199950765102336,9.810386111080126,0.0,0.0,0.0,0.0,0.0,0.0,0.0,0.0,0.0
2025/05/21 11:47:32.985527001,1747820852,984042588,mA1/imu,0.12060932171247855,0.9926996489597488,0.0007434929369304797,0.0004956707573864664,0.0,0.0,0.0,0.0,0.0,0.0,0.0,0.0,0.0,-0.0008778926417225875,5.9859995198202095e-06,-4.273551410349017e-07,0.0,0.0,0.0,0.0,0.0,0.0,0.0,0.0,0.0,0.007935660016546397,0.554154221324522,9.811202224820534,0.0,0.0,0.0,0.0,0.0,0.0,0.0,0.0,0.0
2025/05/21 11:47:33.27773393,1747820853,27407740,mA1/imu,0.1206093098982447,0.992699647269091,0.0007473230197493258,0.000496171337213097,0.0,0.0,0.0,0.0,0.0,0.0,0.0,0.0,0.0,-0.0007396236881855179,-7.724756130461886e-07,-4.1839111402202163e-07,0.0,0.0,0.0,0.0,0.0,0.0,0.0,0.0,0.0,0.008263236088884402,-0.06639203308503293,9.809715834665344,0.0,0.0,0.0,0.0,0.0,0.0,0.0,0.0,0.0
2025/05/21 11:47:33.80922101,1747820853,77884062,mA1/imu,0.1206093021481142,0.9926996514844925,0.000743248982268886,0.0004957407210374359,0.0,0.0,0.0,0.0,0.0,0.0,0.0,0.0,0.0,0.0008561084131617235,-8.49119857684495e-06,-3.7116024271785087e-07,0.0,0.0,0.0,0.0,0.0,0.0,0.0,0.0,0.0,0.007856502459294134,-0.585091549665854,9.80866248599924,0.0,0.0,0.0,0.0,0.0,0.0,0.0,0.0,0.0
2025/05/21 11:47:33.129673322,1747820853,129141288,mA1/imu,0.12060929391785982,0.9926996553175015,0.000739732772908442,0.000495326734205068,0.0,0.0,0.0,0.0,0.0,0.0,0.0,0.0,0.0,0.0007250632440580333,-7.362761389962773e-07,-3.886964190345902e-07,0.0,0.0,0.0,0.0,0.0,0.0,0.0,0.0,0.0,0.0075180806878145275,0.035483929444519655,9.810392592091102,0.0,0.0,0.0,0.0,0.0,0.0,0.0,0.0,0.0
2025/05/21 11:47:33.180295651,1747820853,180067979,mA1/imu,0.12060928137869363,0.9926996533354452,0.000744096459007359,0.0004958159555346084,0.0,0.0,0.0,0.0,0.0,0.0,0.0,0.0,0.0,-0.0008653832353694946,7.801654751942582e-06,-4.4445140413230723e-07,0.0,0.0,0.0,0.0,0.0,0.0,0.0,0.0,0.0,0.00793281796319412,0.5542685409411309,9.811174921537306,0.0,0.0,0.0,0.0,0.0,0.0,0.0,0.0,0.0
2025/05/21 11:47:33.232399662,1747820853,231393807,mA1/imu,0.12060926922558206,0.992699651843489,0.0007477602873268007,0.0004962471555060193,0.0,0.0,0.0,0.0,0.0,0.0,0.0,0.0,0.0,-0.0007310634814301512,1.1153690162628146e-06,-4.315794280229976e-07,0.0,0.0,0.0,0.0,0.0,0.0,0.0,0.0,0.0,0.00826580414835555,-0.06661077449416554,9.809720090418725,0.0,0.0,0.0,0.0,0.0,0.0,0.0,0.0,0.0
2025/05/21 11:47:33.284614051,1747820853,284347750,mA1/imu,0.12060926130478385,0.9926996563031197,0.0007434417126430861,0.0004957394501162134,0.0,0.0,0.0,0.0,0.0,0.0,0.0,0.0,0.0,0.0008668377484007673,-6.546918373698659e-06,-3.802026166830633e-07,0.0,0.0,0.0,0.0,0.0,0.0,0.0,0.0,0.0,0.007853550832141329,-0.5851832166056373,9.80867487476092,0.0,0.0,0.0,0.0,0.0,0.0,0.0,0.0,0.0
2025/05/21 11:47:33.337961741,1747820853,336916282,mA1/imu,0.12060925293660392,0.9926996603235511,0.0007397381972829347,0.0004952645557805539,0.0,0.0,0.0,0.0,0.0,0.0,0.0,0.0,0.0,0.0007331574743151484,6.176263992982635e-07,-3.961866525486589e-07,0.0,0.0,0.0,0.0,0.0,0.0,0.0,0.0,0.0,0.00752018235128765,0.03521412807529936,9.810374434589527,0.0,0.0,0.0,0.0,0.0,0.0,0.0,0.0,0.0
2025/05/21 11:47:33.376790489,1747820853,376580162,mA1/imu,0.12060924032820347,0.9926996585524633,0.0007438718878577956,0.0004956933434195713,0.0,0.0,0.0,0.0,0.0,0.0,0.0,0.0,0.0,-0.0008553558703427556,9.102346442006364e-06,-4.5042559793243076e-07,0.0,0.0,0.0,0.0,0.0,0.0,0.0,0.0,0.0,0.007930323656437314,0.5541558163858444,9.811168188129429,0.0,0.0,0.0,0.0,0.0,0.0,0.0,0.0,0.0
2025/05/21 11:47:33.428132400,1747820853,427560700,mA1/imu,0.12060922814443638,0.9926996572842368,0.0007472857854219436,0.0004960626138380044,0.0,0.0,0.0,0.0,0.0,0.0,0.0,0.0,0.0,-0.0007208239151728522,2.4321578401261754e-06,-4.3651300838951354e-07,0.0,0.0,0.0,0.0,0.0,0.0,0.0,0.0,0.0,0.008264151448154589,-0.0666583724175949,9.809718337821526,0.0,0.0,0.0,0.0,0.0,0.0,0.0,0.0,0.0
2025/05/21 11:47:33.484734000,1747820853,484522994,mA1/imu,0.12060922020939112,0.9926996619523862,0.0007427263364315235,0.0004954974167201767,0.0,0.0,0.0,0.0,0.0,0.0,0.0,0.0,0.0,0.000876317017760209,-5.571290879661247e-06,-3.846009732613179e-07,0.0,0.0,0.0,0.0,0.0,0.0,0.0,0.0,0.0,0.007854154532239569,-0.5852049335843313,9.808670536052277,0.0,0.0,0.0,0.0,0.0,0.0,0.0,0.0,0.0
2025/05/21 11:47:33.536691436,1747820853,535260050,mA1/imu,0.12060921183597269,0.9926996661519404,0.0007388097298089604,0.0004949770850927087,0.0,0.0,0.0,0.0,0.0,0.0,0.0,0.0,0.0,0.000741214279588165,1.1876382059717753e-06,-3.9986286695270724e-07,0.0,0.0,0.0,0.0,0.0,0.0,0.0,0.0,0.0,0.007522701150684923,0.03520266759692852,9.81036884642866,0.0,0.0,0.0,0.0,0.0,0.0,0.0,0.0,0.0
2025/05/21 11:47:33.578772405,1747820853,578449848,mA1/imu,0.12060919922793824,0.9926996645263003,0.0007427701103737894,0.0004953822051766744,0.0,0.0,0.0,0.0,0.0,0.0,0.0,0.0,0.0,-0.0008491481401837799,8.863686881343148e-06,-4.5372874783640447e-07,0.0,0.0,0.0,0.0,0.0,0.0,0.0,0.0,0.0,0.007936550512832475,0.5541507370990063,9.81116734358931,0.0,0.0,0.0,0.0,0.0,0.0,0.0,0.0,0.0
2025/05/21 11:47:33.636515926,1747820853,633518819,mA1/imu,0.12060927310837834,0.9926996528231582,0.0007460301277712327,0.0004959476770119746,0.0,0.0,0.0,0.0,0.0,0.0,0.0,0.0,0.0,-0.0007156051073002416,-3.852595635869058e-05,1.1573584493032258e-05,0.0,0.0,0.0,0.0,0.0,0.0,0.0,0.0,0.0,0.014332095282727173,-0.06473651958527196,9.809907534870739,0.0,0.0,0.0,0.0,0.0,0.0,0.0,0.0,0.0
2025/05/21 11:47:33.686375670,1747820853,685829757,mA1/imu,0.1206101709582186,0.9926995461397136,0.0007406790715307353,0.0004991492251522494,0.0,0.0,0.0,0.0,0.0,0.0,0.0,0.0,0.0,0.0008933740885021238,-0.0002333570262343536,5.2200163871386636e-05,0.0,0.0,0.0,0.0,0.0,0.0,0.0,0.0,0.0,0.013766624255001879,-0.5835639920647269,9.808846223305476,0.0,0.0,0.0,0.0,0.0,0.0,0.0,0.0,0.0
2025/05/21 11:47:33.729667585,1747820853,728386138,mA1/imu,0.12061208412046331,0.9926993140803856,0.0007350982827774072,0.0005065757248412894,0.0,0.0,0.0,0.0,0.0,0.0,0.0,0.0,0.0,0.0007744290888403851,-0.0003835161627864688,9.31339533551079e-05,0.0,0.0,0.0,0.0,0.0,0.0,0.0,0.0,0.0,0.012832777180804424,0.03741702735526061,9.810184644976351,0.0,0.0,0.0,0.0,0.0,0.0,0.0,0.0,0.0
2025/05/21 11:47:33.781044966,1747820853,779856748,mA1/imu,0.12061499426278548,0.9926989533538904,0.0007365554325761985,0.0005183195667412037,0.0,0.0,0.0,0.0,0.0,0.0,0.0,0.0,0.0,-0.000783577811183704,-0.0004985876064765224,0.00013242135713403513,0.0,0.0,0.0,0.0,0.0,0.0,0.0,0.0,0.0,0.012958409776013508,0.550265453740093,9.810999358223414,0.0,0.0,0.0,0.0,0.0,0.0,0.0,0.0,0.0
2025/05/21 11:47:33.834083425,1747820853,832971341,mA1/imu,0.12061889452606825,0.9926984724458018,0.0007360254816575317,0.0005323096572733769,0.0,0.0,0.0,0.0,0.0,0.0,0.0,0.0,0.0,-0.0006377394433492135,-0.0005842786835475647,0.00017288077013501922,0.0,0.0,0.0,0.0,0.0,0.0,0.0,0.0,0.0,0.01276622000039603,-0.06393877359401601,9.809841965642692,0.0,0.0,0.0,0.0,0.0,0.0,0.0,0.0,0.0
2025/05/21 11:47:33.881774575,1747820853,881478136,mA1/imu,0.12062378477134722,0.992697876554059,0.0007277468266105735,0.0005466416141326938,0.0,0.0,0.0,0.0,0.0,0.0,0.0,0.0,0.0,0.0009459385606956505,-0.0006259794516131025,0.00021223535941585143,0.0,0.0,0.0,0.0,0.0,0.0,0.0,0.0,0.0,0.012099863362131758,-0.5834857779669528,9.80887154608308,0.0,0.0,0.0,0.0,0.0,0.0,0.0,0.0,0.0
2025/05/21 11:47:33.934540733,1747820853,933035008,mA1/imu,0.1206296599995023,0.9926971600489273,0.0007202998606321396,0.000561005623863439,0.0,0.0,0.0,0.0,0.0,0.0,0.0,0.0,0.0,0.0008070676704044171,-0.0005942756203801396,0.0002522346180643031,0.0,0.0,0.0,0.0,0.0,0.0,0.0,0.0,0.0,0.010898656385789952,0.03770474496469808,9.810232785616366,0.0,0.0,0.0,0.0,0.0,0.0,0.0,0.0,0.0
2025/05/21 11:47:33.983837620,1747820853,983400939,mA1/imu,0.12063651902706807,0.9926963179296902,0.0007210542546634094,0.0005750883662877975,0.0,0.0,0.0,0.0,0.0,0.0,0.0,0.0,0.0,-0.0007883424565008233,-0.0005180365389277681,0.00029157826346364914,0.0,0.0,0.0,0.0,0.0,0.0,0.0,0.0,0.0,0.011034899513349383,0.5564273276677728,9.810960059193121,0.0,0.0,0.0,0.0,0.0,0.0,0.0,0.0,0.0
2025/05/21 11:47:34.26710843,1747820854,26404995,mA1/imu,0.12064441447988535,0.992695351105801,0.0007216759462151166,0.0005867977207130242,0.0,0.0,0.0,0.0,0.0,0.0,0.0,0.0,0.0,-0.0006699885408956645,-0.0004131361132514708,0.00033507053217509574,0.0,0.0,0.0,0.0,0.0,0.0,0.0,0.0,0.0,0.01094432774250748,-0.06584134103063587,9.809858614207162,0.0,0.0,0.0,0.0,0.0,0.0,0.0,0.0,0.0
2025/05/21 11:47:34.76588561,1747820854,76208896,mA1/imu,0.12065338170408382,0.9926942615501325,0.0007150834956134971,0.0005943268461924762,0.0,0.0,0.0,0.0,0.0,0.0,0.0,0.0,0.0,0.0009093444413165095,-0.0002790349239505836,0.00037840167729079755,0.0,0.0,0.0,0.0,0.0,0.0,0.0,0.0,0.0,0.010307580817140113,-0.5844151667168874,9.808875455264179,0.0,0.0,0.0,0.0,0.0,0.0,0.0,0.0,0.0
2025/05/21 11:47:34.130203578,1747820854,129854800,mA1/imu,0.12066345031564378,0.9926930392558684,0.0007100026474493979,0.0005978855340555884,0.0,0.0,0.0,0.0,0.0,0.0,0.0,0.0,0.0,0.0007615487177327741,-9.451341203791286e-05,0.0004244423903093048,0.0,0.0,0.0,0.0,0.0,0.0,0.0,0.0,0.0,0.009170292131991015,0.03731058017079411,9.81027670409341,0.0,0.0,0.0,0.0,0.0,0.0,0.0,0.0,0.0
2025/05/21 11:47:34.181127479,1747820854,180654823,mA1/imu,0.12067468368093108,0.992691671095591,0.0007137680212723035,0.0005978220154741053,0.0,0.0,0.0,0.0,0.0,0.0,0.0,0.0,0.0,-0.000843339737703479,0.00010371984607392742,0.00047133008414564065,0.0,0.0,0.0,0.0,0.0,0.0,0.0,0.0,0.0,0.009404682933183412,0.5561815565070274,9.811033407216634,0.0,0.0,0.0,0.0,0.0,0.0,0.0,0.0,0.0
2025/05/21 11:47:34.232581257,1747820854,232325098,mA1/imu,0.12068718193167317,0.9926901516791677,0.0007178460090005099,0.0005929364970780275,0.0,0.0,0.0,0.0,0.0,0.0,0.0,0.0,0.0,-0.0007260157457750927,0.0002923730346904861,0.0005252061436693474,0.0,0.0,0.0,0.0,0.0,0.0,0.0,0.0,0.0,0.009491531740055565,-0.06554176203972402,9.809831603201351,0.0,0.0,0.0,0.0,0.0,0.0,0.0,0.0,0.0
2025/05/21 11:47:34.282697610,1747820854,282264638,mA1/imu,0.1207010143516696,0.9926884781415589,0.0007150294283877763,0.0005824365978725376,0.0,0.0,0.0,0.0,0.0,0.0,0.0,0.0,0.0,0.0008429013318438203,0.0004681319600690497,0.0005794136748104734,0.0,0.0,0.0,0.0,0.0,0.0,0.0,0.0,0.0,0.00891598203632815,-0.5843880363289908,9.808821331638999,0.0,0.0,0.0,0.0,0.0,0.0,0.0,0.0,0.0
2025/05/21 11:47:34.335806043,1747820854,335536779,mA1/imu,0.12071626785883925,0.9926866327215939,0.0007139524298801929,0.0005675931855271321,0.0,0.0,0.0,0.0,0.0,0.0,0.0,0.0,0.0,0.0006894940463441903,0.0006498950922100374,0.0006391036778697673,0.0,0.0,0.0,0.0,0.0,0.0,0.0,0.0,0.0,0.00806455748305272,0.037129018708942745,9.810287417710137,0.0,0.0,0.0,0.0,0.0,0.0,0.0,0.0,0.0
2025/05/21 11:47:34.376194798,1747820854,376018800,mA1/imu,0.12073301940027928,0.9926845998591625,0.0007217070063680446,0.0005498799352554498,0.0,0.0,0.0,0.0,0.0,0.0,0.0,0.0,0.0,-0.000916732353020748,0.0008031480534487156,0.0007008506159288233,0.0,0.0,0.0,0.0,0.0,0.0,0.0,0.0,0.0,0.007929028568977457,0.5559669293386938,9.811064879554447,0.0,0.0,0.0,0.0,0.0,0.0,0.0,0.0,0.0
2025/05/21 11:47:34.427216660,1747820854,426492569,mA1/imu,0.12075141918669952,0.9926823673845172,0.0007296157906439408,0.0005290643310492169,0.0,0.0,0.0,0.0,0.0,0.0,0.0,0.0,0.0,-0.0008036568130675151,0.0009054143095325834,0.0007695159990678954,0.0,0.0,0.0,0.0,0.0,0.0,0.0,0.0,0.0,0.008505393589859349,-0.06612539468181317,9.809797215049636,0.0,0.0,0.0,0.0,0.0,0.0,0.0,0.0,0.0
2025/05/21 11:47:34.480257489,1747820854,479085800,mA1/imu,0.12077153554565326,0.9926799325842341,0.0007296678051075596,0.0005052043145239063,0.0,0.0,0.0,0.0,0.0,0.0,0.0,0.0,0.0,0.0008067971518508062,0.0009632735252203515,0.0008392260567583537,0.0,0.0,0.0,0.0,0.0,0.0,0.0,0.0,0.0,0.007867695702805304,-0.5825396742557811,9.808783571913528,0.0,0.0,0.0,0.0,0.0,0.0,0.0,0.0,0.0
2025/05/21 11:47:34.537260976,1747820854,536163914,mA1/imu,0.12079391312672566,0.9926772216479262,0.000730957902338025,0.000479451178166004,0.0,0.0,0.0,0.0,0.0,0.0,0.0,0.0,0.0,0.0006468114018441951,0.0010575477530924793,0.0009447072579956993,0.0,0.0,0.0,0.0,0.0,0.0,0.0,0.0,0.0,0.005541984164982148,0.03781875597727205,9.81022997678054,0.0,0.0,0.0,0.0,0.0,0.0,0.0,0.0,0.0
2025/05/21 11:47:34.577974560,1747820854,576347458,mA1/imu,0.1208189053914111,0.9926741851486539,0.00074075750136533,0.0004533407123244658,0.0,0.0,0.0,0.0,0.0,0.0,0.0,0.0,0.0,-0.0009543802404534383,0.00109853571471277,0.0010501561437009576,0.0,0.0,0.0,0.0,0.0,0.0,0.0,0.0,0.0,0.005795382265428551,0.5562165641844866,9.810994867616454,0.0,0.0,0.0,0.0,0.0,0.0,0.0,0.0,0.0
2025/05/21 11:47:34.634203492,1747820854,630120091,mA1/imu,0.12084666448016577,0.9926708108417645,0.0007500651530129076,0.00042707029668808414,0.0,0.0,0.0,0.0,0.0,0.0,0.0,0.0,0.0,-0.0008132254075853573,0.0010787369937579308,0.00116555358418466,0.0,0.0,0.0,0.0,0.0,0.0,0.0,0.0,0.0,0.00592489402166461,-0.07272717257964845,9.80989240869886,0.0,0.0,0.0,0.0,0.0,0.0,0.0,0.0,0.0
2025/05/21 11:47:34.681086647,1747820854,680690984,mA1/imu,0.12087730346948423,0.9926670904527535,0.0007512095714602874,0.0004009017222682802,0.0,0.0,0.0,0.0,0.0,0.0,0.0,0.0,0.0,0.0007667499595771451,0.0010091865626626474,0.0012827571966127279,0.0,0.0,0.0,0.0,0.0,0.0,0.0,0.0,0.0,0.004912258182672679,-0.5840800670362255,9.808837471656194,0.0,0.0,0.0,0.0,0.0,0.0,0.0,0.0,0.0
2025/05/21 11:47:34.732211225,1747820854,731967221,mA1/imu,0.12091096659941165,0.9926629988696478,0.0007528602152920557,0.0003768721397796986,0.0,0.0,0.0,0.0,0.0,0.0,0.0,0.0,0.0,0.0006343873570230248,0.0009160743474990722,0.0014067958112921558,0.0,0.0,0.0,0.0,0.0,0.0,0.0,0.0,0.0,0.0045067735333301955,0.03709681857506422,9.810187048101515,0.0,0.0,0.0,0.0,0.0,0.0,0.0,0.0,0.0
2025/05/21 11:47:34.784130349,1747820854,782834419,mA1/imu,0.12094771283582648,0.9926585227929597,0.0007619192834386647,0.00035688273576175533,0.0,0.0,0.0,0.0,0.0,0.0,0.0,0.0,0.0,-0.0009466132091552423,0.0007861246688744307,0.001532617752114513,0.0,0.0,0.0,0.0,0.0,0.0,0.0,0.0,0.0,0.004215698919970682,0.5558016604184013,9.81095609471856,0.0,0.0,0.0,0.0,0.0,0.0,0.0,0.0,0.0
2025/05/21 11:47:34.834112222,1747820854,833699384,mA1/imu,0.12098770573514583,0.9926536488870276,0.0007696586919924467,0.00034064308807007815,0.0,0.0,0.0,0.0,0.0,0.0,0.0,0.0,0.0,-0.00080831476900395,0.0006138478620154219,0.0016652131716117494,0.0,0.0,0.0,0.0,0.0,0.0,0.0,0.0,0.0,0.0047037158132300656,-0.06617235692728937,9.80990769360217,0.0,0.0,0.0,0.0,0.0,0.0,0.0,0.0,0.0
2025/05/21 11:47:34.880228380,1747820854,876226251,mA1/imu,0.12103100151166296,0.9926483759942579,0.0007686501881990833,0.0003278504755079181,0.0,0.0,0.0,0.0,0.0,0.0,0.0,0.0,0.0,0.0007965452175261531,0.0004180563471962959,0.0017978920433817222,0.0,0.0,0.0,0.0,0.0,0.0,0.0,0.0,0.0,0.004008112174313112,-0.5847361572625427,9.808886756591487,0.0,0.0,0.0,0.0,0.0,0.0,0.0,0.0,0.0
2025/05/21 11:47:34.929649099,1747820854,929322089,mA1/imu,0.12107772395202655,0.992642681817135,0.0007673490124306897,0.000319645078310873,0.0,0.0,0.0,0.0,0.0,0.0,0.0,0.0,0.0,0.0006816177521419354,0.00024345438532017018,0.0019395401069359085,0.0,0.0,0.0,0.0,0.0,0.0,0.0,0.0,0.0,0.002798700904190778,0.036777780390186254,9.810191103826996,0.0,0.0,0.0,0.0,0.0,0.0,0.0,0.0,0.0
2025/05/21 11:47:34.982978851,1747820854,980360725,mA1/imu,0.12112795247453674,0.9926365504566367,0.0007729191144373893,0.00031689575199969915,0.0,0.0,0.0,0.0,0.0,0.0,0.0,0.0,0.0,-0.0008865430978171402,6.852599905059023e-05,0.0020809918264016237,0.0,0.0,0.0,0.0,0.0,0.0,0.0,0.0,0.0,0.0029123569034438853,0.5556757647376759,9.810969017394957,0.0,0.0,0.0,0.0,0.0,0.0,0.0,0.0,0.0
2025/05/21 11:47:35.31929036,1747820855,31335789,mA1/imu,0.12118184419175118,0.9926299692228784,0.0007768630089942222,0.00031831232948746765,0.0,0.0,0.0,0.0,0.0,0.0,0.0,0.0,0.0,-0.0007398643583708022,-0.00010170111866278922,0.002232314514734963,0.0,0.0,0.0,0.0,0.0,0.0,0.0,0.0,0.0,0.0027258533027672734,-0.06621901446709047,9.80993669333849,0.0,0.0,0.0,0.0,0.0,0.0,0.0,0.0,0.0
2025/05/21 11:47:35.81423879,1747820855,81176125,mA1/imu,0.12123951728126425,0.9926229291554913,0.0007719836035942217,0.0003224988280711809,0.0,0.0,0.0,0.0,0.0,0.0,0.0,0.0,0.0,0.0008698573380109904,-0.00025347674731465665,0.002385655351509035,0.0,0.0,0.0,0.0,0.0,0.0,0.0,0.0,0.0,0.0015545684710790639,-0.5846982276928588,9.808901303185571,0.0,0.0,0.0,0.0,0.0,0.0,0.0,0.0,0.0
2025/05/21 11:47:35.133445880,1747820855,132297748,mA1/imu,0.12130114061230866,0.9926154020734174,0.0007669501637850445,0.00032960616982038136,0.0,0.0,0.0,0.0,0.0,0.0,0.0,0.0,0.0,0.000755756948085612,-0.0003488933711503813,0.0025475834784820677,0.0,0.0,0.0,0.0,0.0,0.0,0.0,0.0,0.0,0.00063710355817729,0.03652744632502827,9.810184930900292,0.0,0.0,0.0,0.0,0.0,0.0,0.0,0.0,0.0
2025/05/21 11:47:35.182549978,1747820855,182188394,mA1/imu,0.12136676812965601,0.9926073748614589,0.0007691058904989712,0.00033976541182936,0.0,0.0,0.0,0.0,0.0,0.0,0.0,0.0,0.0,-0.0008146141420345386,-0.0004152268069814105,0.0027094884149509906,0.0,0.0,0.0,0.0,0.0,0.0,0.0,0.0,0.0,0.0007807739172729479,0.5554140040423117,9.810983080441353,0.0,0.0,0.0,0.0,0.0,0.0,0.0,0.0,0.0
2025/05/21 11:47:35.233891895,1747820855,233405417,mA1/imu,0.12143654453387012,0.9925988360737679,0.0007700973447439927,0.000351036685243663,0.0,0.0,0.0,0.0,0.0,0.0,0.0,0.0,0.0,-0.0006721909302709789,-0.0004532436014635385,0.002879940515359584,0.0,0.0,0.0,0.0,0.0,0.0,0.0,0.0,0.0,0.0005714371129259153,-0.06598540590169445,9.80996640801531,0.0,0.0,0.0,0.0,0.0,0.0,0.0,0.0,0.0
2025/05/21 11:47:35.283425716,1747820855,282952265,mA1/imu,0.12151057242157924,0.9925897783629228,0.0007628433697115445,0.00036159261172879933,0.0,0.0,0.0,0.0,0.0,0.0,0.0,0.0,0.0,0.0009303124209179136,-0.0004617135385937117,0.0030506597522038585,0.0,0.0,0.0,0.0,0.0,0.0,0.0,0.0,0.0,-9.924510452959286e-05,-0.5846289034196007,9.808906576503174,0.0,0.0,0.0,0.0,0.0,0.0,0.0,0.0,0.0
2025/05/21 11:47:35.335542602,1747820855,334645997,mA1/imu,0.12158899932668517,0.9925801759094164,0.0007561244129895248,0.00037136267922747876,0.0,0.0,0.0,0.0,0.0,0.0,0.0,0.0,0.0,0.0008053756967948089,-0.00040112652730988816,0.003232390347269121,0.0,0.0,0.0,0.0,0.0,0.0,0.0,0.0,0.0,-0.0014693587501512506,0.03642076437364175,9.810166215565019,0.0,0.0,0.0,0.0,0.0,0.0,0.0,0.0,0.0
2025/05/21 11:47:35.380916476,1747820855,378665413,mA1/imu,0.12167188729557385,0.9925700147148073,0.0007570130102522974,0.00038034495251491093,0.0,0.0,0.0,0.0,0.0,0.0,0.0,0.0,0.0,-0.0007642270324002291,-0.0003139334096905678,0.003412495098371936,0.0,0.0,0.0,0.0,0.0,0.0,0.0,0.0,0.0,-0.001210065614986531,0.5563443995683749,9.81093102864371,0.0,0.0,0.0,0.0,0.0,0.0,0.0,0.0,0.0
2025/05/21 11:47:35.430023115,1747820855,429677956,mA1/imu,0.12175935406126473,0.99255928586542,0.0007576763312869934,0.0003868688253926226,0.0,0.0,0.0,0.0,0.0,0.0,0.0,0.0,0.0,-0.000644899249485362,-0.00021237549214354255,0.003599757331422896,0.0,0.0,0.0,0.0,0.0,0.0,0.0,0.0,0.0,-0.0011933084683145162,-0.06617455756646402,9.809933481798733,0.0,0.0,0.0,0.0,0.0,0.0,0.0,0.0,0.0
2025/05/21 11:47:35.480513327,1747820855,480216114,mA1/imu,0.1218514613343688,0.9925479865461541,0.0007510065676820916,0.0003895676956534162,0.0,0.0,0.0,0.0,0.0,0.0,0.0,0.0,0.0,0.0009375874163115132,-0.0001023181143563747,0.003785350240011001,0.0,0.0,0.0,0.0,0.0,0.0,0.0,0.0,0.0,-0.0017168400099758646,-0.5850103811584676,9.808932868577434,0.0,0.0,0.0,0.0,0.0,0.0,0.0,0.0,0.0
2025/05/21 11:47:35.533563245,1747820855,531374757,mA1/imu,0.12194830704242729,0.9925360966147624,0.0007456578324752636,0.0003889995038186138,0.0,0.0,0.0,0.0,0.0,0.0,0.0,0.0,0.0,0.0007945529695321674,4.890345232265553e-05,0.003980389832730821,0.0,0.0,0.0,0.0,0.0,0.0,0.0,0.0,0.0,-0.0027968966840797374,0.03641605866691255,9.810176689042969,0.0,0.0,0.0,0.0,0.0,0.0,0.0,0.0,0.0
2025/05/21 11:47:35.582994025,1747820855,581003695,mA1/imu,0.12204994382059461,0.9925236024157512,0.0007489237027946049,0.00038597193776300715,0.0,0.0,0.0,0.0,0.0,0.0,0.0,0.0,0.0,-0.0008060948336574077,0.0001938845797963916,0.004175959247548952,0.0,0.0,0.0,0.0,0.0,0.0,0.0,0.0,0.0,-0.0022495843915279895,0.5553026673417176,9.810924112689923,0.0,0.0,0.0,0.0,0.0,0.0,0.0,0.0,0.0
2025/05/21 11:47:35.636615265,1747820855,635678115,mA1/imu,0.12215658814014489,0.992510482391776,0.0007522855835549359,0.00037997737291004137,0.0,0.0,0.0,0.0,0.0,0.0,0.0,0.0,0.0,-0.0006939269617175267,0.0002947280716207101,0.004379791082597431,0.0,0.0,0.0,0.0,0.0,0.0,0.0,0.0,0.0,-0.0013404918458985518,-0.06692488301121637,9.80993996536996,0.0,0.0,0.0,0.0,0.0,0.0,0.0,0.0,0.0
2025/05/21 11:47:35.676782951,1747820855,676395560,mA1/imu,0.12226828295309036,0.9924967352172498,0.0007484658654386363,0.00037062872487069864,0.0,0.0,0.0,0.0,0.0,0.0,0.0,0.0,0.0,0.0008801047547015643,0.00037411064365674594,0.00458190199646583,0.0,0.0,0.0,0.0,0.0,0.0,0.0,0.0,0.0,-0.0017828960100889288,-0.5855050806778513,9.808928719672997,0.0,0.0,0.0,0.0,0.0,0.0,0.0,0.0,0.0
2025/05/21 11:47:35.729819038,1747820855,727793203,mA1/imu,0.12238513669906995,0.9924823387368935,0.0007460121154668373,0.00035927206905928905,0.0,0.0,0.0,0.0,0.0,0.0,0.0,0.0,0.0,0.0007297603854888714,0.00046339918571597783,0.004794221957795534,0.0,0.0,0.0,0.0,0.0,0.0,0.0,0.0,0.0,-0.002888248570135983,0.03624592573034857,9.810157906504612,0.0,0.0,0.0,0.0,0.0,0.0,0.0,0.0,0.0
2025/05/21 11:47:35.777927309,1747820855,777715832,mA1/imu,0.1225071901268782,0.9924672800968305,0.0007520845152112859,0.00034738062438688204,0.0,0.0,0.0,0.0,0.0,0.0,0.0,0.0,0.0,-0.0008757590599494799,0.0005246054749800778,0.00500364031630296,0.0,0.0,0.0,0.0,0.0,0.0,0.0,0.0,0.0,-0.002498427415153783,0.5551453936756522,9.810922800071891,0.0,0.0,0.0,0.0,0.0,0.0,0.0,0.0,0.0
2025/05/21 11:47:35.828969458,1747820855,828689204,mA1/imu,0.12263450947033976,0.9924515557310712,0.0007580788672601868,0.00033455997449342915,0.0,0.0,0.0,0.0,0.0,0.0,0.0,0.0,0.0,-0.000765201915604917,0.0005447431532589847,0.005217550120877171,0.0,0.0,0.0,0.0,0.0,0.0,0.0,0.0,0.0,-0.0017190820089388412,-0.0671489626021486,9.809933397819057,0.0,0.0,0.0,0.0,0.0,0.0,0.0,0.0,0.0
2025/05/21 11:47:35.879474261,1747820855,878531221,mA1/imu,0.12276712275032962,0.9924351658054896,0.0007566184123406819,0.0003205819921893754,0.0,0.0,0.0,0.0,0.0,0.0,0.0,0.0,0.0,0.0008101953299040687,0.000529735591818372,0.005429196090278701,0.0,0.0,0.0,0.0,0.0,0.0,0.0,0.0,0.0,-0.002135018389108706,-0.5857044190705194,9.808917340445179,0.0,0.0,0.0,0.0,0.0,0.0,0.0,0.0,0.0
2025/05/21 11:47:35.930101381,1747820855,929763664,mA1/imu,0.1229050988806738,0.9924180926790896,0.0007561420669295001,0.0003069877917324087,0.0,0.0,0.0,0.0,0.0,0.0,0.0,0.0,0.0,0.0006645850351853739,0.0005212890496936502,0.005648753257340326,0.0,0.0,0.0,0.0,0.0,0.0,0.0,0.0,0.0,-0.0035170380566806776,0.036194514671587505,9.8101562531325,0.0,0.0,0.0,0.0,0.0,0.0,0.0,0.0,0.0
2025/05/21 11:47:35.979935404,1747820855,979734559,mA1/imu,0.12304843534300008,0.9924003285312424,0.0007637147121260777,0.0002953482015904739,0.0,0.0,0.0,0.0,0.0,0.0,0.0,0.0,0.0,-0.0009329972051020698,0.0004802154328466435,0.00586388231901493,0.0,0.0,0.0,0.0,0.0,0.0,0.0,0.0,0.0,-0.0030286685530831496,0.5551270148200057,9.81093719878699,0.0,0.0,0.0,0.0,0.0,0.0,0.0,0.0,0.0
2025/05/21 11:47:36.31064209,1747820856,30771509,mA1/imu,0.12319718381466947,0.9923818713464192,0.0007706436307384988,0.0002853620651534027,0.0,0.0,0.0,0.0,0.0,0.0,0.0,0.0,0.0,-0.0008114828190690988,0.00039404756703915794,0.006083743662919009,0.0,0.0,0.0,0.0,0.0,0.0,0.0,0.0,0.0,-0.00203715737159353,-0.06723167850639575,9.809949649628583,0.0,0.0,0.0,0.0,0.0,0.0,0.0,0.0,0.0
2025/05/21 11:47:36.80846788,1747820856,80611119,mA1/imu,0.12335134833353342,0.9923627240900349,0.0007695022732639636,0.000276707708529648,0.0,0.0,0.0,0.0,0.0,0.0,0.0,0.0,0.0,0.0007768653399113779,0.0002812666255866844,0.006299931603217966,0.0,0.0,0.0,0.0,0.0,0.0,0.0,0.0,0.0,-0.00242744649491177,-0.5857706444918205,9.808904804394071,0.0,0.0,0.0,0.0,0.0,0.0,0.0,0.0,0.0
2025/05/21 11:47:36.133987953,1747820856,131588557,mA1/imu,0.12350972062946348,0.992343027519577,0.0007690233249290108,0.00027064079049650587,0.0,0.0,0.0,0.0,0.0,0.0,0.0,0.0,0.0,0.0006209162326549525,0.0001778869715452235,0.006411137757671981,0.0,0.0,0.0,0.0,0.0,0.0,0.0,0.0,0.0,-0.003290736842225057,0.03257315025570981,9.810733642037881,0.0,0.0,0.0,0.0,0.0,0.0,0.0,0.0,0.0
2025/05/21 11:47:36.183852205,1747820856,183585458,mA1/imu,0.1236695467751516,0.9923231164909736,0.0007766971782178975,0.0002691088322132085,0.0,0.0,0.0,0.0,0.0,0.0,0.0,0.0,0.0,-0.000991988556152191,4.8858856778026285e-05,0.0064655625921726375,0.0,0.0,0.0,0.0,0.0,0.0,0.0,0.0,0.0,-0.0032723488461604924,0.551978018968623,9.811516151151839,0.0,0.0,0.0,0.0,0.0,0.0,0.0,0.0,0.0
2025/05/21 11:47:36.234867256,1747820856,234553039,mA1/imu,0.12383074894693175,0.9923030069861183,0.000783851837930143,0.0002711417447984134,0.0,0.0,0.0,0.0,0.0,0.0,0.0,0.0,0.0,-0.0008841138287259469,-0.00010522962941563697,0.00652015392647303,0.0,0.0,0.0,0.0,0.0,0.0,0.0,0.0,0.0,-0.0011435406004902953,-0.07072268232656376,9.809305433070364,0.0,0.0,0.0,0.0,0.0,0.0,0.0,0.0,0.0
2025/05/21 11:47:36.284603561,1747820856,284401242,mA1/imu,0.12399330632327646,0.9922827071398522,0.0007830161003593441,0.00027565198138797313,0.0,0.0,0.0,0.0,0.0,0.0,0.0,0.0,0.0,0.0006963956711821718,-0.0002505146332806738,0.006574013309255623,0.0,0.0,0.0,0.0,0.0,0.0,0.0,0.0,0.0,-0.002235210327685896,-0.5889841611268435,9.808312172351698,0.0,0.0,0.0,0.0,0.0,0.0,0.0,0.0,0.0
2025/05/21 11:47:36.336187771,1747820856,335708420,mA1/imu,0.12415732335953622,0.9922621965020586,0.000782565186380883,0.00028291488917369013,0.0,0.0,0.0,0.0,0.0,0.0,0.0,0.0,0.0,0.0005673608301105054,-0.0003353884715572,0.00663528103668319,0.0,0.0,0.0,0.0,0.0,0.0,0.0,0.0,0.0,-0.0043190120596476745,0.03400159407211568,9.810778930410857,0.0,0.0,0.0,0.0,0.0,0.0,0.0,0.0,0.0
2025/05/21 11:47:36.385731075,1747820856,385227087,mA1/imu,0.12432277031075731,0.9922414723286443,0.000789522793015783,0.0002933037710748108,0.0,0.0,0.0,0.0,0.0,0.0,0.0,0.0,0.0,-0.001006664211538529,-0.0004004053913184005,0.006693866918637029,0.0,0.0,0.0,0.0,0.0,0.0,0.0,0.0,0.0,-0.004278551591260842,0.5531847209306181,9.811519334749725,0.0,0.0,0.0,0.0,0.0,0.0,0.0,0.0,0.0
2025/05/21 11:47:36.426827427,1747820856,426655423,mA1/imu,0.12449059251528387,0.9922204228314302,0.000795358703544666,0.00030380247543164944,0.0,0.0,0.0,0.0,0.0,0.0,0.0,0.0,0.0,-0.0008549497239651073,-0.00031656267805170544,0.006850370484180011,0.0,0.0,0.0,0.0,0.0,0.0,0.0,0.0,0.0,-0.012634068638213713,-0.06812934815190522,9.809472198236767,0.0,0.0,0.0,0.0,0.0,0.0,0.0,0.0,0.0
2025/05/21 11:47:36.476680102,1747820856,476486932,mA1/imu,0.12466432407884731,0.9921986105231078,0.0007931095409365916,0.00030749834852054425,0.0,0.0,0.0,0.0,0.0,0.0,0.0,0.0,0.0,0.0007777593308091077,-7.185533923811054e-05,0.007105407128818685,0.0,0.0,0.0,0.0,0.0,0.0,0.0,0.0,0.0,-0.012642339053321126,-0.5862711354126098,9.808502799435276,0.0,0.0,0.0,0.0,0.0,0.0,0.0,0.0,0.0
2025/05/21 11:47:36.528969533,1747820856,527718142,mA1/imu,0.12484435016469154,0.992175977051724,0.0007911270153271662,0.00030481380919421334,0.0,0.0,0.0,0.0,0.0,0.0,0.0,0.0,0.0,0.0006974821574884884,0.00018602158757405216,0.007359357426401894,0.0,0.0,0.0,0.0,0.0,0.0,0.0,0.0,0.0,-0.013393730027774267,0.03642704167458138,9.81072966539863,0.0,0.0,0.0,0.0,0.0,0.0,0.0,0.0,0.0
2025/05/21 11:47:36.577582065,1747820856,577288651,mA1/imu,0.1250305769501783,0.992152524670112,0.0007963769495702265,0.0002973247091549201,0.0,0.0,0.0,0.0,0.0,0.0,0.0,0.0,0.0,-0.0008326792415104748,0.0004069037557271509,0.007606261354429861,0.0,0.0,0.0,0.0,0.0,0.0,0.0,0.0,0.0,-0.01253078035996907,0.5557017913604079,9.81143926045172,0.0,0.0,0.0,0.0,0.0,0.0,0.0,0.0,0.0
2025/05/21 11:47:36.629294139,1747820856,628326674,mA1/imu,0.12523379247172234,0.9921268985809915,0.0008010553998409797,0.0002695282159412009,0.0,0.0,0.0,0.0,0.0,0.0,0.0,0.0,0.0,-0.0005685371805543597,0.0019192838320965066,0.008815439867969432,0.0,0.0,0.0,0.0,0.0,0.0,0.0,0.0,0.0,-0.03906521975982794,-0.06288736897637884,9.808284920641588,0.0,0.0,0.0,0.0,0.0,0.0,0.0,0.0,0.0
2025/05/21 11:47:36.679964187,1747820856,679705259,mA1/imu,0.1254620361919701,0.9920980766528632,0.0007983112637029256,0.00021558149405961533,0.0,0.0,0.0,0.0,0.0,0.0,0.0,0.0,0.0,0.001097588911945067,0.0020722280854228174,0.009336334907659066,0.0,0.0,0.0,0.0,0.0,0.0,0.0,0.0,0.0,-0.0060444447972681885,-0.5852082495445732,9.808458186892157,0.0,0.0,0.0,0.0,0.0,0.0,0.0,0.0,0.0
2025/05/21 11:47:36.731428152,1747820856,730866806,mA1/imu,0.12569727071634848,0.9920683130468533,0.0007941876665087638,0.00016627922945917676,0.0,0.0,0.0,0.0,0.0,0.0,0.0,0.0,0.0,0.0010123526484284418,0.0018049174190744104,0.00958567989865983,0.0,0.0,0.0,0.0,0.0,0.0,0.0,0.0,0.0,-0.007111008425183172,0.037335838330472146,9.810616815285382,0.0,0.0,0.0,0.0,0.0,0.0,0.0,0.0,0.0
2025/05/21 11:47:36.781786244,1747820856,781555125,mA1/imu,0.12593861373885246,0.9920377090249246,0.0007958943105429938,0.00012646881753509276,0.0,0.0,0.0,0.0,0.0,0.0,0.0,0.0,0.0,-0.0005408085352701014,0.001426039757058877,0.0098293043087831,0.0,0.0,0.0,0.0,0.0,0.0,0.0,0.0,0.0,-0.006339868601208107,0.5565035206238054,9.811302788914876,0.0,0.0,0.0,0.0,0.0,0.0,0.0,0.0,0.0
2025/05/21 11:47:36.835623231,1747820856,835299360,mA1/imu,0.126186044368556,0.9920062705221463,0.000794937506389918,9.759979566610546e-05,0.0,0.0,0.0,0.0,0.0,0.0,0.0,0.0,0.0,-0.000394185619364748,0.0009372817774883538,0.010075274190405388,0.0,0.0,0.0,0.0,0.0,0.0,0.0,0.0,0.0,-0.004126287717314986,-0.06587547157614221,9.809258737159949,0.0,0.0,0.0,0.0,0.0,0.0,0.0,0.0,0.0
2025/05/21 11:47:36.885700962,1747820856,885084202,mA1/imu,0.12643951134182838,0.9919740059956295,0.0007841731770898095,8.045527322261631e-05,0.0,0.0,0.0,0.0,0.0,0.0,0.0,0.0,0.0,0.001202923470610014,0.00038951943797128045,0.010317553110638368,0.0,0.0,0.0,0.0,0.0,0.0,0.0,0.0,0.0,-0.00436917293580237,-0.5841908331530096,9.808248871170226,0.0,0.0,0.0,0.0,0.0,0.0,0.0,0.0,0.0
2025/05/21 11:47:36.927331966,1747820856,926946442,mA1/imu,0.12669898568851648,0.9919409077813283,0.000772394107016929,7.682967481880518e-05,0.0,0.0,0.0,0.0,0.0,0.0,0.0,0.0,0.0,0.001064300824345549,-0.00014419892161706218,0.010560277088630037,0.0,0.0,0.0,0.0,0.0,0.0,0.0,0.0,0.0,-0.006520423471624467,0.03817443983030211,9.810485363847668,0.0,0.0,0.0,0.0,0.0,0.0,0.0,0.0,0.0
2025/05/21 11:47:36.977064713,1747820856,976707573,mA1/imu,0.1269644091115929,0.9919069727647076,0.0007671383047971781,8.774120521653056e-05,0.0,0.0,0.0,0.0,0.0,0.0,0.0,0.0,0.0,-0.0005423936488568099,-0.0006718108475697788,0.010797454004856322,0.0,0.0,0.0,0.0,0.0,0.0,0.0,0.0,0.0,-0.005943626520930775,0.5572741510304166,9.81123109098718,0.0,0.0,0.0,0.0,0.0,0.0,0.0,0.0,0.0
2025/05/21 11:47:37.29359099,1747820857,29049561,mA1/imu,0.12723578588447798,0.9918722016026734,0.0007603021626746173,0.00011143987810622268,0.0,0.0,0.0,0.0,0.0,0.0,0.0,0.0,0.0,-0.0004476163887513854,-0.0011740150901088646,0.011038741584655096,0.0,0.0,0.0,0.0,0.0,0.0,0.0,0.0,0.0,-0.0043804503012825685,-0.065142839783703,9.809218704333222,0.0,0.0,0.0,0.0,0.0,0.0,0.0,0.0,0.0
2025/05/21 11:47:37.78551507,1747820857,78263440,mA1/imu,0.12751308001842857,0.9918365984814711,0.0007450832096756822,0.00014556074184363644,0.0,0.0,0.0,0.0,0.0,0.0,0.0,0.0,0.0,0.0011004666239905593,-0.0016164047847932654,0.011276421471260411,0.0,0.0,0.0,0.0,0.0,0.0,0.0,0.0,0.0,-0.004732697336599891,-0.5834942537541074,9.808214788457242,0.0,0.0,0.0,0.0,0.0,0.0,0.0,0.0,0.0
2025/05/21 11:47:37.130906997,1747820857,130559132,mA1/imu,0.12779625083052087,0.9918001557094801,0.0007305357854495798,0.0001890126443111645,0.0,0.0,0.0,0.0,0.0,0.0,0.0,0.0,0.0,0.0009178624608686723,-0.0019290271863800282,0.011515126135818222,0.0,0.0,0.0,0.0,0.0,0.0,0.0,0.0,0.0,-0.007698829025953668,0.038936802316012084,9.810578550303646,0.0,0.0,0.0,0.0,0.0,0.0,0.0,0.0,0.0
2025/05/21 11:47:37.183115282,1747820857,182778461,mA1/imu,0.12808530069598006,0.9917628615365065,0.0007242573975598769,0.00024015362340942725,0.0,0.0,0.0,0.0,0.0,0.0,0.0,0.0,0.0,-0.0007024585171589338,-0.0021396975222917887,0.01174964169777419,0.0,0.0,0.0,0.0,0.0,0.0,0.0,0.0,0.0,-0.007131151855899628,0.5498503170022264,9.8114144136205,0.0,0.0,0.0,0.0,0.0,0.0,0.0,0.0,0.0
2025/05/21 11:47:37.236588199,1747820857,235668782,mA1/imu,0.12838015935901248,0.991724725963294,0.0007179911300577145,0.0002951012049619827,0.0,0.0,0.0,0.0,0.0,0.0,0.0,0.0,0.0,-0.0006303099268705102,-0.002249628760295962,0.011983737158074013,0.0,0.0,0.0,0.0,0.0,0.0,0.0,0.0,0.0,-0.005422434784456438,-0.0697898714225007,9.809402523796038,0.0,0.0,0.0,0.0,0.0,0.0,0.0,0.0,0.0
2025/05/21 11:47:37.275907934,1747820857,275464184,mA1/imu,0.12868073993994847,0.9916857603207387,0.0007052694889077322,0.00035005790036154826,0.0,0.0,0.0,0.0,0.0,0.0,0.0,0.0,0.0,0.0008830624638417467,-0.0022522692349511014,0.012213592215399784,0.0,0.0,0.0,0.0,0.0,0.0,0.0,0.0,0.0,-0.005668948202864491,-0.5820002387397996,9.808387607395035,0.0,0.0,0.0,0.0,0.0,0.0,0.0,0.0,0.0
2025/05/21 11:47:37.327629143,1747820857,327255341,mA1/imu,0.12897759982934384,0.9916471764100397,0.0006934066922645013,0.0004188644365859713,0.0,0.0,0.0,0.0,0.0,0.0,0.0,0.0,0.0,0.0006664784096078518,-0.0033479409151690545,0.011675245741956332,0.0,0.0,0.0,0.0,0.0,0.0,0.0,0.0,0.0,0.03500814504044474,0.03704751317983006,9.810282737743902,0.0,0.0,0.0,0.0,0.0,0.0,0.0,0.0,0.0
2025/05/21 11:47:37.378202352,1747820857,377772341,mA1/imu,0.1292561010897761,0.9916108697933472,0.0006874532551565506,0.000520237227492646,0.0,0.0,0.0,0.0,0.0,0.0,0.0,0.0,0.0,-0.00100157705265114,-0.004486447513894951,0.010939681446591585,0.0,0.0,0.0,0.0,0.0,0.0,0.0,0.0,0.0,0.03428068453952475,0.556451633560661,9.811104537765425,0.0,0.0,0.0,0.0,0.0,0.0,0.0,0.0,0.0
2025/05/21 11:47:37.429926198,1747820857,429551553,mA1/imu,0.1295170722579025,0.9915767495827358,0.000679645852801843,0.0006447962410518208,0.0,0.0,0.0,0.0,0.0,0.0,0.0,0.0,0.0,-0.0009392979112521658,-0.005267924572682333,0.010250352382352456,0.0,0.0,0.0,0.0,0.0,0.0,0.0,0.0,0.0,0.03227594410445389,-0.0653357594629444,9.810100864923061,0.0,0.0,0.0,0.0,0.0,0.0,0.0,0.0,0.0
2025/05/21 11:47:37.481338762,1747820857,480989523,mA1/imu,0.12976131885947487,0.9915447287830083,0.000662389378306062,0.0007824262212984235,0.0,0.0,0.0,0.0,0.0,0.0,0.0,0.0,0.0,0.0006730872613679536,-0.005706584269194546,0.009584319041962977,0.0,0.0,0.0,0.0,0.0,0.0,0.0,0.0,0.0,0.03070678804276955,-0.5785050030043567,9.809070526553867,0.0,0.0,0.0,0.0,0.0,0.0,0.0,0.0,0.0
2025/05/21 11:47:37.532511865,1747820857,531993428,mA1/imu,0.1299890380146717,0.9915147900031911,0.0006462588433940931,0.0009238779438845542,0.0,0.0,0.0,0.0,0.0,0.0,0.0,0.0,0.0,0.0004702164489588971,-0.005659541476288605,0.008918229095197556,0.0,0.0,0.0,0.0,0.0,0.0,0.0,0.0,0.0,0.02364337536267796,0.041242401503618555,9.81028956924104,0.0,0.0,0.0,0.0,0.0,0.0,0.0,0.0,0.0
2025/05/21 11:47:37.584322061,1747820857,581883370,mA1/imu,0.1302005384463925,0.991486906349564,0.000639914044003688,0.0010605826967362393,0.0,0.0,0.0,0.0,0.0,0.0,0.0,0.0,0.0,-0.00114866902580171,-0.005269452267672819,0.008276926720335089,0.0,0.0,0.0,0.0,0.0,0.0,0.0,0.0,0.0,0.022116235453480605,0.559569516247031,9.81100855072615,0.0,0.0,0.0,0.0,0.0,0.0,0.0,0.0,0.0
2025/05/21 11:47:37.633247626,1747820857,632958242,mA1/imu,0.13039676084167795,0.9914609841885262,0.0006352471571839782,0.0011823937442449533,0.0,0.0,0.0,0.0,0.0,0.0,0.0,0.0,0.0,-0.0010259363013532619,-0.0045421972095685,0.007674385623322354,0.0,0.0,0.0,0.0,0.0,0.0,0.0,0.0,0.0,0.022318104687600038,-0.06320678094255414,9.810148785827401,0.0,0.0,0.0,0.0,0.0,0.0,0.0,0.0,0.0
2025/05/21 11:47:37.683921912,1747820857,683577739,mA1/imu,0.13057833272455674,0.9914369706276479,0.0006253719825892429,0.0012810954025831412,0.0,0.0,0.0,0.0,0.0,0.0,0.0,0.0,0.0,0.000580530030686479,-0.0035689420632532714,0.007090874586441775,0.0,0.0,0.0,0.0,0.0,0.0,0.0,0.0,0.0,0.021586014563667016,-0.581592643041217,9.809095263135855,0.0,0.0,0.0,0.0,0.0,0.0,0.0,0.0,0.0
2025/05/21 11:47:37.726445578,1747820857,726064853,mA1/imu,0.1307460275006571,0.991414780151795,0.0006191464850191906,0.0013515350514950249,0.0,0.0,0.0,0.0,0.0,0.0,0.0,0.0,0.0,0.0004854502515977155,-0.002329346069993108,0.006548529144922983,0.0,0.0,0.0,0.0,0.0,0.0,0.0,0.0,0.0,0.0176143301963678,0.04113902325515149,9.8101642149192,0.0,0.0,0.0,0.0,0.0,0.0,0.0,0.0,0.0
2025/05/21 11:47:37.776344238,1747820857,775968743,mA1/imu,0.13090048013545325,0.9913943418430904,0.0006238920799122755,0.0013906906507384293,0.0,0.0,0.0,0.0,0.0,0.0,0.0,0.0,0.0,-0.0010497980092757063,-0.0009835864474827967,0.006022598641604063,0.0,0.0,0.0,0.0,0.0,0.0,0.0,0.0,0.0,0.01818316044044903,0.5603841644806816,9.810943998428524,0.0,0.0,0.0,0.0,0.0,0.0,0.0,0.0,0.0
2025/05/21 11:47:37.827353606,1747820857,826908257,mA1/imu,0.13104233268391963,0.9913755914224541,0.0006298214473712397,0.0013953857820152215,0.0,0.0,0.0,0.0,0.0,0.0,0.0,0.0,0.0,-0.0008243709434983171,0.0004028402420300795,0.005529712706658559,0.0,0.0,0.0,0.0,0.0,0.0,0.0,0.0,0.0,0.01923645230622878,-0.059531208800281954,9.809856354952453,0.0,0.0,0.0,0.0,0.0,0.0,0.0,0.0,0.0
2025/05/21 11:47:37.877246203,1747820857,876744829,mA1/imu,0.1311723452556119,0.9913584391161946,0.0006312927339572794,0.0013647354060630868,0.0,0.0,0.0,0.0,0.0,0.0,0.0,0.0,0.0,0.0008203432499083916,0.001742002168310092,0.005059527273703115,0.0,0.0,0.0,0.0,0.0,0.0,0.0,0.0,0.0,0.01914528984469241,-0.5790719772741647,9.808911638196507,0.0,0.0,0.0,0.0,0.0,0.0,0.0,0.0,0.0
2025/05/21 11:47:37.928064179,1747820857,927697388,mA1/imu,0.13129123166389936,0.9913427830973747,0.000636066015626409,0.0013016562340552279,0.0,0.0,0.0,0.0,0.0,0.0,0.0,0.0,0.0,0.0007600206526051629,0.0030104182185256485,0.00462656190859647,0.0,0.0,0.0,0.0,0.0,0.0,0.0,0.0,0.0,0.017369152909206077,0.043224546191939966,9.81005278501318,0.0,0.0,0.0,0.0,0.0,0.0,0.0,0.0,0.0
2025/05/21 11:47:37.977870956,1747820857,977548723,mA1/imu,0.13139959178032126,0.9913285315952585,0.0006506181432935816,0.0012109587876066536,0.0,0.0,0.0,0.0,0.0,0.0,0.0,0.0,0.0,-0.0007514918096696866,0.004086547286723221,0.00420948850048431,0.0,0.0,0.0,0.0,0.0,0.0,0.0,0.0,0.0,0.018279314018014033,0.5621671638439022,9.810687168727283,0.0,0.0,0.0,0.0,0.0,0.0,0.0,0.0,0.0
2025/05/21 11:47:38.28938539,1747820858,28556660,mA1/imu,0.13149803549024802,0.9913156005843259,0.0006656526034136248,0.0010970902216472676,0.0,0.0,0.0,0.0,0.0,0.0,0.0,0.0,0.0,-0.000547651772922274,0.004899055567838566,0.0038212227596329694,0.0,0.0,0.0,0.0,0.0,0.0,0.0,0.0,0.0,0.02100485932586863,-0.06034826215888628,9.80970619354834,0.0,0.0,0.0,0.0,0.0,0.0,0.0,0.0,0.0
2025/05/21 11:47:38.79566540,1747820858,78466919,mA1/imu,0.1315870922595149,0.9913039148016562,0.0006730966655556906,0.00096570724098452,0.0,0.0,0.0,0.0,0.0,0.0,0.0,0.0,0.0,0.0011163998166862713,0.0054286302774935,0.0034487580172343946,0.0,0.0,0.0,0.0,0.0,0.0,0.0,0.0,0.0,0.02086983707809662,-0.5785612678559848,9.808762850086454,0.0,0.0,0.0,0.0,0.0,0.0,0.0,0.0,0.0
2025/05/21 11:47:38.129721818,1747820858,129457919,mA1/imu,0.1316672826068819,0.9912933886041422,0.0006806920836912221,0.0008252629420762282,0.0,0.0,0.0,0.0,0.0,0.0,0.0,0.0,0.0,0.0010487485446788773,0.005673223336002881,0.003101485265610148,0.0,0.0,0.0,0.0,0.0,0.0,0.0,0.0,0.0,0.02068480379394689,0.04408064865276774,9.810046684055264,0.0,0.0,0.0,0.0,0.0,0.0,0.0,0.0,0.0
2025/05/21 11:47:38.179636253,1747820858,179329357,mA1/imu,0.13173905784698145,0.9912839502034223,0.0006945130634629236,0.000684367074871082,0.0,0.0,0.0,0.0,0.0,0.0,0.0,0.0,0.0,-0.0004514252453622469,0.0056115567211235335,0.002767753554981701,0.0,0.0,0.0,0.0,0.0,0.0,0.0,0.0,0.0,0.021312446832647495,0.5655790537868057,9.810807346937535,0.0,0.0,0.0,0.0,0.0,0.0,0.0,0.0,0.0
2025/05/21 11:47:38.230635581,1747820858,230312116,mA1/imu,0.13180291165418181,0.9912755382025886,0.0007055696141851944,0.0005495563372702862,0.0,0.0,0.0,0.0,0.0,0.0,0.0,0.0,0.0,-0.0003030505775656976,0.005230887304617991,0.002456877775213964,0.0,0.0,0.0,0.0,0.0,0.0,0.0,0.0,0.0,0.02330220596383291,-0.05823302467902573,9.80981027734035,0.0,0.0,0.0,0.0,0.0,0.0,0.0,0.0,0.0
2025/05/21 11:47:38.284739560,1747820858,282052950,mA1/imu,0.13185926866799141,0.9912681029111136,0.0007065373009889664,0.00042687514176346225,0.0,0.0,0.0,0.0,0.0,0.0,0.0,0.0,0.0,0.0013034502300187623,0.004587263313908329,0.002160178423681572,0.0,0.0,0.0,0.0,0.0,0.0,0.0,0.0,0.0,0.022128659192473803,-0.5768903967470076,9.808801005106925,0.0,0.0,0.0,0.0,0.0,0.0,0.0,0.0,0.0
2025/05/21 11:47:38.335904495,1747820858,335362444,mA1/imu,0.13190856423925604,0.9912615852069415,0.0007042217274516857,0.00032317969914395886,0.0,0.0,0.0,0.0,0.0,0.0,0.0,0.0,0.0,0.0012414239671642592,0.0037386448776263537,0.0018807359360692559,0.0,0.0,0.0,0.0,0.0,0.0,0.0,0.0,0.0,0.02183768173817277,0.05001162964725364,9.810046883945024,0.0,0.0,0.0,0.0,0.0,0.0,0.0,0.0,0.0
2025/05/21 11:47:38.386180965,1747820858,383804318,mA1/imu,0.1319511112521136,0.9912559431497431,0.0007069035616189536,0.00024432969605130665,0.0,0.0,0.0,0.0,0.0,0.0,0.0,0.0,0.0,-0.0003967300316890023,0.002724611996630117,0.0016126508649332621,0.0,0.0,0.0,0.0,0.0,0.0,0.0,0.0,0.0,0.02201622893600587,0.5662055381925583,9.810828672948634,0.0,0.0,0.0,0.0,0.0,0.0,0.0,0.0,0.0
2025/05/21 11:47:38.436593250,1747820858,435933482,mA1/imu,0.13198734055075712,0.9912511325245765,0.0007050945778305489,0.0001924700475420794,0.0,0.0,0.0,0.0,0.0,0.0,0.0,0.0,0.0,-0.00018055810557961223,0.0015899035622515142,0.001364961025804459,0.0,0.0,0.0,0.0,0.0,0.0,0.0,0.0,0.0,0.02179466280033241,-0.047806068915506934,9.809849327474184,0.0,0.0,0.0,0.0,0.0,0.0,0.0,0.0,0.0
2025/05/21 11:47:38.476076012,1747820858,475817924,mA1/imu,0.1320164850211334,0.9912472631592012,0.0006941688771753475,0.0001705626807088245,0.0,0.0,0.0,0.0,0.0,0.0,0.0,0.0,0.0,0.0009628820811269524,0.00014784693056952046,0.0009774995734877889,0.0,0.0,0.0,0.0,0.0,0.0,0.0,0.0,0.0,0.040684160753799006,-0.48005397842371705,9.808559606095045,0.0,0.0,0.0,0.0,0.0,0.0,0.0,0.0,0.0
2025/05/21 11:47:38.529087255,1747820858,528548990,mA1/imu,0.132035137437017,0.9912447877751092,0.0006771175122885953,0.00018628618130407876,0.0,0.0,0.0,0.0,0.0,0.0,0.0,0.0,0.0,0.002299000633135976,-0.0011638455013639212,0.0007086419940554032,0.0,0.0,0.0,0.0,0.0,0.0,0.0,0.0,0.0,0.01760529241128795,-0.44088280905818594,9.809867717817347,0.0,0.0,0.0,0.0,0.0,0.0,0.0,0.0,0.0
2025/05/21 11:47:38.580542975,1747820858,579792080,mA1/imu,0.13205134337752333,0.9912426266615662,0.0006669191761447676,0.00023026090175138353,0.0,0.0,0.0,0.0,0.0,0.0,0.0,0.0,0.0,0.001353268929797571,-0.0022871095702836734,0.0005777969796377252,0.0,0.0,0.0,0.0,0.0,0.0,0.0,0.0,0.0,0.028219705960087896,-0.19813913724393123,9.808908281823053,0.0,0.0,0.0,0.0,0.0,0.0,0.0,0.0,0.0
2025/05/21 11:47:38.632034087,1747820858,631325469,mA1/imu,0.13206342989403577,0.9912410093423112,0.0006493549645262701,0.00030036775662477353,0.0,0.0,0.0,0.0,0.0,0.0,0.0,0.0,0.0,0.001026858630402389,-0.0032067307633618495,0.00045275555588366283,0.0,0.0,0.0,0.0,0.0,0.0,0.0,0.0,0.0,0.02003855171694832,0.10743254376098954,9.810141303445365,0.0,0.0,0.0,0.0,0.0,0.0,0.0,0.0,0.0
2025/05/21 11:47:38.681613456,1747820858,681260994,mA1/imu,0.13207215600871078,0.9912398206571877,0.000640073712444022,0.0003922452800756994,0.0,0.0,0.0,0.0,0.0,0.0,0.0,0.0,0.0,0.0002939969924621936,-0.004010575558123049,0.000271645045968341,0.0,0.0,0.0,0.0,0.0,0.0,0.0,0.0,0.0,0.023229330433913016,-0.2443050823640734,9.811308961800108,0.0,0.0,0.0,0.0,0.0,0.0,0.0,0.0,0.0
2025/05/21 11:47:38.732402459,1747820858,732194686,mA1/imu,0.13207451583246038,0.9912394739242805,0.0006140321967804311,0.0005005660777133264,0.0,0.0,0.0,0.0,0.0,0.0,0.0,0.0,0.0,0.0008989297288981278,-0.004711846351509036,-5.9738823935669356e-05,0.0,0.0,0.0,0.0,0.0,0.0,0.0,0.0,0.0,0.022877353336190953,-0.37376283080964473,9.80965480534602,0.0,0.0,0.0,0.0,0.0,0.0,0.0,0.0,0.0
2025/05/21 11:47:38.782433909,1747820858,782055187,mA1/imu,0.13206981582630442,0.9912400430857017,0.0005950667954730569,0.0006217930292274676,0.0,0.0,0.0,0.0,0.0,0.0,0.0,0.0,0.0,-0.0007044146375573056,-0.004966173801765418,-0.000272918197988626,0.0,0.0,0.0,0.0,0.0,0.0,0.0,0.0,0.0,0.019487449611129838,0.5768952516298973,9.811364873346735,0.0,0.0,0.0,0.0,0.0,0.0,0.0,0.0,0.0
2025/05/21 11:47:38.833299243,1747820858,833049537,mA1/imu,0.13206074247682772,0.9912411771573914,0.0005800942342539217,0.000743299924414384,0.0,0.0,0.0,0.0,0.0,0.0,0.0,0.0,0.0,-0.0005728401074073959,-0.004758380494879558,-0.00042367722482602804,0.0,0.0,0.0,0.0,0.0,0.0,0.0,0.0,0.0,0.012819463420180857,0.5891042181841953,9.81194623460031,0.0,0.0,0.0,0.0,0.0,0.0,0.0,0.0,0.0
2025/05/21 11:47:38.877326811,1747820858,877051455,mA1/imu,0.13204797457378084,0.9912427963705948,0.0005650113537489145,0.0008554627612205842,0.0,0.0,0.0,0.0,0.0,0.0,0.0,0.0,0.0,2.826316871405052e-05,-0.004351377110678435,-0.0005833542369475501,0.0,0.0,0.0,0.0,0.0,0.0,0.0,0.0,0.0,0.015587194782540769,0.0068332738080855455,9.81055644433409,0.0,0.0,0.0,0.0,0.0,0.0,0.0,0.0,0.0
2025/05/21 11:47:38.928595631,1747820858,928138907,mA1/imu,0.13203123630621985,0.9912449402453061,0.000555935541166486,0.0009549938244997266,0.0,0.0,0.0,0.0,0.0,0.0,0.0,0.0,0.0,0.0017111874589449461,-0.0037344700271722073,-0.0007427018264075345,0.0,0.0,0.0,0.0,0.0,0.0,0.0,0.0,0.0,0.013271896591122625,-0.49972035596715214,9.808993256399354,0.0,0.0,0.0,0.0,0.0,0.0,0.0,0.0,0.0
2025/05/21 11:47:38.978246344,1747820858,977946265,mA1/imu,0.13201045997534105,0.9912476268917251,0.0005548027267614996,0.0010357763061514004,0.0,0.0,0.0,0.0,0.0,0.0,0.0,0.0,0.0,-0.0011767407710092945,-0.0028439956149088745,-0.0009010983924779455,0.0,0.0,0.0,0.0,0.0,0.0,0.0,0.0,0.0,0.014018861530568628,0.21429616221656272,9.810571555154906,0.0,0.0,0.0,0.0,0.0,0.0,0.0,0.0,0.0
2025/05/21 11:47:39.29381105,1747820859,29016728,mA1/imu,0.13198619086205246,0.9912508041900189,0.0005482738484780736,0.001089958785368948,0.0,0.0,0.0,0.0,0.0,0.0,0.0,0.0,0.0,-0.0016569589066697257,-0.0016696082300695096,-0.0010226937618719849,0.0,0.0,0.0,0.0,0.0,0.0,0.0,0.0,0.0,0.009502152375806584,0.5321841899613639,9.810610601753963,0.0,0.0,0.0,0.0,0.0,0.0,0.0,0.0,0.0
2025/05/21 11:47:39.79189181,1747820859,78868503,mA1/imu,0.13195906190259252,0.9912543884165712,0.0005477407591383398,0.001115081493868229,0.0,0.0,0.0,0.0,0.0,0.0,0.0,0.0,0.0,0.0004003506031518523,-0.0005415913467687745,-0.0011462264481630553,0.0,0.0,0.0,0.0,0.0,0.0,0.0,0.0,0.0,0.011897793905252925,0.05235389605956417,9.80809316930327,0.0,0.0,0.0,0.0,0.0,0.0,0.0,0.0,0.0
2025/05/21 11:47:39.132190542,1747820859,132072234,mA1/imu,0.1319297303762116,0.9912582873975523,0.0005633441462398501,0.0011120035542277894,0.0,0.0,0.0,0.0,0.0,0.0,0.0,0.0,0.0,0.0015768535797544025,0.0007190553798883247,-0.0011778621383026898,0.0,0.0,0.0,0.0,0.0,0.0,0.0,0.0,0.0,0.008766290664237147,-0.49284275950845025,9.808331118070141,0.0,0.0,0.0,0.0,0.0,0.0,0.0,0.0,0.0
2025/05/21 11:47:39.181719027,1747820859,181233955,mA1/imu,0.13189936409381348,0.9912623526879556,0.0005842205846021176,0.0010791577712540876,0.0,0.0,0.0,0.0,0.0,0.0,0.0,0.0,0.0,-0.0008462717213912399,0.001841665896686926,-0.0012620601603153165,0.0,0.0,0.0,0.0,0.0,0.0,0.0,0.0,0.0,0.012764886061774193,-0.03139911568280874,9.810866739740092,0.0,0.0,0.0,0.0,0.0,0.0,0.0,0.0,0.0
2025/05/21 11:47:39.232384336,1747820859,232245875,mA1/imu,0.1318620434687366,0.9912673678934041,0.0005993027600829154,0.0010235614946892814,0.0,0.0,0.0,0.0,0.0,0.0,0.0,0.0,0.0,-0.0001765580834695069,0.0026136430064121084,-0.001626197822999278,0.0,0.0,0.0,0.0,0.0,0.0,0.0,0.0,0.0,0.01378021142023847,-0.45254614533299015,9.809621270690513,0.0,0.0,0.0,0.0,0.0,0.0,0.0,0.0,0.0
2025/05/21 11:47:39.282317872,1747820859,282072870,mA1/imu,0.1318203497714208,0.9912729769467169,0.0006184758729606292,0.0009476544352599558,0.0,0.0,0.0,0.0,0.0,0.0,0.0,0.0,0.0,-0.0009702726955288125,0.0034288883700060806,-0.001715574836411479,0.0,0.0,0.0,0.0,0.0,0.0,0.0,0.0,0.0,0.01404805443194531,0.5910329784523661,9.81080058057267,0.0,0.0,0.0,0.0,0.0,0.0,0.0,0.0,0.0
2025/05/21 11:47:39.333730471,1747820859,333247663,mA1/imu,0.13177656512804678,0.9912788655917134,0.0006460713649124303,0.0008544624337418128,0.0,0.0,0.0,0.0,0.0,0.0,0.0,0.0,0.0,0.0006696004958754489,0.004119387396459842,-0.0017877074452070354,0.0,0.0,0.0,0.0,0.0,0.0,0.0,0.0,0.0,0.011646475582499727,-0.5526636021850446,9.80798964291293,0.0,0.0,0.0,0.0,0.0,0.0,0.0,0.0,0.0
2025/05/21 11:47:39.383397449,1747820859,382960130,mA1/imu,0.1317310550082391,0.9912849858797828,0.0006688600280422267,0.0007473566739077698,0.0,0.0,0.0,0.0,0.0,0.0,0.0,0.0,0.0,4.945624442390163e-05,0.004473041207136818,-0.0018696677598854993,0.0,0.0,0.0,0.0,0.0,0.0,0.0,0.0,0.0,0.0164815537152082,0.02934918307700546,9.809168812182321,0.0,0.0,0.0,0.0,0.0,0.0,0.0,0.0,0.0
2025/05/21 11:47:39.434584793,1747820859,434305191,mA1/imu,0.13168434797453557,0.9912912553965422,0.0006908268059176502,0.0006342169920825948,0.0,0.0,0.0,0.0,0.0,0.0,0.0,0.0,0.0,3.66273148433846e-05,0.00468308295402424,-0.0018645877288063653,0.0,0.0,0.0,0.0,0.0,0.0,0.0,0.0,0.0,0.013147027993407567,0.027058170446316636,9.808706326787584,0.0,0.0,0.0,0.0,0.0,0.0,0.0,0.0,0.0
2025/05/21 11:47:39.488423622,1747820859,486279699,mA1/imu,0.1316375041860595,0.9912975220364829,0.0007199160657811816,0.0005215523484620322,0.0,0.0,0.0,0.0,0.0,0.0,0.0,0.0,0.0,-9.331655184544982e-05,0.004531043643388405,-0.00191270378032537,0.0,0.0,0.0,0.0,0.0,0.0,0.0,0.0,0.0,0.016948014426966147,0.013244134719727836,9.810579871955479,0.0,0.0,0.0,0.0,0.0,0.0,0.0,0.0,0.0
2025/05/21 11:47:39.537414610,1747820859,537192649,mA1/imu,0.1315896466371036,0.9913039104246156,0.0007432892183743565,0.0004118202590035052,0.0,0.0,0.0,0.0,0.0,0.0,0.0,0.0,0.0,0.0005229437189481141,0.00434405543521428,-0.001940253234265374,0.0,0.0,0.0,0.0,0.0,0.0,0.0,0.0,0.0,0.017609448539525216,-0.38718451284140804,9.809265835561341,0.0,0.0,0.0,0.0,0.0,0.0,0.0,0.0,0.0
2025/05/21 11:47:39.577360739,1747820859,576962328,mA1/imu,0.1315406469902046,0.9913104337905703,0.0007635325394430226,0.00031474658213640546,0.0,0.0,0.0,0.0,0.0,0.0,0.0,0.0,0.0,-0.0004377087618682811,0.0036627350137955063,-0.001997395113463212,0.0,0.0,0.0,0.0,0.0,0.0,0.0,0.0,0.0,0.01833440180309138,-0.1078180894207141,9.81036479311161,0.0,0.0,0.0,0.0,0.0,0.0,0.0,0.0,0.0
2025/05/21 11:47:39.630544950,1747820859,630263351,mA1/imu,0.13149427171272543,0.991316604220795,0.0007702309167268921,0.00023118656204352067,0.0,0.0,0.0,0.0,0.0,0.0,0.0,0.0,0.0,-0.0011013091870919946,0.0032924204627478915,-0.001661908872567887,0.0,0.0,0.0,0.0,0.0,0.0,0.0,0.0,0.0,-0.0059717822045843175,0.5619311889648219,9.81342700746033,0.0,0.0,0.0,0.0,0.0,0.0,0.0,0.0,0.0
2025/05/21 11:47:39.680432208,1747820859,680076324,mA1/imu,0.1314597527275345,0.9913211926768366,0.0007759887081222983,0.00015557671573451423,0.0,0.0,0.0,0.0,0.0,0.0,0.0,0.0,0.0,-0.00010430531833601777,0.0027409005147195813,-0.0012872937438457527,0.0,0.0,0.0,0.0,0.0,0.0,0.0,0.0,0.0,0.011094804628387763,-0.018330633251635226,9.808615314354908,0.0,0.0,0.0,0.0,0.0,0.0,0.0,0.0,0.0
2025/05/21 11:47:39.735210417,1747820859,731964902,mA1/imu,0.13142609842232741,0.9913256572683128,0.0007815649626650786,0.00010512488507473292,0.0,0.0,0.0,0.0,0.0,0.0,0.0,0.0,0.0,0.00012568485208931868,0.0014681946584571444,-0.0014319127444982324,0.0,0.0,0.0,0.0,0.0,0.0,0.0,0.0,0.0,0.021956039089026855,-0.01077093192048658,9.808777908737058,0.0,0.0,0.0,0.0,0.0,0.0,0.0,0.0,0.0
2025/05/21 11:47:39.781642727,1747820859,781399592,mA1/imu,0.1313899694163611,0.9913304584850603,0.0007685189251464124,8.599552105144291e-05,0.0,0.0,0.0,0.0,0.0,0.0,0.0,0.0,0.0,0.0008101189224000211,0.0001859866639608967,-0.0014736798400266599,0.0,0.0,0.0,0.0,0.0,0.0,0.0,0.0,0.0,0.019937552688739008,0.029611350853779105,9.811040638190615,0.0,0.0,0.0,0.0,0.0,0.0,0.0,0.0,0.0
2025/05/21 11:47:39.833947784,1747820859,833349638,mA1/imu,0.13135378430526556,0.9913352624032683,0.0007558643367780551,9.764032657921614e-05,0.0,0.0,0.0,0.0,0.0,0.0,0.0,0.0,0.0,0.0026083772101355225,-0.0009611693532728621,-0.001427554392628122,0.0,0.0,0.0,0.0,0.0,0.0,0.0,0.0,0.0,0.014925487267923135,-0.4808925354057063,9.81056782318656,0.0,0.0,0.0,0.0,0.0,0.0,0.0,0.0,0.0
2025/05/21 11:47:39.883980956,1747820859,883599208,mA1/imu,0.1313181543263744,0.9913399797825125,0.0007533921536733434,0.00013867005780527313,0.0,0.0,0.0,0.0,0.0,0.0,0.0,0.0,0.0,-0.0002850244565124815,-0.0021189812111179654,-0.0014546121756853644,0.0,0.0,0.0,0.0,0.0,0.0,0.0,0.0,0.0,0.019469363973845622,-0.6852673193847306,9.810560429891574,0.0,0.0,0.0,0.0,0.0,0.0,0.0,0.0,0.0
2025/05/21 11:47:39.936212226,1747820859,934957539,mA1/imu,0.13128214533989557,0.991344759482815,0.0007255143363088942,0.00019947396300304775,0.0,0.0,0.0,0.0,0.0,0.0,0.0,0.0,0.0,-0.00041243889089100593,-0.0028399114840553193,-0.001460700116024787,0.0,0.0,0.0,0.0,0.0,0.0,0.0,0.0,0.0,0.017847503627992332,-0.06960239277754929,9.810820727713521,0.0,0.0,0.0,0.0,0.0,0.0,0.0,0.0,0.0
2025/05/21 11:47:39.985150881,1747820859,984817200,mA1/imu,0.13124557206013987,0.9913496018556018,0.000698486411256558,0.00028077051050591506,0.0,0.0,0.0,0.0,0.0,0.0,0.0,0.0,0.0,-2.2218766005924496e-05,-0.003679787738840022,-0.0014911330053297648,0.0,0.0,0.0,0.0,0.0,0.0,0.0,0.0,0.0,0.016818403797675997,-0.04020745370152365,9.80888373079111,0.0,0.0,0.0,0.0,0.0,0.0,0.0,0.0,0.0
2025/05/21 11:47:40.36193473,1747820860,35832245,mA1/imu,0.1312090276962232,0.9913544310082292,0.000665324786697524,0.00037485235751641877,0.0,0.0,0.0,0.0,0.0,0.0,0.0,0.0,0.0,-0.00030533099778948334,-0.004044164582085072,-0.001472569184484587,0.0,0.0,0.0,0.0,0.0,0.0,0.0,0.0,0.0,0.014985082305872005,0.5693549027329879,9.810140942217537,0.0,0.0,0.0,0.0,0.0,0.0,0.0,0.0,0.0
2025/05/21 11:47:40.76997791,1747820860,76621420,mA1/imu,0.13117248480343022,0.9913592405966478,0.0006371905764339865,0.0004788551982511174,0.0,0.0,0.0,0.0,0.0,0.0,0.0,0.0,0.0,0.0015469203443820453,-0.0043840261280657785,-0.0014783277784501557,0.0,0.0,0.0,0.0,0.0,0.0,0.0,0.0,0.0,0.013192217830762017,-0.34078544420353046,9.81024428369433,0.0,0.0,0.0,0.0,0.0,0.0,0.0,0.0,0.0
2025/05/21 11:47:40.127949785,1747820860,127571875,mA1/imu,0.13113580046576723,0.991364050541641,0.0006132804720829619,0.0005873814226211456,0.0,0.0,0.0,0.0,0.0,0.0,0.0,0.0,0.0,0.0016433974616827858,-0.004428727766592765,-0.001481786830196744,0.0,0.0,0.0,0.0,0.0,0.0,0.0,0.0,0.0,0.011226632963540827,-0.43835308585751537,9.809585698654482,0.0,0.0,0.0,0.0,0.0,0.0,0.0,0.0,0.0
2025/05/21 11:47:40.178007333,1747820860,177701243,mA1/imu,0.13109909393956448,0.9913688523633959,0.0005882052435219368,0.0006929260422514842,0.0,0.0,0.0,0.0,0.0,0.0,0.0,0.0,0.0,0.0012061868521030784,-0.004211896439249041,-0.0014833096574262863,0.0,0.0,0.0,0.0,0.0,0.0,0.0,0.0,0.0,0.01082387882903487,-0.4692994801491038,9.81035437100303,0.0,0.0,0.0,0.0,0.0,0.0,0.0,0.0,0.0
2025/05/21 11:47:40.229098816,1747820860,228672268,mA1/imu,0.13106235140146885,0.9913736476745868,0.0005740596468393603,0.0007881605318328015,0.0,0.0,0.0,0.0,0.0,0.0,0.0,0.0,0.0,-0.0004504819928510115,-0.003546971983576102,-0.0014730942711757085,0.0,0.0,0.0,0.0,0.0,0.0,0.0,0.0,0.0,0.006685445985539898,-0.05177512128298981,9.810360176325318,0.0,0.0,0.0,0.0,0.0,0.0,0.0,0.0,0.0
2025/05/21 11:47:40.278795317,1747820860,278477615,mA1/imu,0.13102583077259225,0.9913784208975998,0.0005566455394951978,0.0008650980736191096,0.0,0.0,0.0,0.0,0.0,0.0,0.0,0.0,0.0,-0.0006649708497868013,-0.0028573896943238446,-0.0014825699075929023,0.0,0.0,0.0,0.0,0.0,0.0,0.0,0.0,0.0,0.009987767274524505,-0.05474898849179205,9.808466565359922,0.0,0.0,0.0,0.0,0.0,0.0,0.0,0.0,0.0
2025/05/21 11:47:40.329932794,1747820860,329561605,mA1/imu,0.13098953075690076,0.9913831754010552,0.0005414321088355635,0.0009215286641280225,0.0,0.0,0.0,0.0,0.0,0.0,0.0,0.0,0.0,-0.00041059376160126687,-0.0018877593908365074,-0.0014479695725928027,0.0,0.0,0.0,0.0,0.0,0.0,0.0,0.0,0.0,0.004650509754297913,0.37850234293894075,9.808960032880316,0.0,0.0,0.0,0.0,0.0,0.0,0.0,0.0,0.0
2025/05/21 11:47:40.379830903,1747820860,379492700,mA1/imu,0.13095398940345576,0.9913878420685618,0.0005378172778087152,0.0009539447234321155,0.0,0.0,0.0,0.0,0.0,0.0,0.0,0.0,0.0,0.001186907955171395,-0.0009273036371955869,-0.0014284927957643665,0.0,0.0,0.0,0.0,0.0,0.0,0.0,0.0,0.0,0.008074332849776003,-0.5422706449336466,9.809163467244302,0.0,0.0,0.0,0.0,0.0,0.0,0.0,0.0,0.0
2025/05/21 11:47:40.431353101,1747820860,430941477,mA1/imu,0.1309186083499676,0.9913925039642303,0.0005421665492085909,0.0009628741737914504,0.0,0.0,0.0,0.0,0.0,0.0,0.0,0.0,0.0,0.0011223974330615645,5.910560028516668e-05,-0.0014215888152277936,0.0,0.0,0.0,0.0,0.0,0.0,0.0,0.0,0.0,0.008046438699135183,-0.5393888451043928,9.80870182528682,0.0,0.0,0.0,0.0,0.0,0.0,0.0,0.0,0.0
2025/05/21 11:47:40.480451310,1747820860,480272647,mA1/imu,0.13088351706569018,0.9913971451050296,0.0005539429192048022,0.0009480429073323283,0.0,0.0,0.0,0.0,0.0,0.0,0.0,0.0,0.0,-0.0006431250478578564,0.001035522295869376,-0.0014086771589910138,0.0,0.0,0.0,0.0,0.0,0.0,0.0,0.0,0.0,0.008528885230654277,-0.026089236106712828,9.810468763142648,0.0,0.0,0.0,0.0,0.0,0.0,0.0,0.0,0.0
2025/05/21 11:47:40.532013933,1747820860,531280272,mA1/imu,0.13085323645184135,0.9914011735418828,0.0005722279937485748,0.0009034184959999526,0.0,0.0,0.0,0.0,0.0,0.0,0.0,0.0,0.0,-0.0024047910540451094,0.002519006770816401,-0.0010225058573281485,0.0,0.0,0.0,0.0,0.0,0.0,0.0,0.0,0.0,0.005697836020001821,0.48688422109367924,9.81089046980995,0.0,0.0,0.0,0.0,0.0,0.0,0.0,0.0,0.0
2025/05/21 11:47:40.584429376,1747820860,583994234,mA1/imu,0.1308292136762429,0.9914043996553126,0.0005877069219994202,0.000829333177321497,0.0,0.0,0.0,0.0,0.0,0.0,0.0,0.0,0.0,-0.0009605909716740665,0.0033315739957297855,-0.0009374496259236244,0.0,0.0,0.0,0.0,0.0,0.0,0.0,0.0,0.0,0.007564278071411151,-0.03337629390121876,9.808343820393693,0.0,0.0,0.0,0.0,0.0,0.0,0.0,0.0,0.0
2025/05/21 11:47:40.636597374,1747820860,635534933,mA1/imu,0.13080675598674962,0.991407422835438,0.0006098774816714234,0.0007366033362145717,0.0,0.0,0.0,0.0,0.0,0.0,0.0,0.0,0.0,-0.00010691052667622088,0.004055579384836779,-0.0008777764978574757,0.0,0.0,0.0,0.0,0.0,0.0,0.0,0.0,0.0,0.009495878983283962,0.02822032763979323,9.809166409536058,0.0,0.0,0.0,0.0,0.0,0.0,0.0,0.0,0.0
2025/05/21 11:47:40.685391865,1747820860,684795749,mA1/imu,0.1307860256564004,0.9914102096978364,0.0006411334640407458,0.0006328884393077418,0.0,0.0,0.0,0.0,0.0,0.0,0.0,0.0,0.0,-0.0005354655119681625,0.004387135244115321,-0.0008035580449354615,0.0,0.0,0.0,0.0,0.0,0.0,0.0,0.0,0.0,0.010036508234595799,-0.07577198950434427,9.810126093695237,0.0,0.0,0.0,0.0,0.0,0.0,0.0,0.0,0.0
2025/05/21 11:47:40.736162067,1747820860,735709568,mA1/imu,0.13076282632613687,0.9914133100801593,0.0006726802387947365,0.0005285341982848757,0.0,0.0,0.0,0.0,0.0,0.0,0.0,0.0,0.0,-0.002112001665007353,0.004260220993518089,-0.0009867821666318525,0.0,0.0,0.0,0.0,0.0,0.0,0.0,0.0,0.0,0.011519373209883488,0.23164420001717087,9.811177298517448,0.0,0.0,0.0,0.0,0.0,0.0,0.0,0.0,0.0
2025/05/21 11:47:40.775834341,1747820860,775572037,mA1/imu,0.1307393602463292,0.9914164354142196,0.0006994734647482626,0.0004266260835563859,0.0,0.0,0.0,0.0,0.0,0.0,0.0,0.0,0.0,-0.0004347626892552265,0.0041019945263148635,-0.0009148948074722219,0.0,0.0,0.0,0.0,0.0,0.0,0.0,0.0,0.0,0.010657657615442118,-0.6191268424079307,9.809219818982209,0.0,0.0,0.0,0.0,0.0,0.0,0.0,0.0,0.0
2025/05/21 11:47:40.827943516,1747820860,826490758,mA1/imu,0.13071817072800748,0.9914192527487757,0.0007182594123472079,0.0003304905433503354,0.0,0.0,0.0,0.0,0.0,0.0,0.0,0.0,0.0,0.0010494777826310327,0.0037624147751830588,-0.0008020502291883368,0.0,0.0,0.0,0.0,0.0,0.0,0.0,0.0,0.0,0.011657849617197728,-0.5210324836164549,9.808976170372715,0.0,0.0,0.0,0.0,0.0,0.0,0.0,0.0,0.0
2025/05/21 11:47:40.876522342,1747820860,876276271,mA1/imu,0.13069904357910772,0.9914217804715932,0.0007427307189085626,0.00024812319820839154,0.0,0.0,0.0,0.0,0.0,0.0,0.0,0.0,0.0,-0.0006214969967145151,0.0031285063627734563,-0.0007438891214013966,0.0,0.0,0.0,0.0,0.0,0.0,0.0,0.0,0.0,0.0129768208271717,0.6135909694362301,9.811380546872371,0.0,0.0,0.0,0.0,0.0,0.0,0.0,0.0,0.0
2025/05/21 11:47:40.927679037,1747820860,927309251,mA1/imu,0.1306817329549538,0.9914240554500033,0.0007702299195358631,0.0001835560678358431,0.0,0.0,0.0,0.0,0.0,0.0,0.0,0.0,0.0,-0.0019940618245722123,0.002420621948743635,-0.0006652593378373492,0.0,0.0,0.0,0.0,0.0,0.0,0.0,0.0,0.0,0.012403729079126546,0.5144064443543075,9.81096717834556,0.0,0.0,0.0,0.0,0.0,0.0,0.0,0.0,0.0
2025/05/21 11:47:40.977417639,1747820860,977099858,mA1/imu,0.13066641567745074,0.9914260710934524,0.0007838685670041468,0.00013755100128132726,0.0,0.0,0.0,0.0,0.0,0.0,0.0,0.0,0.0,-0.00014268771372366013,0.0015276768589484561,-0.000583585200067398,0.0,0.0,0.0,0.0,0.0,0.0,0.0,0.0,0.0,0.012599451999459076,-0.6212575308414428,9.809566721015264,0.0,0.0,0.0,0.0,0.0,0.0,0.0,0.0,0.0
2025/05/21 11:47:41.29075861,1747820861,28132482,mA1/imu,0.1306515582772532,0.9914280320962826,0.0007837070098851951,0.00011531149439013158,0.0,0.0,0.0,0.0,0.0,0.0,0.0,0.0,0.0,0.0014540672128462945,0.000418272394018458,-0.0006376143753105506,0.0,0.0,0.0,0.0,0.0,0.0,0.0,0.0,0.0,0.013413885311099553,-0.5215919263004246,9.809181130747703,0.0,0.0,0.0,0.0,0.0,0.0,0.0,0.0,0.0
2025/05/21 11:47:41.78261508,1747820861,77971394,mA1/imu,0.1306366490705918,0.9914299973072542,0.0007823799438617897,0.0001193338514932064,0.0,0.0,0.0,0.0,0.0,0.0,0.0,0.0,0.0,-2.390749533318686e-05,-0.0005452171608272156,-0.0005703222104765007,0.0,0.0,0.0,0.0,0.0,0.0,0.0,0.0,0.0,0.012405269539437389,0.6223736298184126,9.811561144024422,0.0,0.0,0.0,0.0,0.0,0.0,0.0,0.0,0.0
2025/05/21 11:47:41.129888901,1747820861,129121849,mA1/imu,0.1306242156662829,0.9914316300862049,0.0007846416517519377,0.0001465730441077287,0.0,0.0,0.0,0.0,0.0,0.0,0.0,0.0,0.0,-0.000955163591335593,-0.0013953094049259744,-0.00044725093392682157,0.0,0.0,0.0,0.0,0.0,0.0,0.0,0.0,0.0,0.010884447923242623,0.25237907932380504,9.811195788841017,0.0,0.0,0.0,0.0,0.0,0.0,0.0,0.0,0.0
2025/05/21 11:47:41.181508290,1747820861,181212306,mA1/imu,0.1306146025572701,0.9914329019308614,0.0007679246700823632,0.000191988172514429,0.0,0.0,0.0,0.0,0.0,0.0,0.0,0.0,0.0,0.0008580750077098127,-0.0022009581203972922,-0.0003533462805278679,0.0,0.0,0.0,0.0,0.0,0.0,0.0,0.0,0.0,0.01055475136174518,-0.5912410287153679,9.8095920079012,0.0,0.0,0.0,0.0,0.0,0.0,0.0,0.0,0.0
2025/05/21 11:47:41.234446863,1747820861,234177401,mA1/imu,0.1306080546715878,0.9914337693526384,0.0007444264729457286,0.00025074159848263104,0.0,0.0,0.0,0.0,0.0,0.0,0.0,0.0,0.0,0.00164566310251685,-0.0026417000944617933,-0.00021500233726252563,0.0,0.0,0.0,0.0,0.0,0.0,0.0,0.0,0.0,0.009743554756316193,-0.27239160389892214,9.809859083845785,0.0,0.0,0.0,0.0,0.0,0.0,0.0,0.0,0.0
2025/05/21 11:47:41.284204466,1747820861,283942895,mA1/imu,0.13060413712788843,0.991434277178925,0.0007272521496879794,0.00032327092840488076,0.0,0.0,0.0,0.0,0.0,0.0,0.0,0.0,0.0,-0.0004224876178624186,-0.0031529344686739096,-0.00012384595873969942,0.0,0.0,0.0,0.0,0.0,0.0,0.0,0.0,0.0,0.009821899499009693,0.5595515368268986,9.811224832477738,0.0,0.0,0.0,0.0,0.0,0.0,0.0,0.0,0.0
2025/05/21 11:47:41.336291553,1747820861,335210475,mA1/imu,0.13060210171177167,0.9914345354839051,0.0006991936843413873,0.00040497712645542414,0.0,0.0,0.0,0.0,0.0,0.0,0.0,0.0,0.0,-0.0007955969962699675,-0.003510722729835793,-6.628733720644904e-05,0.0,0.0,0.0,0.0,0.0,0.0,0.0,0.0,0.0,0.009194298029546225,0.526884864428958,9.810554812991764,0.0,0.0,0.0,0.0,0.0,0.0,0.0,0.0,0.0
2025/05/21 11:47:41.385363614,1747820861,384926850,mA1/imu,0.13060189013060447,0.9914345443500904,0.0006696449903284669,0.0004920764464282451,0.0,0.0,0.0,0.0,0.0,0.0,0.0,0.0,0.0,0.0009611710617185227,-0.0036355409029960083,2.7628579309404203e-05,0.0,0.0,0.0,0.0,0.0,0.0,0.0,0.0,0.0,0.00772511694293352,0.01686254199706507,9.810649061239204,0.0,0.0,0.0,0.0,0.0,0.0,0.0,0.0,0.0
2025/05/21 11:47:41.436168097,1747820861,435853079,mA1/imu,0.1306039485664819,0.9914342481333204,0.0006390781920803299,0.0005760435973296143,0.0,0.0,0.0,0.0,0.0,0.0,0.0,0.0,0.0,0.0015651974290648149,-0.00339080656908534,0.00011709316735103793,0.0,0.0,0.0,0.0,0.0,0.0,0.0,0.0,0.0,0.006333372707717862,-0.38195707425646347,9.809031173115272,0.0,0.0,0.0,0.0,0.0,0.0,0.0,0.0,0.0
2025/05/21 11:47:41.476147631,1747820861,475723662,mA1/imu,0.13060841171455864,0.9914336290811989,0.0006119261272863185,0.0006538063158145422,0.0,0.0,0.0,0.0,0.0,0.0,0.0,0.0,0.0,0.0005802209012524516,-0.0030899927224486744,0.00021798648639948407,0.0,0.0,0.0,0.0,0.0,0.0,0.0,0.0,0.0,0.006578222224618381,0.32143352810366893,9.810294563664769,0.0,0.0,0.0,0.0,0.0,0.0,0.0,0.0,0.0
2025/05/21 11:47:41.527974649,1747820861,527567339,mA1/imu,0.13060172569561596,0.9914344615151609,0.000587350572349647,0.0007434949732348923,0.0,0.0,0.0,0.0,0.0,0.0,0.0,0.0,0.0,0.00015396405984562128,-0.0047850415029891515,-0.001057102137736206,0.0,0.0,0.0,0.0,0.0,0.0,0.0,0.0,0.0,0.11706495805281536,-0.048534502989944675,9.80748053422594,0.0,0.0,0.0,0.0,0.0,0.0,0.0,0.0,0.0
2025/05/21 11:47:41.577739530,1747820861,577326425,mA1/imu,0.1305652358594341,0.9914391855630084,0.0005562105242643914,0.0008666862070519602,0.0,0.0,0.0,0.0,0.0,0.0,0.0,0.0,0.0,0.0004963775451476549,-0.00468632967565798,-0.0014559391112345251,0.0,0.0,0.0,0.0,0.0,0.0,0.0,0.0,0.0,0.0034209031559437122,0.003098230258521356,9.810020751797287,0.0,0.0,0.0,0.0,0.0,0.0,0.0,0.0,0.0
2025/05/21 11:47:41.630619740,1747820861,630246427,mA1/imu,0.130530931071904,0.9914436267691491,0.0005307175814856084,0.0009640078769049163,0.0,0.0,0.0,0.0,0.0,0.0,0.0,0.0,0.0,0.0013211116021120742,-0.003473529933714067,-0.0013193636535266547,0.0,0.0,0.0,0.0,0.0,0.0,0.0,0.0,0.0,-0.0009679487548550705,-0.34861309068068475,9.808866989320851,0.0,0.0,0.0,0.0,0.0,0.0,0.0,0.0,0.0
2025/05/21 11:47:41.680473993,1747820861,679996057,mA1/imu,0.1305001719052695,0.9914476150708255,0.0005203968223046578,0.0010299952498581098,0.0,0.0,0.0,0.0,0.0,0.0,0.0,0.0,0.0,-0.0008933561102633536,-0.002107784820607098,-0.0011928520348828612,0.0,0.0,0.0,0.0,0.0,0.0,0.0,0.0,0.0,1.4607006803103034e-05,0.5552540984485659,9.810653440522387,0.0,0.0,0.0,0.0,0.0,0.0,0.0,0.0,0.0
2025/05/21 11:47:41.732178182,1747820861,731980807,mA1/imu,0.13047271814817565,0.9914512027261959,0.0005113663771112856,0.0010587427613591948,0.0,0.0,0.0,0.0,0.0,0.0,0.0,0.0,0.0,0.0004282583420829292,-0.0005177202422361497,-0.001047225678923455,0.0,0.0,0.0,0.0,0.0,0.0,0.0,0.0,0.0,-0.0030982305859294478,0.026539345877056864,9.812079328788156,0.0,0.0,0.0,0.0,0.0,0.0,0.0,0.0,0.0
2025/05/21 11:47:41.784134227,1747820861,782698803,mA1/imu,0.13044870929562807,0.9914543669908652,0.0005194280202471335,0.0010500535126679895,0.0,0.0,0.0,0.0,0.0,0.0,0.0,0.0,0.0,-0.0008903920922900743,0.0009663260704241122,-0.0009182743012266981,0.0,0.0,0.0,0.0,0.0,0.0,0.0,0.0,0.0,0.0011587179239182926,0.573388656116138,9.810929830896466,0.0,0.0,0.0,0.0,0.0,0.0,0.0,0.0,0.0
2025/05/21 11:47:41.838391191,1747820861,836566153,mA1/imu,0.13042584090469328,0.9914574162924596,0.0005283653067402714,0.0010062470305738963,0.0,0.0,0.0,0.0,0.0,0.0,0.0,0.0,0.0,-0.00029209800589083455,0.0023216654582526135,-0.0009063093749006415,0.0,0.0,0.0,0.0,0.0,0.0,0.0,0.0,0.0,0.0011398600085472423,-0.018738069145797637,9.810409531381437,0.0,0.0,0.0,0.0,0.0,0.0,0.0,0.0,0.0
2025/05/21 11:47:41.876712785,1747820861,876301104,mA1/imu,0.13040507033521864,0.9914602114644828,0.0005476460464629873,0.0009310195902385314,0.0,0.0,0.0,0.0,0.0,0.0,0.0,0.0,0.0,-0.0016075489680061415,0.003571682646656939,-0.0007892078988030884,0.0,0.0,0.0,0.0,0.0,0.0,0.0,0.0,0.0,0.0018411189775000107,0.5426438362676089,9.81092380159015,0.0,0.0,0.0,0.0,0.0,0.0,0.0,0.0,0.0
2025/05/21 11:47:41.930105138,1747820861,928150298,mA1/imu,0.13038784861922467,0.9914625558942071,0.0005696578573904865,0.0008274551963247022,0.0,0.0,0.0,0.0,0.0,0.0,0.0,0.0,0.0,-0.001457823726824352,0.004675419746164614,-0.0006036090955147302,0.0,0.0,0.0,0.0,0.0,0.0,0.0,0.0,0.0,-0.0024587714780023567,0.5601368592152947,9.81187152176056,0.0,0.0,0.0,0.0,0.0,0.0,0.0,0.0,0.0
2025/05/21 11:47:41.980906247,1747820861,980636146,mA1/imu,0.13037524831651512,0.9914642982971441,0.0005915477402824813,0.0006999284461110645,0.0,0.0,0.0,0.0,0.0,0.0,0.0,0.0,0.0,-0.0005911707121240946,0.005447133017662686,-0.0004553465738730649,0.0,0.0,0.0,0.0,0.0,0.0,0.0,0.0,0.0,0.003609222627456679,0.002418612684361462,9.80865485446727,0.0,0.0,0.0,0.0,0.0,0.0,0.0,0.0,0.0
2025/05/21 11:47:42.32461291,1747820862,32073314,mA1/imu,0.1303657037098882,0.9914656230049982,0.0006226519427408918,0.0005603571134828323,0.0,0.0,0.0,0.0,0.0,0.0,0.0,0.0,0.0,4.4633561562891055e-05,0.005822742850592288,-0.00033197097789740857,0.0,0.0,0.0,0.0,0.0,0.0,0.0,0.0,0.0,0.006315375832765514,0.03682650890001456,9.809351717634827,0.0,0.0,0.0,0.0,0.0,0.0,0.0,0.0,0.0
2025/05/21 11:47:42.81790952,1747820862,81394686,mA1/imu,0.13035918529613338,0.9914665304436001,0.000654413543644601,0.0004166076956496621,0.0,0.0,0.0,0.0,0.0,0.0,0.0,0.0,0.0,-0.0008130764543655279,0.005848844016739261,-0.00021068501186020757,0.0,0.0,0.0,0.0,0.0,0.0,0.0,0.0,0.0,0.0076064011022713915,0.6048224190030709,9.81092795724425,0.0,0.0,0.0,0.0,0.0,0.0,0.0,0.0,0.0
2025/05/21 11:47:42.133484346,1747820862,133071760,mA1/imu,0.13035373628984587,0.9914672748141437,0.000685031523327369,0.00027774035493019847,0.0,0.0,0.0,0.0,0.0,0.0,0.0,0.0,0.0,0.000840088641505883,0.00550924071141409,-0.0002080842473347716,0.0,0.0,0.0,0.0,0.0,0.0,0.0,0.0,0.0,0.008296929916141279,-0.535545981753098,9.808574617022314,0.0,0.0,0.0,0.0,0.0,0.0,0.0,0.0,0.0
2025/05/21 11:47:42.176644175,1747820862,176305130,mA1/imu,0.13035009473757458,0.9914677569608173,0.0007187827542441467,0.00015185632345829616,0.0,0.0,0.0,0.0,0.0,0.0,0.0,0.0,0.0,0.00048612547869340703,0.00487733297919455,-0.00010016332282507327,0.0,0.0,0.0,0.0,0.0,0.0,0.0,0.0,0.0,0.009686265555074507,-0.5658951714350837,9.809713095223183,0.0,0.0,0.0,0.0,0.0,0.0,0.0,0.0,0.0
2025/05/21 11:47:42.229344957,1747820862,229107135,mA1/imu,0.1303543798927347,0.9914671882357241,0.000740963039178487,3.5616041428963964e-05,0.0,0.0,0.0,0.0,0.0,0.0,0.0,0.0,0.0,0.0010829005638677697,0.004466806263670718,0.0003077066758450797,0.0,0.0,0.0,0.0,0.0,0.0,0.0,0.0,0.0,0.010904382540018688,-0.5276772604186208,9.808565051906982,0.0,0.0,0.0,0.0,0.0,0.0,0.0,0.0,0.0
2025/05/21 11:47:42.279225228,1747820862,278890571,mA1/imu,0.13036353656907146,0.9914659663093623,0.0007633758846162523,-5.692719487713612e-05,0.0,0.0,0.0,0.0,0.0,0.0,0.0,0.0,0.0,0.0004400764627201645,0.003290075450312191,0.00041516792430269073,0.0,0.0,0.0,0.0,0.0,0.0,0.0,0.0,0.0,0.011449020980150482,-0.5785194259951526,9.809562180531698,0.0,0.0,0.0,0.0,0.0,0.0,0.0,0.0,0.0
2025/05/21 11:47:42.330776131,1747820862,330003114,mA1/imu,0.13037531222693471,0.9914644020348896,0.0007768689674025827,-0.00011804209185993695,0.0,0.0,0.0,0.0,0.0,0.0,0.0,0.0,0.0,0.00023275661941993766,0.001936482921169633,0.0005180718780572718,0.0,0.0,0.0,0.0,0.0,0.0,0.0,0.0,0.0,0.01191077281085566,-0.3451461133616911,9.808852412252234,0.0,0.0,0.0,0.0,0.0,0.0,0.0,0.0,0.0
2025/05/21 11:47:42.381731854,1747820862,379870024,mA1/imu,0.13038964836473801,0.9914625060169578,0.0007861869816583817,-0.00014377734074784448,0.0,0.0,0.0,0.0,0.0,0.0,0.0,0.0,0.0,-0.0004967744078228215,0.0004853352863325,0.0006197953611174076,0.0,0.0,0.0,0.0,0.0,0.0,0.0,0.0,0.0,0.011609109436966521,-0.07445844998008035,9.80961625521265,0.0,0.0,0.0,0.0,0.0,0.0,0.0,0.0,0.0
2025/05/21 11:47:42.431087138,1747820862,430789266,mA1/imu,0.1304064715232253,0.9914602981103784,0.0007819607776142319,-0.00013413830254055002,0.0,0.0,0.0,0.0,0.0,0.0,0.0,0.0,0.0,0.0009269084880719317,-0.0009911812688937927,0.0007174458985445382,0.0,0.0,0.0,0.0,0.0,0.0,0.0,0.0,0.0,0.010939300332073375,-0.3836674389377666,9.808989855950927,0.0,0.0,0.0,0.0,0.0,0.0,0.0,0.0,0.0
2025/05/21 11:47:42.483738146,1747820862,483438699,mA1/imu,0.13042572342777448,0.9914577770394062,0.000774022276282357,-8.891533427711879e-05,0.0,0.0,0.0,0.0,0.0,0.0,0.0,0.0,0.0,-0.0007129144186928638,-0.0023712010237840935,0.000813084163866377,0.0,0.0,0.0,0.0,0.0,0.0,0.0,0.0,0.0,0.010814217704680591,0.5752364849784992,9.809374871100143,0.0,0.0,0.0,0.0,0.0,0.0,0.0,0.0,0.0
2025/05/21 11:47:42.538393532,1747820862,535553971,mA1/imu,0.13044521975863654,0.9914552268093885,0.0007600912521376407,-1.1651337437914214e-05,0.0,0.0,0.0,0.0,0.0,0.0,0.0,0.0,0.0,0.0006980961581153914,-0.0036042326873456446,0.0007855996883626189,0.0,0.0,0.0,0.0,0.0,0.0,0.0,0.0,0.0,0.008536468845714908,0.14873574152774427,9.808985851243543,0.0,0.0,0.0,0.0,0.0,0.0,0.0,0.0,0.0
2025/05/21 11:47:42.577713024,1747820862,575608272,mA1/imu,0.13046600314525764,0.9914524869344482,0.0007610678000083637,9.460762646545096e-05,0.0,0.0,0.0,0.0,0.0,0.0,0.0,0.0,0.0,-0.00047423115927237993,-0.004597088266590401,0.0008685410331812482,0.0,0.0,0.0,0.0,0.0,0.0,0.0,0.0,0.0,0.008451525203888968,-0.6739464384507627,9.810268015601448,0.0,0.0,0.0,0.0,0.0,0.0,0.0,0.0,0.0
2025/05/21 11:47:42.626919291,1747820862,626544512,mA1/imu,0.13050397333585964,0.9914475031499518,0.0007247013515260629,0.00019039230693240628,0.0,0.0,0.0,0.0,0.0,0.0,0.0,0.0,0.0,-0.0011037075694955963,-0.00277854904499615,0.002453936562765088,0.0,0.0,0.0,0.0,0.0,0.0,0.0,0.0,0.0,-0.10291692725421399,0.5295025187852219,9.80631630080565,0.0,0.0,0.0,0.0,0.0,0.0,0.0,0.0,0.0
2025/05/21 11:47:42.680176722,1747820862,679990506,mA1/imu,0.1306008487140986,0.9914347453958253,0.0007185244426292742,0.00021831101075449078,0.0,0.0,0.0,0.0,0.0,0.0,0.0,0.0,0.0,-0.0005337642494872033,3.152120984752176e-05,0.004873721636173015,0.0,0.0,0.0,0.0,0.0,0.0,0.0,0.0,0.0,-0.10415902099116567,0.12141865660294898,9.81068845405253,0.0,0.0,0.0,0.0,0.0,0.0,0.0,0.0,0.0
2025/05/21 11:47:42.731633420,1747820862,731248739,mA1/imu,0.13075652526154904,0.9914142380902973,0.000712495252136628,0.00017878444294252579,0.0,0.0,0.0,0.0,0.0,0.0,0.0,0.0,0.0,0.00018810850801754842,0.002551747301352541,0.007215666432195091,0.0,0.0,0.0,0.0,0.0,0.0,0.0,0.0,0.0,-0.09392500923915849,-0.059185371168883484,9.813117658502183,0.0,0.0,0.0,0.0,0.0,0.0,0.0,0.0,0.0
2025/05/21 11:47:42.781539341,1747820862,781170262,mA1/imu,0.1309697177293224,0.991386108646159,0.0007145433086532825,7.777652603223689e-05,0.0,0.0,0.0,0.0,0.0,0.0,0.0,0.0,0.0,0.000562833717470484,0.004876813931007927,0.009516355741064155,0.0,0.0,0.0,0.0,0.0,0.0,0.0,0.0,0.0,-0.08562539094446846,0.013202716291741745,9.812217414777958,0.0,0.0,0.0,0.0,0.0,0.0,0.0,0.0,0.0
2025/05/21 11:47:42.833150086,1747820862,832279098,mA1/imu,0.13123773468668873,0.9913506539576132,0.0007304437010136997,-6.590992805550943e-05,0.0,0.0,0.0,0.0,0.0,0.0,0.0,0.0,0.0,-0.00048030143107395836,0.006035575047658136,0.0114990310513604,0.0,0.0,0.0,0.0,0.0,0.0,0.0,0.0,0.0,-0.02020526507516836,0.5843725829285278,9.811101525291372,0.0,0.0,0.0,0.0,0.0,0.0,0.0,0.0,0.0
2025/05/21 11:47:42.884705756,1747820862,882706136,mA1/imu,0.13152820022936856,0.9913121222968867,0.0007561533502729705,-0.00019225965811432653,0.0,0.0,0.0,0.0,0.0,0.0,0.0,0.0,0.0,-0.0017860817229020504,0.00427543595582506,0.011725952337316657,0.0,0.0,0.0,0.0,0.0,0.0,0.0,0.0,0.0,0.02972308596116365,0.5165394061636155,9.80996306772723,0.0,0.0,0.0,0.0,0.0,0.0,0.0,0.0,0.0
2025/05/21 11:47:42.934962655,1747820862,934077780,mA1/imu,0.13182289143786305,0.9912729416495565,0.0007799818978117121,-0.00026846719649848056,0.0,0.0,0.0,0.0,0.0,0.0,0.0,0.0,0.0,-0.0010913252151245581,0.0025323441034527223,0.01210525904517367,0.0,0.0,0.0,0.0,0.0,0.0,0.0,0.0,0.0,0.018631124806717216,-0.22706886694647255,9.809947308772141,0.0,0.0,0.0,0.0,0.0,0.0,0.0,0.0,0.0
2025/05/21 11:47:42.986558090,1747820862,983992156,mA1/imu,0.1321229747781106,0.9912329685390946,0.000797221543635745,-0.0002933509287779116,0.0,0.0,0.0,0.0,0.0,0.0,0.0,0.0,0.0,-0.0005654871218529555,3.396605749130938e-05,0.012073268090645468,0.0,0.0,0.0,0.0,0.0,0.0,0.0,0.0,0.0,0.031005186499753264,-0.32427339635012437,9.810352204540152,0.0,0.0,0.0,0.0,0.0,0.0,0.0,0.0,0.0
2025/05/21 11:47:43.35375369,1747820863,35158206,mA1/imu,0.13242104393994042,0.9911931873196442,0.0008172219343864091,-0.0002543251679990693,0.0,0.0,0.0,0.0,0.0,0.0,0.0,0.0,0.0,-0.002068955550748346,-0.002413795061736546,0.011998229341966902,0.0,0.0,0.0,0.0,0.0,0.0,0.0,0.0,0.0,0.02843939345834632,0.4165835080609967,9.809748128788218,0.0,0.0,0.0,0.0,0.0,0.0,0.0,0.0,0.0
2025/05/21 11:47:43.86206108,1747820863,84911355,mA1/imu,0.1327173599987426,0.9911535674532983,0.0008265163878248525,-0.00015795640160527687,0.0,0.0,0.0,0.0,0.0,0.0,0.0,0.0,0.0,-0.002342705850430064,-0.004614623584584683,0.011928818203434109,0.0,0.0,0.0,0.0,0.0,0.0,0.0,0.0,0.0,0.02482933608799222,0.5338958794385942,9.810796469720229,0.0,0.0,0.0,0.0,0.0,0.0,0.0,0.0,0.0
2025/05/21 11:47:43.136753829,1747820863,136539630,mA1/imu,0.13301208398261485,0.9911140648598915,0.0008341650423291164,-1.0962978318921569e-05,0.0,0.0,0.0,0.0,0.0,0.0,0.0,0.0,0.0,-0.0010412729154658854,-0.006509268618598297,0.011863202792716484,0.0,0.0,0.0,0.0,0.0,0.0,0.0,0.0,0.0,0.022238911983035903,-0.003680229695852036,9.811958720677998,0.0,0.0,0.0,0.0,0.0,0.0,0.0,0.0,0.0
2025/05/21 11:47:43.176863617,1747820863,176251451,mA1/imu,0.1333053082571785,0.9910746503526441,0.0008373394103854741,0.0001762996167213669,0.0,0.0,0.0,0.0,0.0,0.0,0.0,0.0,0.0,0.0008074502232829322,-0.007974719257969427,0.011805851917911343,0.0,0.0,0.0,0.0,0.0,0.0,0.0,0.0,0.0,0.021827697158013713,-0.5057779408234105,9.809610586919764,0.0,0.0,0.0,0.0,0.0,0.0,0.0,0.0,0.0
2025/05/21 11:47:43.227641689,1747820863,227232809,mA1/imu,0.13359716505712965,0.9910352891961577,0.0008368056985407983,0.00039091278960048904,0.0,0.0,0.0,0.0,0.0,0.0,0.0,0.0,0.0,0.0005241410907482322,-0.008849748410114145,0.011748248299374136,0.0,0.0,0.0,0.0,0.0,0.0,0.0,0.0,0.0,0.01781557708486789,-0.5252326094211675,9.809083362778734,0.0,0.0,0.0,0.0,0.0,0.0,0.0,0.0,0.0
2025/05/21 11:47:43.279445973,1747820863,279158487,mA1/imu,0.13388741966212256,0.9909960028620238,0.0008342959613585469,0.0006205787291392523,0.0,0.0,0.0,0.0,0.0,0.0,0.0,0.0,0.0,-0.0012706716338781291,-0.009238873068766484,0.011682026944717375,0.0,0.0,0.0,0.0,0.0,0.0,0.0,0.0,0.0,0.01782888738549453,0.5999038459086631,9.811483724049687,0.0,0.0,0.0,0.0,0.0,0.0,0.0,0.0,0.0
2025/05/21 11:47:43.330469643,1747820863,330161646,mA1/imu,0.13417782223442423,0.9909565562404586,0.0008347805743624549,0.0008478241978627092,0.0,0.0,0.0,0.0,0.0,0.0,0.0,0.0,0.0,-0.002215897904350275,-0.008712203780454755,0.011772800896716042,0.0,0.0,0.0,0.0,0.0,0.0,0.0,0.0,0.0,0.007673266793066031,0.5253680962677261,9.811538533812202,0.0,0.0,0.0,0.0,0.0,0.0,0.0,0.0,0.0
2025/05/21 11:47:43.380278567,1747820863,380019350,mA1/imu,0.13446928659052998,0.9909168551887005,0.0008260017842581638,0.0010558351302476254,0.0,0.0,0.0,0.0,0.0,0.0,0.0,0.0,0.0,-0.0008749039371203108,-0.008001580378684264,0.011737585016806504,0.0,0.0,0.0,0.0,0.0,0.0,0.0,0.0,0.0,0.013273771415787505,-0.1406827849845381,9.80993763134324,0.0,0.0,0.0,0.0,0.0,0.0,0.0,0.0,0.0
2025/05/21 11:47:43.433418006,1747820863,432480064,mA1/imu,0.1347593043032213,0.9908772524968704,0.0008146289886847585,0.00123966429967146,0.0,0.0,0.0,0.0,0.0,0.0,0.0,0.0,0.0,-0.00036322594459511394,-0.006873846496546328,0.011678667999811003,0.0,0.0,0.0,0.0,0.0,0.0,0.0,0.0,0.0,0.011060882993886897,0.0009110209420510988,9.810070600581266,0.0,0.0,0.0,0.0,0.0,0.0,0.0,0.0,0.0
2025/05/21 11:47:43.482898687,1747820863,482241143,mA1/imu,0.13504770076243722,0.9908377977840828,0.0008042816647900089,0.0013892919678200801,0.0,0.0,0.0,0.0,0.0,0.0,0.0,0.0,0.0,-0.0006839692532185704,-0.005370606573290685,0.011610121525123042,0.0,0.0,0.0,0.0,0.0,0.0,0.0,0.0,0.0,0.011311768462173431,0.15218424725713736,9.81062009831175,0.0,0.0,0.0,0.0,0.0,0.0,0.0,0.0,0.0
2025/05/21 11:47:43.535365391,1747820863,533468467,mA1/imu,0.13533114594284182,0.9907989690812953,0.0007968527705116074,0.0014996102500329728,0.0,0.0,0.0,0.0,0.0,0.0,0.0,0.0,0.0,-0.001033654660350524,-0.0038792655374983954,0.011215205787456224,0.0,0.0,0.0,0.0,0.0,0.0,0.0,0.0,0.0,0.02820988563725194,0.36799536256728044,9.81102048309869,0.0,0.0,0.0,0.0,0.0,0.0,0.0,0.0,0.0
2025/05/21 11:47:43.583711398,1747820863,583270918,mA1/imu,0.13559976014920486,0.9907621343263863,0.0007878822680558573,0.001573999375366818,0.0,0.0,0.0,0.0,0.0,0.0,0.0,0.0,0.0,3.9395247429008094e-05,-0.0023986151084271165,0.01059705059295077,0.0,0.0,0.0,0.0,0.0,0.0,0.0,0.0,0.0,0.025679676759008327,-0.29894647171472194,9.80982818280867,0.0,0.0,0.0,0.0,0.0,0.0,0.0,0.0,0.0
2025/05/21 11:47:43.636186882,1747820863,635329084,mA1/imu,0.1358532373434885,0.9907273631870338,0.0007768271232401555,0.0016081900949480258,0.0,0.0,0.0,0.0,0.0,0.0,0.0,0.0,0.0,0.0012971834337643568,-0.0007802762971819228,0.00998390563437158,0.0,0.0,0.0,0.0,0.0,0.0,0.0,0.0,0.0,0.026034706089282378,-0.5733156569977239,9.808006539010343,0.0,0.0,0.0,0.0,0.0,0.0,0.0,0.0,0.0
2025/05/21 11:47:43.685626037,1747820863,685146248,mA1/imu,0.1360909387153177,0.9906947463450462,0.0007776993545458045,0.0016034798478750684,0.0,0.0,0.0,0.0,0.0,0.0,0.0,0.0,0.0,-0.00040557027625737896,0.0008271385073495777,0.009339493914073424,0.0,0.0,0.0,0.0,0.0,0.0,0.0,0.0,0.0,0.02598324734297248,0.5596063864244647,9.809796930810236,0.0,0.0,0.0,0.0,0.0,0.0,0.0,0.0,0.0
2025/05/21 11:47:43.726426679,1747820863,726051068,mA1/imu,0.13631248342455496,0.9906643578609183,0.0007792083698911727,0.001558769053174038,0.0,0.0,0.0,0.0,0.0,0.0,0.0,0.0,0.0,0.00030025695412305535,0.002394024823937077,0.008685014997808016,0.0,0.0,0.0,0.0,0.0,0.0,0.0,0.0,0.0,0.0248365133749476,-0.21449141412004974,9.808969541379389,0.0,0.0,0.0,0.0,0.0,0.0,0.0,0.0,0.0
2025/05/21 11:47:43.779796528,1747820863,776679095,mA1/imu,0.13651771655093248,0.9906362215916553,0.0007823126421873451,0.001475644014729329,0.0,0.0,0.0,0.0,0.0,0.0,0.0,0.0,0.0,0.0003826897478070282,0.0038982742911561077,0.008028338271670672,0.0,0.0,0.0,0.0,0.0,0.0,0.0,0.0,0.0,0.02295354742368257,-0.02457585749849268,9.808920026059818,0.0,0.0,0.0,0.0,0.0,0.0,0.0,0.0,0.0
2025/05/21 11:47:43.829400764,1747820863,829111448,mA1/imu,0.13670640819060967,0.990610360578965,0.0007913249912128606,0.0013584100977760826,0.0,0.0,0.0,0.0,0.0,0.0,0.0,0.0,0.0,0.0004367189092344871,0.0051496393533931525,0.007342182230123275,0.0,0.0,0.0,0.0,0.0,0.0,0.0,0.0,0.0,0.028095072093679098,-0.3497970865838103,9.807504853062502,0.0,0.0,0.0,0.0,0.0,0.0,0.0,0.0,0.0
2025/05/21 11:47:43.883253674,1747820863,879229851,mA1/imu,0.13687782927398012,0.9905868749710973,0.000794563415513444,0.001213118797855738,0.0,0.0,0.0,0.0,0.0,0.0,0.0,0.0,0.0,-0.0007805765441887072,0.0061717059571352855,0.006654329393617989,0.0,0.0,0.0,0.0,0.0,0.0,0.0,0.0,0.0,0.02374176919543604,0.5089449640777367,9.811408282166015,0.0,0.0,0.0,0.0,0.0,0.0,0.0,0.0,0.0
2025/05/21 11:47:43.930743001,1747820863,930425767,mA1/imu,0.13703169360121523,0.990565780271314,0.0008053487207360947,0.0010494368507813212,0.0,0.0,0.0,0.0,0.0,0.0,0.0,0.0,0.0,-7.210703874855976e-05,0.006799781982676391,0.005932525799046012,0.0,0.0,0.0,0.0,0.0,0.0,0.0,0.0,0.0,0.024819722279275102,-0.07745848387551789,9.812103542083944,0.0,0.0,0.0,0.0,0.0,0.0,0.0,0.0,0.0
2025/05/21 11:47:43.980431602,1747820863,980083483,mA1/imu,0.13717166806412953,0.9905465796004256,0.0008113177463067638,0.0008653819485018328,0.0,0.0,0.0,0.0,0.0,0.0,0.0,0.0,0.0,0.00014212287075169257,0.007719712104045469,0.00554384999743498,0.0,0.0,0.0,0.0,0.0,0.0,0.0,0.0,0.0,0.0013652938965476782,0.39620344836929694,9.81124964801007,0.0,0.0,0.0,0.0,0.0,0.0,0.0,0.0,0.0
2025/05/21 11:47:44.33652527,1747820864,31026650,mA1/imu,0.1373122250377865,0.9905272624085566,0.0008172937065043724,0.000653690737196483,0.0,0.0,0.0,0.0,0.0,0.0,0.0,0.0,0.0,0.0005634174309721773,0.008958093516117097,0.005873088959284867,0.0,0.0,0.0,0.0,0.0,0.0,0.0,0.0,0.0,-0.006366902452469106,0.26228830659521046,9.810103028859645,0.0,0.0,0.0,0.0,0.0,0.0,0.0,0.0,0.0
2025/05/21 11:47:44.81098868,1747820864,80900265,mA1/imu,0.13745670934199353,0.9905073371122457,0.0008288373166302077,0.00042569047621172126,0.0,0.0,0.0,0.0,0.0,0.0,0.0,0.0,0.0,-0.00032004858423048725,0.009065677398762703,0.005787448073363152,0.0,0.0,0.0,0.0,0.0,0.0,0.0,0.0,0.0,0.006637859051815623,0.5280108940543302,9.810309593644325,0.0,0.0,0.0,0.0,0.0,0.0,0.0,0.0,0.0
2025/05/21 11:47:44.132213358,1747820864,132045338,mA1/imu,0.13759716726202786,0.9904878998548801,0.0008355166134359475,0.00020424133625546176,0.0,0.0,0.0,0.0,0.0,0.0,0.0,0.0,0.0,-9.844514886391273e-05,0.008578000804016623,0.005586246560643141,0.0,0.0,0.0,0.0,0.0,0.0,0.0,0.0,0.0,0.010108012267352622,-0.12408996591932003,9.81139072827434,0.0,0.0,0.0,0.0,0.0,0.0,0.0,0.0,0.0
2025/05/21 11:47:44.183711987,1747820864,182757362,mA1/imu,0.1377331219512191,0.9904690303907493,0.0008288264638801174,1.0354951272164138e-06,0.0,0.0,0.0,0.0,0.0,0.0,0.0,0.0,0.0,0.0011483742848795656,0.007595570267312754,0.005448316511993144,0.0,0.0,0.0,0.0,0.0,0.0,0.0,0.0,0.0,0.008417509520855276,0.04121888112870836,9.812117986438023,0.0,0.0,0.0,0.0,0.0,0.0,0.0,0.0,0.0
2025/05/21 11:47:44.236121531,1747820864,235791543,mA1/imu,0.137865936885049,0.9904505406811931,0.0008252121071337596,-0.00017010619702788853,0.0,0.0,0.0,0.0,0.0,0.0,0.0,0.0,0.0,0.0013287237809096108,0.006144039592225522,0.005316258973751957,0.0,0.0,0.0,0.0,0.0,0.0,0.0,0.0,0.0,0.011747020316703011,0.04264403672179271,9.809957891095827,0.0,0.0,0.0,0.0,0.0,0.0,0.0,0.0,0.0
2025/05/21 11:47:44.275938818,1747820864,275767575,mA1/imu,0.137995425944077,0.9904324776346205,0.0008246493062731915,-0.0002993636273391561,0.0,0.0,0.0,0.0,0.0,0.0,0.0,0.0,0.0,0.0015351567581285354,0.004374626311015567,0.005182220653077341,0.0,0.0,0.0,0.0,0.0,0.0,0.0,0.0,0.0,0.011720643257991695,-0.603850260371851,9.810663412818622,0.0,0.0,0.0,0.0,0.0,0.0,0.0,0.0,0.0
2025/05/21 11:47:44.327234467,1747820864,326729046,mA1/imu,0.13812638676807346,0.9904142072210194,0.0008041385841267439,-0.0003908635232216082,0.0,0.0,0.0,0.0,0.0,0.0,0.0,0.0,0.0,0.001678459599804224,0.0030439661591794213,0.005460139217527493,0.0,0.0,0.0,0.0,0.0,0.0,0.0,0.0,0.0,0.0009692554586633508,-0.1643446692903806,9.809975538318831,0.0,0.0,0.0,0.0,0.0,0.0,0.0,0.0,0.0
2025/05/21 11:47:44.379937203,1747820864,376560163,mA1/imu,0.13826069305572938,0.9903954583585667,0.0007898824508100989,-0.0004392085927495745,0.0,0.0,0.0,0.0,0.0,0.0,0.0,0.0,0.0,0.0008330390951211906,0.0009594479146263684,0.005370070244657113,0.0,0.0,0.0,0.0,0.0,0.0,0.0,0.0,0.0,0.013478180968910429,0.21840281048881244,9.810920757180176,0.0,0.0,0.0,0.0,0.0,0.0,0.0,0.0,0.0
2025/05/21 11:47:44.428514064,1747820864,427577097,mA1/imu,0.1383908539232249,0.9903772909294895,0.0007784372236228708,-0.000432662749464647,0.0,0.0,0.0,0.0,0.0,0.0,0.0,0.0,0.0,-4.431904822867796e-05,-0.0011726995568719838,0.005167105300170379,0.0,0.0,0.0,0.0,0.0,0.0,0.0,0.0,0.0,0.012032109062480345,-0.05586189070971613,9.811069513091741,0.0,0.0,0.0,0.0,0.0,0.0,0.0,0.0,0.0
2025/05/21 11:47:44.478499241,1747820864,477390439,mA1/imu,0.13851653880023035,0.9903597636792217,0.0007522527829258725,-0.00037560589799782843,0.0,0.0,0.0,0.0,0.0,0.0,0.0,0.0,0.0,0.0013211099512395546,-0.0032124190234112133,0.005022061422901842,0.0,0.0,0.0,0.0,0.0,0.0,0.0,0.0,0.0,0.010498443382683489,-0.576310498034871,9.809965166402472,0.0,0.0,0.0,0.0,0.0,0.0,0.0,0.0,0.0
2025/05/21 11:47:44.531262064,1747820864,530903628,mA1/imu,0.13864119666571123,0.9903423742157006,0.0007254360918566834,-0.00027232771710340275,0.0,0.0,0.0,0.0,0.0,0.0,0.0,0.0,0.0,0.0010151327610114134,-0.004794899006978949,0.005128803121776056,0.0,0.0,0.0,0.0,0.0,0.0,0.0,0.0,0.0,-0.006462632323064092,0.05573914673102052,9.808612043107953,0.0,0.0,0.0,0.0,0.0,0.0,0.0,0.0,0.0
2025/05/21 11:47:44.582142503,1747820864,581879662,mA1/imu,0.13877276254730053,0.9903239893497233,0.000705539912222047,-0.00013677306774400558,0.0,0.0,0.0,0.0,0.0,0.0,0.0,0.0,0.0,-0.0007045369399208823,-0.005887663564531406,0.005435245687176263,0.0,0.0,0.0,0.0,0.0,0.0,0.0,0.0,0.0,-0.0051783018881704805,0.5727860665099216,9.809298203235633,0.0,0.0,0.0,0.0,0.0,0.0,0.0,0.0,0.0
2025/05/21 11:47:44.634965993,1747820864,634623733,mA1/imu,0.13891222098309466,0.9903044645403195,0.0006796484337781343,2.123820394413422e-05,0.0,0.0,0.0,0.0,0.0,0.0,0.0,0.0,0.0,0.0005007525630324778,-0.006689002631832268,0.005765655062572913,0.0,0.0,0.0,0.0,0.0,0.0,0.0,0.0,0.0,-0.002822477192958488,-0.5992740933828926,9.809765516671064,0.0,0.0,0.0,0.0,0.0,0.0,0.0,0.0,0.0
2025/05/21 11:47:44.685931877,1747820864,684510477,mA1/imu,0.13906028330231046,0.9902836830674242,0.0006532647881662862,0.00019468799407715013,0.0,0.0,0.0,0.0,0.0,0.0,0.0,0.0,0.0,0.0007587680490998318,-0.007212105444208128,0.006117070137964289,0.0,0.0,0.0,0.0,0.0,0.0,0.0,0.0,0.0,-0.0015123559016668071,-0.16174917091915136,9.810165256858804,0.0,0.0,0.0,0.0,0.0,0.0,0.0,0.0,0.0
2025/05/21 11:47:44.735878494,1747820864,735435688,mA1/imu,0.13921719252300677,0.9902615987341388,0.0006319165590100327,0.0003742458845087653,0.0,0.0,0.0,0.0,0.0,0.0,0.0,0.0,0.0,-0.0009354460667351808,-0.007213896455685198,0.006477644208975093,0.0,0.0,0.0,0.0,0.0,0.0,0.0,0.0,0.0,-0.006350156800696743,0.5860619314900164,9.808523512860857,0.0,0.0,0.0,0.0,0.0,0.0,0.0,0.0,0.0
2025/05/21 11:47:44.786923072,1747820864,785408983,mA1/imu,0.13938316386680333,0.9902381772364748,0.0006185782254563678,0.000550758425282578,0.0,0.0,0.0,0.0,0.0,0.0,0.0,0.0,0.0,0.00010108823040025559,-0.006929281258444765,0.006845488071743548,0.0,0.0,0.0,0.0,0.0,0.0,0.0,0.0,0.0,-0.0049831745730498644,-0.5909873904645891,9.807770474514632,0.0,0.0,0.0,0.0,0.0,0.0,0.0,0.0,0.0
2025/05/21 11:47:44.828269698,1747820864,826175800,mA1/imu,0.13955827013918032,0.9902134209552351,0.0006011405487742162,0.0007133203560618999,0.0,0.0,0.0,0.0,0.0,0.0,0.0,0.0,0.0,0.0008143403368301585,-0.0062425534585747715,0.007219369903630395,0.0,0.0,0.0,0.0,0.0,0.0,0.0,0.0,0.0,-0.005368207403721549,-0.2972016699675914,9.808769793102217,0.0,0.0,0.0,0.0,0.0,0.0,0.0,0.0,0.0
2025/05/21 11:47:44.876942210,1747820864,876065564,mA1/imu,0.1397426833071355,0.9901873028977006,0.0005950451027859696,0.0008564832891034798,0.0,0.0,0.0,0.0,0.0,0.0,0.0,0.0,0.0,-0.0006672227879652354,-0.005316960905389914,0.007597146500199979,0.0,0.0,0.0,0.0,0.0,0.0,0.0,0.0,0.0,-0.0026420272103906423,0.6225034068501473,9.811030485080334,0.0,0.0,0.0,0.0,0.0,0.0,0.0,0.0,0.0
2025/05/21 11:47:44.927472453,1747820864,927031471,mA1/imu,0.13993401946798606,0.9901601650787577,0.0006026746444699315,0.0009769698119932385,0.0,0.0,0.0,0.0,0.0,0.0,0.0,0.0,0.0,-0.0023326500369503416,-0.004396246471105833,0.007745057437568588,0.0,0.0,0.0,0.0,0.0,0.0,0.0,0.0,0.0,0.01028745729349144,0.5106967283472467,9.810513410216998,0.0,0.0,0.0,0.0,0.0,0.0,0.0,0.0,0.0
2025/05/21 11:47:44.977579366,1747820864,977217364,mA1/imu,0.14012541134432785,0.9901329909090378,0.0006093931753519375,0.0010761268808810937,0.0,0.0,0.0,0.0,0.0,0.0,0.0,0.0,0.0,-0.0007710961267718317,-0.00356932826402823,0.0076967831253780825,0.0,0.0,0.0,0.0,0.0,0.0,0.0,0.0,0.0,0.016841749284565985,-0.627329882704181,9.809293389248033,0.0,0.0,0.0,0.0,0.0,0.0,0.0,0.0,0.0
2025/05/21 11:47:45.28481858,1747820865,28270879,mA1/imu,0.1403145427407382,0.9901061162596639,0.0006153816887884696,0.0011527992189718339,0.0,0.0,0.0,0.0,0.0,0.0,0.0,0.0,0.0,0.0005784575013557908,-0.0026150793064569793,0.007602152550577416,0.0,0.0,0.0,0.0,0.0,0.0,0.0,0.0,0.0,0.015823790147376962,-0.5278501484442528,9.809046497709158,0.0,0.0,0.0,0.0,0.0,0.0,0.0,0.0,0.0
2025/05/21 11:47:45.78474791,1747820865,78129199,mA1/imu,0.14050134598732897,0.9900795498776118,0.0006357029818145657,0.0012052267892761286,0.0,0.0,0.0,0.0,0.0,0.0,0.0,0.0,0.0,-0.0012220526214284854,-0.0015216904194948885,0.007510487550464639,0.0,0.0,0.0,0.0,0.0,0.0,0.0,0.0,0.0,0.01677632214609639,0.6075680033887237,9.811573290746331,0.0,0.0,0.0,0.0,0.0,0.0,0.0,0.0,0.0
2025/05/21 11:47:45.130931830,1747820865,129126078,mA1/imu,0.14068593989750283,0.9900532865453212,0.0006653825376902959,0.0012301959367644734,0.0,0.0,0.0,0.0,0.0,0.0,0.0,0.0,0.0,-0.0026165182351494116,-0.00035716497338105467,0.00742480674847951,0.0,0.0,0.0,0.0,0.0,0.0,0.0,0.0,0.0,0.016651989744136272,0.5139364079582834,9.81102769813505,0.0,0.0,0.0,0.0,0.0,0.0,0.0,0.0,0.0
2025/05/21 11:47:45.179278998,1747820865,178937370,mA1/imu,0.14086843745739025,0.9900273231117398,0.000693685201758655,0.0012254066088353134,0.0,0.0,0.0,0.0,0.0,0.0,0.0,0.0,0.0,-0.000968351679897935,0.0008029083447717708,0.0073414791790717675,0.0,0.0,0.0,0.0,0.0,0.0,0.0,0.0,0.0,0.016082110519921998,-0.630830878541687,9.809747769802954,0.0,0.0,0.0,0.0,0.0,0.0,0.0,0.0,0.0
2025/05/21 11:47:45.230204623,1747820865,229878089,mA1/imu,0.14104727008785345,0.9900018840976873,0.0007166715606955657,0.0011930908043635163,0.0,0.0,0.0,0.0,0.0,0.0,0.0,0.0,0.0,0.0006017898738480511,0.0017551910091282066,0.007115834629401762,0.0,0.0,0.0,0.0,0.0,0.0,0.0,0.0,0.0,0.019569532940968977,-0.5291890640122835,9.809297039406472,0.0,0.0,0.0,0.0,0.0,0.0,0.0,0.0,0.0
2025/05/21 11:47:45.279976517,1747820865,279696298,mA1/imu,0.1412216284135711,0.9899770708289909,0.0007458935082105624,0.0011377802709163507,0.0,0.0,0.0,0.0,0.0,0.0,0.0,0.0,0.0,-0.0008870145168644617,0.002741329650442985,0.007014933039576104,0.0,0.0,0.0,0.0,0.0,0.0,0.0,0.0,0.0,0.01738187882002779,0.6146952377318777,9.811901357988821,0.0,0.0,0.0,0.0,0.0,0.0,0.0,0.0,0.0
2025/05/21 11:47:45.331023099,1747820865,330694465,mA1/imu,0.1413949411250729,0.9899523890474834,0.0007841491001846573,0.001059789415768984,0.0,0.0,0.0,0.0,0.0,0.0,0.0,0.0,0.0,-0.0023128855225358243,0.0036683389782737196,0.007020908167427827,0.0,0.0,0.0,0.0,0.0,0.0,0.0,0.0,0.0,0.016141157413111288,0.5051155436803667,9.811118547648931,0.0,0.0,0.0,0.0,0.0,0.0,0.0,0.0,0.0
2025/05/21 11:47:45.383993720,1747820865,381989361,mA1/imu,0.14156799686182783,0.9899277351134025,0.0008110122944978864,0.0009611331004103264,0.0,0.0,0.0,0.0,0.0,0.0,0.0,0.0,0.0,-0.0002389023181520464,0.004261343648738888,0.006970790024532159,0.0,0.0,0.0,0.0,0.0,0.0,0.0,0.0,0.0,0.018754070152962064,-0.6216257337541772,9.80949440301496,0.0,0.0,0.0,0.0,0.0,0.0,0.0,0.0,0.0
2025/05/21 11:47:45.435074830,1747820865,432971729,mA1/imu,0.14173790301041378,0.9899035126933027,0.0008232263566287378,0.0008512966795757097,0.0,0.0,0.0,0.0,0.0,0.0,0.0,0.0,0.0,0.001534871399723412,0.00444419476138371,0.0067652953613522825,0.0,0.0,0.0,0.0,0.0,0.0,0.0,0.0,0.0,0.0230045590436784,-0.5157493684609433,9.80937037640749,0.0,0.0,0.0,0.0,0.0,0.0,0.0,0.0,0.0
2025/05/21 11:47:45.483275259,1747820865,482767617,mA1/imu,0.14190379375851858,0.9898798136215569,0.000847950025871891,0.0007408658754149041,0.0,0.0,0.0,0.0,0.0,0.0,0.0,0.0,0.0,-0.0008306571525625933,0.00452717943287146,0.006683157555242237,0.0,0.0,0.0,0.0,0.0,0.0,0.0,0.0,0.0,0.020541594349596393,0.5614187067176316,9.810980025585943,0.0,0.0,0.0,0.0,0.0,0.0,0.0,0.0,0.0
2025/05/21 11:47:45.527140314,1747820865,526987619,mA1/imu,0.14206885929173774,0.9898562051105319,0.0008577981918013236,0.0006297666101641982,0.0,0.0,0.0,0.0,0.0,0.0,0.0,0.0,0.0,0.00024117719782592358,0.004357043083246693,0.0066603535044917825,0.0,0.0,0.0,0.0,0.0,0.0,0.0,0.0,0.0,0.019586860546725968,-0.008139587213282024,9.809434738542766,0.0,0.0,0.0,0.0,0.0,0.0,0.0,0.0,0.0
2025/05/21 11:47:45.578754503,1747820865,576515710,mA1/imu,0.1422336321868316,0.9898325950668726,0.0008667952786349037,0.0005256273080483081,0.0,0.0,0.0,0.0,0.0,0.0,0.0,0.0,0.0,0.0008199869962346842,0.004009925533836178,0.006665626545790316,0.0,0.0,0.0,0.0,0.0,0.0,0.0,0.0,0.0,0.01858999707902679,-0.6119358116461803,9.809132763225303,0.0,0.0,0.0,0.0,0.0,0.0,0.0,0.0,0.0
2025/05/21 11:47:45.627908401,1747820865,627558383,mA1/imu,0.14241162406013924,0.9898070641490077,0.0008582515923270612,0.0004104844456332754,0.0,0.0,0.0,0.0,0.0,0.0,0.0,0.0,0.0,0.002252541521151961,0.005461281852266127,0.007992502751910342,0.0,0.0,0.0,0.0,0.0,0.0,0.0,0.0,0.0,-0.08560408003804394,-0.5259602881584459,9.807860144750679,0.0,0.0,0.0,0.0,0.0,0.0,0.0,0.0,0.0
2025/05/21 11:47:45.678940407,1747820865,678650003,mA1/imu,0.1426356213327651,0.9897748629521781,0.0008598543256484986,0.0002466689111763884,0.0,0.0,0.0,0.0,0.0,0.0,0.0,0.0,0.0,0.002999266114260466,0.0064173571677029915,0.009329849921572455,0.0,0.0,0.0,0.0,0.0,0.0,0.0,0.0,0.0,0.024577815217191604,-0.492871682028608,9.80973600476302,0.0,0.0,0.0,0.0,0.0,0.0,0.0,0.0,0.0
2025/05/21 11:47:45.730398430,1747820865,729647481,mA1/imu,0.14287252120046132,0.9897407086528245,0.0008733084539341918,9.825259611775941e-05,0.0,0.0,0.0,0.0,0.0,0.0,0.0,0.0,0.0,0.0004442259030432578,0.005696086010423457,0.009860818525219368,0.0,0.0,0.0,0.0,0.0,0.0,0.0,0.0,0.0,0.012055773567547222,-0.03929326964303157,9.806760114995832,0.0,0.0,0.0,0.0,0.0,0.0,0.0,0.0,0.0
2025/05/21 11:47:45.780265989,1747820865,779469101,mA1/imu,0.14311837122471432,0.9897051943565683,0.0008715569734028788,-2.168073162630275e-05,0.0,0.0,0.0,0.0,0.0,0.0,0.0,0.0,0.0,-0.0006526388418479696,0.0040095471442493395,0.00994454988328469,0.0,0.0,0.0,0.0,0.0,0.0,0.0,0.0,0.0,0.026872327888618177,0.2742263233724867,9.810118210965557,0.0,0.0,0.0,0.0,0.0,0.0,0.0,0.0,0.0
2025/05/21 11:47:45.833327069,1747820865,833029020,mA1/imu,0.14336488099613343,0.9896695207713302,0.000861153478087728,-9.469898364858661e-05,0.0,0.0,0.0,0.0,0.0,0.0,0.0,0.0,0.0,-0.001254960384764431,0.002033078222741402,0.009971862596776782,0.0,0.0,0.0,0.0,0.0,0.0,0.0,0.0,0.0,0.028215647481543996,0.4774131367612082,9.81108717251961,0.0,0.0,0.0,0.0,0.0,0.0,0.0,0.0,0.0
2025/05/21 11:47:45.884908575,1747820865,883228949,mA1/imu,0.1436116768297434,0.98963375117353,0.0008431979832753429,-0.00011761597696794394,0.0,0.0,0.0,0.0,0.0,0.0,0.0,0.0,0.0,0.00015305047166606434,-1.7264425248292213e-05,0.009973947815628229,0.0,0.0,0.0,0.0,0.0,0.0,0.0,0.0,0.0,0.026776231277845737,-0.046522894124935,9.808738057301747,0.0,0.0,0.0,0.0,0.0,0.0,0.0,0.0,0.0
2025/05/21 11:47:45.936205089,1747820865,935157441,mA1/imu,0.1438564703361804,0.9895982230382092,0.000815499308991613,-8.867306076539294e-05,0.0,0.0,0.0,0.0,0.0,0.0,0.0,0.0,0.0,0.002034312631414285,-0.0021875785837642964,0.009795305495971652,0.0,0.0,0.0,0.0,0.0,0.0,0.0,0.0,0.0,0.026466599012216634,-0.36719533647697344,9.808887215515076,0.0,0.0,0.0,0.0,0.0,0.0,0.0,0.0,0.0
2025/05/21 11:47:45.985456107,1747820865,985149443,mA1/imu,0.14409784641536244,0.9895631288846519,0.0007902751876664145,-8.694832447280347e-06,0.0,0.0,0.0,0.0,0.0,0.0,0.0,0.0,0.0,0.0002759498376477486,-0.004042998609954593,0.009732122354120618,0.0,0.0,0.0,0.0,0.0,0.0,0.0,0.0,0.0,0.026991566088162892,0.5618220500493878,9.811315151638754,0.0,0.0,0.0,0.0,0.0,0.0,0.0,0.0,0.0
2025/05/21 11:47:46.28799621,1747820866,27848442,mA1/imu,0.14433708600711384,0.9895282775599568,0.0007617876086674523,0.00011485573446754293,0.0,0.0,0.0,0.0,0.0,0.0,0.0,0.0,0.0,0.00025080426520123796,-0.005678089482306544,0.009633480349280391,0.0,0.0,0.0,0.0,0.0,0.0,0.0,0.0,0.0,0.02374283958466865,-0.024014651970751297,9.81157483455337,0.0,0.0,0.0,0.0,0.0,0.0,0.0,0.0,0.0
2025/05/21 11:47:46.78279408,1747820866,77668010,mA1/imu,0.14457484465756804,0.9894935612328968,0.000729651933151918,0.00027235810236751534,0.0,0.0,0.0,0.0,0.0,0.0,0.0,0.0,0.0,-0.0006866953753933408,-0.00686171751049971,0.00958833205861826,0.0,0.0,0.0,0.0,0.0,0.0,0.0,0.0,0.0,0.022244954671434294,0.08989052543017463,9.810679085724507,0.0,0.0,0.0,0.0,0.0,0.0,0.0,0.0,0.0
2025/05/21 11:47:46.130145881,1747820866,129616767,mA1/imu,0.1448121369076048,0.9894588230327217,0.0006916481620766173,0.0004518293640134905,0.0,0.0,0.0,0.0,0.0,0.0,0.0,0.0,0.0,-0.0006037751118344067,-0.00755160556480424,0.009594150216560897,0.0,0.0,0.0,0.0,0.0,0.0,0.0,0.0,0.0,0.019553938011186545,0.5632863529859636,9.811113987836366,0.0,0.0,0.0,0.0,0.0,0.0,0.0,0.0,0.0
2025/05/21 11:47:46.180320846,1747820866,179626675,mA1/imu,0.14504877851717993,0.9894240788881556,0.0006558708990285979,0.0006432731634342245,0.0,0.0,0.0,0.0,0.0,0.0,0.0,0.0,0.0,0.00108415842445388,-0.0078950123674755,0.009543013184666327,0.0,0.0,0.0,0.0,0.0,0.0,0.0,0.0,0.0,0.018865021463345247,-0.5710456137622202,9.810080513182259,0.0,0.0,0.0,0.0,0.0,0.0,0.0,0.0,0.0
2025/05/21 11:47:46.231471054,1747820866,230715797,mA1/imu,0.14528269924042694,0.9893896279597569,0.0006314278387270774,0.0008382636540388686,0.0,0.0,0.0,0.0,0.0,0.0,0.0,0.0,0.0,3.7950640251030965e-05,-0.00781507678600758,0.009357500481252263,0.0,0.0,0.0,0.0,0.0,0.0,0.0,0.0,0.0,0.016673848938054778,-0.0036188283630262785,9.810634553376769,0.0,0.0,0.0,0.0,0.0,0.0,0.0,0.0,0.0
2025/05/21 11:47:46.283715966,1747820866,282542072,mA1/imu,0.1455134688020807,0.9893555616585018,0.0005995984728220822,0.0010215156619800376,0.0,0.0,0.0,0.0,0.0,0.0,0.0,0.0,0.0,-0.0011627539551321198,-0.00713661274369616,0.009314713001338078,0.0,0.0,0.0,0.0,0.0,0.0,0.0,0.0,0.0,0.0152555122603685,0.369858009585216,9.810279687245478,0.0,0.0,0.0,0.0,0.0,0.0,0.0,0.0,0.0
2025/05/21 11:47:46.335703082,1747820866,333550296,mA1/imu,0.1457428627941005,0.9893216269430565,0.0005777950984444498,0.0011842973224792453,0.0,0.0,0.0,0.0,0.0,0.0,0.0,0.0,0.0,-0.00022936144515669306,-0.006124297737818472,0.009246080983735182,0.0,0.0,0.0,0.0,0.0,0.0,0.0,0.0,0.0,0.012480700880397752,0.2448756513165249,9.810319008498004,0.0,0.0,0.0,0.0,0.0,0.0,0.0,0.0,0.0
2025/05/21 11:47:46.385591292,1747820866,383460455,mA1/imu,0.14597134657965793,0.9892877791586071,0.0005681586975723686,0.0013165032649534452,0.0,0.0,0.0,0.0,0.0,0.0,0.0,0.0,0.0,-0.0005809018804826289,-0.004701064704287858,0.00922814281016366,0.0,0.0,0.0,0.0,0.0,0.0,0.0,0.0,0.0,0.012184304488408427,-0.021644980098684877,9.809768623256208,0.0,0.0,0.0,0.0,0.0,0.0,0.0,0.0,0.0
2025/05/21 11:47:46.436211245,1747820866,435001833,mA1/imu,0.1461991993902997,0.9892540073476115,0.000561353759027894,0.001409938397428297,0.0,0.0,0.0,0.0,0.0,0.0,0.0,0.0,0.0,-0.000264664170618491,-0.003087919492848207,0.009194027663617895,0.0,0.0,0.0,0.0,0.0,0.0,0.0,0.0,0.0,0.012443612950909674,-0.14214040006019046,9.80956208591805,0.0,0.0,0.0,0.0,0.0,0.0,0.0,0.0,0.0
2025/05/21 11:47:46.489349846,1747820866,487378196,mA1/imu,0.14642638272450542,0.9892203334814197,0.00056000091544376,0.0014603657418622669,0.0,0.0,0.0,0.0,0.0,0.0,0.0,0.0,0.0,-0.00028450552541297637,-0.0012705312011510326,0.009182164876002232,0.0,0.0,0.0,0.0,0.0,0.0,0.0,0.0,0.0,0.01195797400931052,0.1461418263862254,9.809917902632346,0.0,0.0,0.0,0.0,0.0,0.0,0.0,0.0,0.0
2025/05/21 11:47:46.528620409,1747820866,528291530,mA1/imu,0.14664877142848703,0.9891873681218174,0.0005716687994747194,0.0014702998099664609,0.0,0.0,0.0,0.0,0.0,0.0,0.0,0.0,0.0,-0.0001278441413518478,0.0003255488639149172,0.00890447401931596,0.0,0.0,0.0,0.0,0.0,0.0,0.0,0.0,0.0,0.011403595549803566,0.20182313830806617,9.810337717229274,0.0,0.0,0.0,0.0,0.0,0.0,0.0,0.0,0.0
2025/05/21 11:47:46.581879153,1747820866,580023859,mA1/imu,0.14686871687777184,0.9891547695839764,0.0005958514603283782,0.0014376275541678135,0.0,0.0,0.0,0.0,0.0,0.0,0.0,0.0,0.0,0.00011557485687088745,0.0021232740489341997,0.008890463791823332,0.0,0.0,0.0,0.0,0.0,0.0,0.0,0.0,0.0,0.013039911404739615,-0.24629680225734216,9.808970494038062,0.0,0.0,0.0,0.0,0.0,0.0,0.0,0.0,0.0
2025/05/21 11:47:46.631505545,1747820866,630981060,mA1/imu,0.1470848757967712,0.9891227411102886,0.0006189101359353833,0.0013635543849720884,0.0,0.0,0.0,0.0,0.0,0.0,0.0,0.0,0.0,-0.0009540023273819551,0.0035233810117184334,0.008534875883424905,0.0,0.0,0.0,0.0,0.0,0.0,0.0,0.0,0.0,0.033850734409384874,-0.046154504069541046,9.80806027934244,0.0,0.0,0.0,0.0,0.0,0.0,0.0,0.0,0.0
2025/05/21 11:47:46.681323616,1747820866,680962547,mA1/imu,0.14728711427418256,0.9890927558794823,0.0006511219661390591,0.001265810293764989,0.0,0.0,0.0,0.0,0.0,0.0,0.0,0.0,0.0,-0.0005712036142092291,0.004387828938282465,0.007927566599123134,0.0,0.0,0.0,0.0,0.0,0.0,0.0,0.0,0.0,0.0323615829993555,-0.011318533659707575,9.813589191299759,0.0,0.0,0.0,0.0,0.0,0.0,0.0,0.0,0.0
2025/05/21 11:47:46.732713407,1747820866,732427884,mA1/imu,0.1474740858157515,0.9890650178047231,0.0006826942509991563,0.0011482579461495903,0.0,0.0,0.0,0.0,0.0,0.0,0.0,0.0,0.0,6.446399206379862e-05,0.005097478744857736,0.007319664399532881,0.0,0.0,0.0,0.0,0.0,0.0,0.0,0.0,0.0,0.02737791413835064,0.046050585597575994,9.811424748518665,0.0,0.0,0.0,0.0,0.0,0.0,0.0,0.0,0.0
2025/05/21 11:47:46.782950301,1747820866,782213481,mA1/imu,0.14764591095271304,0.9890394929320179,0.0007278930991621641,0.001018121484383227,0.0,0.0,0.0,0.0,0.0,0.0,0.0,0.0,0.0,0.00018121950497190635,0.0055650317210093805,0.00671738874181276,0.0,0.0,0.0,0.0,0.0,0.0,0.0,0.0,0.0,0.028038785291952653,0.053688865089244,9.809203667371756,0.0,0.0,0.0,0.0,0.0,0.0,0.0,0.0,0.0
2025/05/21 11:47:46.834311667,1747820866,833918617,mA1/imu,0.1478026208004245,0.9890161832114037,0.0007753020760721855,0.0008795096155184163,0.0,0.0,0.0,0.0,0.0,0.0,0.0,0.0,0.0,-0.0013147228826201774,0.005804597832698267,0.006096598986421283,0.0,0.0,0.0,0.0,0.0,0.0,0.0,0.0,0.0,0.028778161252977025,-0.052502605548186726,9.808818308049258,0.0,0.0,0.0,0.0,0.0,0.0,0.0,0.0,0.0
2025/05/21 11:47:46.884002266,1747820866,883774497,mA1/imu,0.1479441837060374,0.9889950951885015,0.0008215250080019254,0.0007384424843365613,0.0,0.0,0.0,0.0,0.0,0.0,0.0,0.0,0.0,-0.0009987538271687372,0.005848901286265243,0.005506616115098095,0.0,0.0,0.0,0.0,0.0,0.0,0.0,0.0,0.0,0.022602299728670443,-0.6617759996778291,9.808232840142622,0.0,0.0,0.0,0.0,0.0,0.0,0.0,0.0,0.0
2025/05/21 11:47:46.938335160,1747820866,938073663,mA1/imu,0.14807763881171007,0.9889752019205948,0.0008472923046472777,0.0005873379078213707,0.0,0.0,0.0,0.0,0.0,0.0,0.0,0.0,0.0,0.0005888647795736176,0.006270057858727384,0.0053516980263737645,0.0,0.0,0.0,0.0,0.0,0.0,0.0,0.0,0.0,0.0035462275611766823,-0.5598396832435037,9.808393165289198,0.0,0.0,0.0,0.0,0.0,0.0,0.0,0.0,0.0
2025/05/21 11:47:46.978059018,1747820866,977842801,mA1/imu,0.14820924588977827,0.9889555397308999,0.0008792190395122993,0.0004322525052402877,0.0,0.0,0.0,0.0,0.0,0.0,0.0,0.0,0.0,6.890838902482276e-05,0.006301149526402137,0.0053119362885090254,0.0,0.0,0.0,0.0,0.0,0.0,0.0,0.0,0.0,0.0048088585522516455,0.013763452269202767,9.80982433616982,0.0,0.0,0.0,0.0,0.0,0.0,0.0,0.0,0.0
2025/05/21 11:47:47.34111259,1747820867,29250119,mA1/imu,0.14834473910631235,0.9889352565586174,0.0009064843376777363,0.0002738630448200994,0.0,0.0,0.0,0.0,0.0,0.0,0.0,0.0,0.0,0.00012763172638100134,0.006586967311170455,0.005699607276117718,0.0,0.0,0.0,0.0,0.0,0.0,0.0,0.0,0.0,-0.004112912741729919,-0.06294965936668409,9.809691436161271,0.0,0.0,0.0,0.0,0.0,0.0,0.0,0.0,0.0
2025/05/21 11:47:47.84336112,1747820867,83248486,mA1/imu,0.14848628233664798,0.9889140265986011,0.0009262253485418421,0.00011857902966816688,0.0,0.0,0.0,0.0,0.0,0.0,0.0,0.0,0.0,0.0003684076431572208,0.005918238183006518,0.005720415865178587,0.0,0.0,0.0,0.0,0.0,0.0,0.0,0.0,0.0,0.008138934371392554,-0.6308143889598623,9.808753768944664,0.0,0.0,0.0,0.0,0.0,0.0,0.0,0.0,0.0
2025/05/21 11:47:47.137106705,1747820867,134304965,mA1/imu,0.14862703325175258,0.9888928876202855,0.0009282101462162963,-1.5057240851805664e-05,0.0,0.0,0.0,0.0,0.0,0.0,0.0,0.0,0.0,0.00023988741922607767,0.004843045891310335,0.00568709040831672,0.0,0.0,0.0,0.0,0.0,0.0,0.0,0.0,0.0,0.010483741582826975,-0.03192154440121506,9.809721377208954,0.0,0.0,0.0,0.0,0.0,0.0,0.0,0.0,0.0
