time,header_stamp_secs,header_stamp_nsecs,header_frame_id,orientation_x,orientation_y,orientation_z,orientation_w,orientation_covariance_0,orientation_covariance_1,orientation_covariance_2,orientation_covariance_3,orientation_covariance_4,orientation_covariance_5,orientation_covariance_6,orientation_covariance_7,orientation_covariance_8,angular_velocity_x,angular_velocity_y,angular_velocity_z,angular_velocity_covariance_0,angular_velocity_covariance_1,angular_velocity_covariance_2,angular_velocity_covariance_3,angular_velocity_covariance_4,angular_velocity_covariance_5,angular_velocity_covariance_6,angular_velocity_covariance_7,angular_velocity_covariance_8,linear_acceleration_x,linear_acceleration_y,linear_acceleration_z,linear_acceleration_covariance_0,linear_acceleration_covariance_1,linear_acceleration_covariance_2,linear_acceleration_covariance_3,linear_acceleration_covariance_4,linear_acceleration_covariance_5,linear_acceleration_covariance_6,linear_acceleration_covariance_7,linear_acceleration_covariance_8
2025/04/09 09:49:46.908133095,1744184986,900982225,mA1/imu,0.7074412772202331,0.7067715600352293,0.00028072288981875504,0.0008499441351556034,0.0,0.0,0.0,0.0,0.0,0.0,0.0,0.0,0.0,-7.318381034036686e-05,2.751404714779672e-06,-5.216244456030563e-06,0.0,0.0,0.0,0.0,0.0,0.0,0.0,0.0,0.0,0.007909563989096898,-0.015645551607259157,9.810171735461921,0.0,0.0,0.0,0.0,0.0,0.0,0.0,0.0,0.0
2025/04/09 09:49:46.950964513,1744184986,949986688,mA1/imu,0.7074411846761681,0.70677165073974,0.00028198298849281534,0.0008511287781305461,0.0,0.0,0.0,0.0,0.0,0.0,0.0,0.0,0.0,-6.603640078414822e-05,1.8532625464719297e-06,-5.1125247788633015e-06,0.0,0.0,0.0,0.0,0.0,0.0,0.0,0.0,0.0,0.00790451356619828,-0.01562595064340583,9.810235994369263,0.0,0.0,0.0,0.0,0.0,0.0,0.0,0.0,0.0
2025/04/09 09:49:47.4971844,1744184987,1429725,mA1/imu,0.7074410940577185,0.7067717397498992,0.00028307275687372975,0.0008521731828657466,0.0,0.0,0.0,0.0,0.0,0.0,0.0,0.0,0.0,-5.6217950238904036e-05,9.829800585580181e-07,-5.018743005608952e-06,0.0,0.0,0.0,0.0,0.0,0.0,0.0,0.0,0.0,0.007901864877139862,-0.015631458365577326,9.810299088574565,0.0,0.0,0.0,0.0,0.0,0.0,0.0,0.0,0.0
2025/04/09 09:49:47.55009440,1744184987,52356590,mA1/imu,0.7074410052214305,0.7067718272870157,0.00028393989988958877,0.0008530315339408429,0.0,0.0,0.0,0.0,0.0,0.0,0.0,0.0,0.0,-4.3567441977228834e-05,-3.4892773440551393e-07,-4.936965237522917e-06,0.0,0.0,0.0,0.0,0.0,0.0,0.0,0.0,0.0,0.00791381465498418,-0.015608595261165368,9.810330761399825,0.0,0.0,0.0,0.0,0.0,0.0,0.0,0.0,0.0
2025/04/09 09:49:47.105021343,1744184987,103566547,mA1/imu,0.7074409180392458,0.7067719135422837,0.0002845491253466182,0.0008536646665520844,0.0,0.0,0.0,0.0,0.0,0.0,0.0,0.0,0.0,-2.9327851980089477e-05,-9.25063084403369e-07,-4.863007451652068e-06,0.0,0.0,0.0,0.0,0.0,0.0,0.0,0.0,0.0,0.007902774410317323,-0.015615965384872041,9.810361645656723,0.0,0.0,0.0,0.0,0.0,0.0,0.0,0.0,0.0
2025/04/09 09:49:47.148488155,1744184987,146501242,mA1/imu,0.70744083241901,0.706771998659676,0.0002848783398562413,0.00085403819385112,0.0,0.0,0.0,0.0,0.0,0.0,0.0,0.0,0.0,-1.3449866856195914e-05,-1.4244939568103869e-06,-4.795698869509233e-06,0.0,0.0,0.0,0.0,0.0,0.0,0.0,0.0,0.0,0.00789969687932018,-0.015594385107532919,9.810356281969446,0.0,0.0,0.0,0.0,0.0,0.0,0.0,0.0,0.0
2025/04/09 09:49:47.203000331,1744184987,197339337,mA1/imu,0.7074407482799977,0.7067720827412366,0.000284913465734543,0.0008541398998825661,0.0,0.0,0.0,0.0,0.0,0.0,0.0,0.0,0.0,2.5266893526277817e-06,-2.1492857225177684e-06,-4.733311686298955e-06,0.0,0.0,0.0,0.0,0.0,0.0,0.0,0.0,0.0,0.00789922048889783,-0.015626342018972127,9.81032471294059,0.0,0.0,0.0,0.0,0.0,0.0,0.0,0.0,0.0
2025/04/09 09:49:47.248990054,1744184987,247205874,mA1/imu,0.707440665556358,0.7067721658591005,0.00028465116676715864,0.0008539658813245491,0.0,0.0,0.0,0.0,0.0,0.0,0.0,0.0,0.0,1.8810537029042876e-05,-2.8001429763535974e-06,-4.674336928368696e-06,0.0,0.0,0.0,0.0,0.0,0.0,0.0,0.0,0.0,0.007906066682460708,-0.01560851837964002,9.810281994402828,0.0,0.0,0.0,0.0,0.0,0.0,0.0,0.0,0.0
2025/04/09 09:49:47.300476890,1744184987,298077161,mA1/imu,0.7074405841888259,0.7067722480485764,0.0002841017298084461,0.0008535321560653882,0.0,0.0,0.0,0.0,0.0,0.0,0.0,0.0,0.0,3.3622658931584566e-05,-3.528304894331294e-06,-4.617063832766727e-06,0.0,0.0,0.0,0.0,0.0,0.0,0.0,0.0,0.0,0.00790583475049321,-0.01564402464708103,9.810209181499642,0.0,0.0,0.0,0.0,0.0,0.0,0.0,0.0,0.0
2025/04/09 09:49:47.349385261,1744184987,347893536,mA1/imu,0.7074405041179931,0.7067723293205622,0.00028330283911810343,0.000852865503926233,0.0,0.0,0.0,0.0,0.0,0.0,0.0,0.0,0.0,4.483931021318308e-05,-3.878406172960199e-06,-4.560648504589084e-06,0.0,0.0,0.0,0.0,0.0,0.0,0.0,0.0,0.0,0.007904530326254856,-0.014768900802591097,9.810147262463474,0.0,0.0,0.0,0.0,0.0,0.0,0.0,0.0,0.0
2025/04/09 09:49:47.405698660,1744184987,399354575,mA1/imu,0.7074404252784482,0.7067724096542365,0.0002823162201304411,0.0008520158121986509,0.0,0.0,0.0,0.0,0.0,0.0,0.0,0.0,0.0,5.4013803992700973e-05,-3.9533853822501016e-06,-4.503249663542624e-06,0.0,0.0,0.0,0.0,0.0,0.0,0.0,0.0,0.0,0.007905129373714,-0.014577955115614563,9.810027711652635,0.0,0.0,0.0,0.0,0.0,0.0,0.0,0.0,0.0
2025/04/09 09:49:47.450406712,1744184987,449170570,mA1/imu,0.7074403476547497,0.7067724890341641,0.00028116421936755345,0.0008510001532190398,0.0,0.0,0.0,0.0,0.0,0.0,0.0,0.0,0.0,6.549679203892846e-05,-3.6703563185179054e-06,-4.4450405188941005e-06,0.0,0.0,0.0,0.0,0.0,0.0,0.0,0.0,0.0,0.007894423032029816,-0.01575292854858749,9.809930779570696,0.0,0.0,0.0,0.0,0.0,0.0,0.0,0.0,0.0
2025/04/09 09:49:47.503490689,1744184987,501340791,mA1/imu,0.7074402712540424,0.7067725674301708,0.0002798730143190992,0.0008498277870310261,0.0,0.0,0.0,0.0,0.0,0.0,0.0,0.0,0.0,7.192971513395155e-05,-3.2570361177014703e-06,-4.3850576837759225e-06,0.0,0.0,0.0,0.0,0.0,0.0,0.0,0.0,0.0,0.007901688101447068,-0.015708145686510327,9.809818144638148,0.0,0.0,0.0,0.0,0.0,0.0,0.0,0.0,0.0
2025/04/09 09:49:47.552122432,1744184987,551177207,mA1/imu,0.7074401960109553,0.7067726447936091,0.0002785092315583728,0.0008485705839204078,0.0,0.0,0.0,0.0,0.0,0.0,0.0,0.0,0.0,7.509610420834389e-05,-2.6889040726983377e-06,-4.323854888149312e-06,0.0,0.0,0.0,0.0,0.0,0.0,0.0,0.0,0.0,0.007890666935250973,-0.015650307332851818,9.809748201492464,0.0,0.0,0.0,0.0,0.0,0.0,0.0,0.0,0.0
2025/04/09 09:49:47.606288379,1744184987,602273913,mA1/imu,0.7074401218885528,0.7067727210616126,0.00027715129484536427,0.0008472854496332865,0.0,0.0,0.0,0.0,0.0,0.0,0.0,0.0,0.0,7.40561213135903e-05,-1.749850259515913e-06,-4.259743444130709e-06,0.0,0.0,0.0,0.0,0.0,0.0,0.0,0.0,0.0,0.00789788105751559,-0.015662317721147005,9.809667550221917,0.0,0.0,0.0,0.0,0.0,0.0,0.0,0.0,0.0
2025/04/09 09:49:47.652846156,1744184987,652041166,mA1/imu,0.7074400488471083,0.7067727961792404,0.00027585894977209,0.0008460319252529361,0.0,0.0,0.0,0.0,0.0,0.0,0.0,0.0,0.0,7.019273524898055e-05,-6.817309444675708e-07,-4.194021793992437e-06,0.0,0.0,0.0,0.0,0.0,0.0,0.0,0.0,0.0,0.007894393142327236,-0.015627853748414702,9.80964345340036,0.0,0.0,0.0,0.0,0.0,0.0,0.0,0.0,0.0
2025/04/09 09:49:47.703932052,1744184987,703385087,mA1/imu,0.7074399768501978,0.7067728700878672,0.00027469278753013403,0.0008448702995834274,0.0,0.0,0.0,0.0,0.0,0.0,0.0,0.0,0.0,6.253874892900353e-05,2.2801545006809251e-07,-4.126195637270944e-06,0.0,0.0,0.0,0.0,0.0,0.0,0.0,0.0,0.0,0.007891530937685461,-0.015646255102110544,9.809614881448036,0.0,0.0,0.0,0.0,0.0,0.0,0.0,0.0,0.0
2025/04/09 09:49:47.754219505,1744184987,753207997,mA1/imu,0.7074399058696063,0.7067729427382106,0.0002737043755306239,0.0008438496829885299,0.0,0.0,0.0,0.0,0.0,0.0,0.0,0.0,0.0,5.2642354603783554e-05,1.2697264263944722e-06,-4.056898148058787e-06,0.0,0.0,0.0,0.0,0.0,0.0,0.0,0.0,0.0,0.007895326196314854,-0.01562180465235967,9.80961785159657,0.0,0.0,0.0,0.0,0.0,0.0,0.0,0.0,0.0
2025/04/09 09:49:47.803845123,1744184987,799774646,mA1/imu,0.7074398358778395,0.7067730140821817,0.00027293962674214097,0.0008430197410299622,0.0,0.0,0.0,0.0,0.0,0.0,0.0,0.0,0.0,3.9809287219376996e-05,2.275381174335121e-06,-3.985633646100727e-06,0.0,0.0,0.0,0.0,0.0,0.0,0.0,0.0,0.0,0.007892821687959874,-0.01565574783957621,9.809644609655294,0.0,0.0,0.0,0.0,0.0,0.0,0.0,0.0,0.0
2025/04/09 09:49:47.850582538,1744184987,849595465,mA1/imu,0.7074397668581761,0.7067730840844085,0.0002724317661168486,0.0008424146224196982,0.0,0.0,0.0,0.0,0.0,0.0,0.0,0.0,0.0,2.573957515453053e-05,2.853432881321844e-06,-3.914173088416185e-06,0.0,0.0,0.0,0.0,0.0,0.0,0.0,0.0,0.0,0.00790506447851759,-0.01564112737136952,9.80968127318854,0.0,0.0,0.0,0.0,0.0,0.0,0.0,0.0,0.0
2025/04/09 09:49:47.905107692,1744184987,902750494,mA1/imu,0.7074396987900208,0.7067731527187826,0.0002721973746778767,0.0008420691340457313,0.0,0.0,0.0,0.0,0.0,0.0,0.0,0.0,0.0,1.0078149238112817e-05,3.273114479038864e-06,-3.84166774752022e-06,0.0,0.0,0.0,0.0,0.0,0.0,0.0,0.0,0.0,0.007901539738629646,-0.015669038657258563,9.809766285783692,0.0,0.0,0.0,0.0,0.0,0.0,0.0,0.0,0.0
2025/04/09 09:49:47.954964284,1744184987,952673767,mA1/imu,0.707439631667597,0.7067732199726758,0.00027224512446412933,0.0008419964743194683,0.0,0.0,0.0,0.0,0.0,0.0,0.0,0.0,0.0,-5.54377752183673e-06,3.5818609489787175e-06,-3.7692863378822047e-06,0.0,0.0,0.0,0.0,0.0,0.0,0.0,0.0,0.0,0.007895665336492377,-0.015650960831483176,9.809842300487814,0.0,0.0,0.0,0.0,0.0,0.0,0.0,0.0,0.0
2025/04/09 09:49:48.5406663,1744184988,3561927,mA1/imu,0.7074395654956964,0.706773285840018,0.000272574684171545,0.0008421978426577041,0.0,0.0,0.0,0.0,0.0,0.0,0.0,0.0,0.0,-2.1228950402420162e-05,3.4859472452903452e-06,-3.6969777771155045e-06,0.0,0.0,0.0,0.0,0.0,0.0,0.0,0.0,0.0,0.00790772891860671,-0.015668399692290468,9.809945829308838,0.0,0.0,0.0,0.0,0.0,0.0,0.0,0.0,0.0
2025/04/09 09:49:48.54265236,1744184988,53436339,mA1/imu,0.7074395002788024,0.7067733503312483,0.0002731626254802363,0.0008426677881638176,0.0,0.0,0.0,0.0,0.0,0.0,0.0,0.0,0.0,-3.55447604450065e-05,3.308583093755451e-06,-3.6253181922818788e-06,0.0,0.0,0.0,0.0,0.0,0.0,0.0,0.0,0.0,0.007901408441192,-0.015651302836360768,9.81004741565696,0.0,0.0,0.0,0.0,0.0,0.0,0.0,0.0,0.0
2025/04/09 09:49:48.105444564,1744184988,104391401,mA1/imu,0.7074394360428329,0.7067734134578135,0.0002739857084664544,0.0008433815393310178,0.0,0.0,0.0,0.0,0.0,0.0,0.0,0.0,0.0,-4.8477967837097944e-05,3.030935416295821e-06,-3.5537660981708777e-06,0.0,0.0,0.0,0.0,0.0,0.0,0.0,0.0,0.0,0.007896600390227517,-0.01565877431172392,9.810151213178141,0.0,0.0,0.0,0.0,0.0,0.0,0.0,0.0,0.0
2025/04/09 09:49:48.156255933,1744184988,154226583,mA1/imu,0.7074393728222028,0.7067734752407058,0.00027500449613148976,0.000844304228951721,0.0,0.0,0.0,0.0,0.0,0.0,0.0,0.0,0.0,-5.887172494053602e-05,2.4220411743480652e-06,-3.483343000172788e-06,0.0,0.0,0.0,0.0,0.0,0.0,0.0,0.0,0.0,0.007906473801136066,-0.01564146170254859,9.810217091603445,0.0,0.0,0.0,0.0,0.0,0.0,0.0,0.0,0.0
2025/04/09 09:49:48.206854100,1744184988,206053873,mA1/imu,0.7074393106513885,0.706773535708279,0.00027616730609988823,0.0008453987963861903,0.0,0.0,0.0,0.0,0.0,0.0,0.0,0.0,0.0,-6.677240014324867e-05,1.7505332187338999e-06,-3.413593030234734e-06,0.0,0.0,0.0,0.0,0.0,0.0,0.0,0.0,0.0,0.007901365434617494,-0.01564207028823596,9.810278486070908,0.0,0.0,0.0,0.0,0.0,0.0,0.0,0.0,0.0
2025/04/09 09:49:48.257621717,1744184988,255782230,mA1/imu,0.707439249574528,0.706773594901618,0.000277424156570018,0.0008466091836310999,0.0,0.0,0.0,0.0,0.0,0.0,0.0,0.0,0.0,-7.137003733055549e-05,1.0330651322721066e-06,-3.345440198695085e-06,0.0,0.0,0.0,0.0,0.0,0.0,0.0,0.0,0.0,0.007903503188962685,-0.015623318969911643,9.810311686736048,0.0,0.0,0.0,0.0,0.0,0.0,0.0,0.0,0.0
2025/04/09 09:49:48.299730422,1744184988,297284576,mA1/imu,0.7074391896149281,0.7067736528842559,0.0002787170071254514,0.0008478811528553371,0.0,0.0,0.0,0.0,0.0,0.0,0.0,0.0,0.0,-7.288921450156886e-05,4.532188421599196e-07,-3.2803239518186204e-06,0.0,0.0,0.0,0.0,0.0,0.0,0.0,0.0,0.0,0.007897747229434619,-0.015621107527856027,9.810331105154374,0.0,0.0,0.0,0.0,0.0,0.0,0.0,0.0,0.0
2025/04/09 09:49:48.349376203,1744184988,348208977,mA1/imu,0.7074391307844401,0.7067737097413188,0.0002799906354579938,0.000849151749587372,0.0,0.0,0.0,0.0,0.0,0.0,0.0,0.0,0.0,-7.089783024584547e-05,-1.3703943463767594e-07,-3.218734426539931e-06,0.0,0.0,0.0,0.0,0.0,0.0,0.0,0.0,0.0,0.007900328214164769,-0.015607602618187274,9.81033773122305,0.0,0.0,0.0,0.0,0.0,0.0,0.0,0.0,0.0
2025/04/09 09:49:48.402063623,1744184988,399250451,mA1/imu,0.7074390730774658,0.7067737655692925,0.00028118574550277197,0.00085036514232941,0.0,0.0,0.0,0.0,0.0,0.0,0.0,0.0,0.0,-6.586441352626217e-05,-6.14699688421918e-07,-3.161884780380427e-06,0.0,0.0,0.0,0.0,0.0,0.0,0.0,0.0,0.0,0.007896437633139892,-0.015620509212183142,9.810300802293938,0.0,0.0,0.0,0.0,0.0,0.0,0.0,0.0,0.0
2025/04/09 09:49:48.449653498,1744184988,449047332,mA1/imu,0.7074390164559484,0.7067738204984544,0.0002822511763248019,0.0008514623493473964,0.0,0.0,0.0,0.0,0.0,0.0,0.0,0.0,0.0,-5.765740888794682e-05,-1.0782937100878385e-06,-3.1115420918982747e-06,0.0,0.0,0.0,0.0,0.0,0.0,0.0,0.0,0.0,0.007900201333520955,-0.015614678247403601,9.810271899807521,0.0,0.0,0.0,0.0,0.0,0.0,0.0,0.0,0.0
2025/04/09 09:49:48.508318868,1744184988,504146867,mA1/imu,0.7074389608666269,0.7067738746567797,0.00028313489506394,0.0008523996838038788,0.0,0.0,0.0,0.0,0.0,0.0,0.0,0.0,0.0,-4.7106226842312064e-05,-1.7082911497249573e-06,-3.067548011790547e-06,0.0,0.0,0.0,0.0,0.0,0.0,0.0,0.0,0.0,0.00789631763589157,-0.015628994845898546,9.810198717011081,0.0,0.0,0.0,0.0,0.0,0.0,0.0,0.0,0.0
2025/04/09 09:49:48.557305848,1744184988,555682209,mA1/imu,0.7074389062506212,0.7067739281740057,0.000283799597670261,0.0008531319936580651,0.0,0.0,0.0,0.0,0.0,0.0,0.0,0.0,0.0,-3.420665814382461e-05,-2.048388613923633e-06,-3.0291551708953608e-06,0.0,0.0,0.0,0.0,0.0,0.0,0.0,0.0,0.0,0.007899702241216581,-0.015616440483722198,9.810145092355718,0.0,0.0,0.0,0.0,0.0,0.0,0.0,0.0,0.0
2025/04/09 09:49:48.599684802,1744184988,596622631,mA1/imu,0.7074388525624725,0.7067739811436881,0.0002842142928775786,0.0008536308509435436,0.0,0.0,0.0,0.0,0.0,0.0,0.0,0.0,0.0,-2.0114539529130703e-05,-2.5208492168814393e-06,-2.9946253271907774e-06,0.0,0.0,0.0,0.0,0.0,0.0,0.0,0.0,0.0,0.00789604554990785,-0.015632621820176378,9.810024059232278,0.0,0.0,0.0,0.0,0.0,0.0,0.0,0.0,0.0
2025/04/09 09:49:48.649238017,1744184988,646486832,mA1/imu,0.7074387997775046,0.7067740336282224,0.00028436240639838166,0.000853871347396876,0.0,0.0,0.0,0.0,0.0,0.0,0.0,0.0,0.0,-4.835826873171255e-06,-2.6959556290162783e-06,-2.962502899836386e-06,0.0,0.0,0.0,0.0,0.0,0.0,0.0,0.0,0.0,0.007899662439453793,-0.015614684577869013,9.809948073350172,0.0,0.0,0.0,0.0,0.0,0.0,0.0,0.0,0.0
2025/04/09 09:49:48.702073685,1744184988,700974912,mA1/imu,0.7074387478741481,0.7067740856635811,0.0002842435510181908,0.000853842064060064,0.0,0.0,0.0,0.0,0.0,0.0,0.0,0.0,0.0,1.0172965144285293e-05,-2.4590882346009925e-06,-2.9311438745336544e-06,0.0,0.0,0.0,0.0,0.0,0.0,0.0,0.0,0.0,0.00789625230552166,-0.01563336126675818,9.809838741997225,0.0,0.0,0.0,0.0,0.0,0.0,0.0,0.0,0.0
2025/04/09 09:49:48.752026403,1744184988,751202744,mA1/imu,0.7074386968272962,0.7067741372699807,0.0002838611167691816,0.0008535458027189853,0.0,0.0,0.0,0.0,0.0,0.0,0.0,0.0,0.0,2.5105080028782708e-05,-2.467365940824909e-06,-2.90131490113414e-06,0.0,0.0,0.0,0.0,0.0,0.0,0.0,0.0,0.0,0.007899732489270362,-0.015609630807765208,9.809769555089115,0.0,0.0,0.0,0.0,0.0,0.0,0.0,0.0,0.0
2025/04/09 09:49:48.806294055,1744184988,803166477,mA1/imu,0.7074386466036927,0.7067741884473873,0.00028322940531101036,0.0008530047928940347,0.0,0.0,0.0,0.0,0.0,0.0,0.0,0.0,0.0,3.833191664068453e-05,-2.594645020870512e-06,-2.8714820553238133e-06,0.0,0.0,0.0,0.0,0.0,0.0,0.0,0.0,0.0,0.007896019069764322,-0.015630868303881083,9.809687755121839,0.0,0.0,0.0,0.0,0.0,0.0,0.0,0.0,0.0
2025/04/09 09:49:48.853582076,1744184988,852874536,mA1/imu,0.7074385971858349,0.7067742391782295,0.00028238334496203055,0.0008522355423181743,0.0,0.0,0.0,0.0,0.0,0.0,0.0,0.0,0.0,5.032067856107226e-05,-1.8583541004579992e-06,-2.840188399336957e-06,0.0,0.0,0.0,0.0,0.0,0.0,0.0,0.0,0.0,0.007890691160641533,-0.015600484782980728,9.809666620553314,0.0,0.0,0.0,0.0,0.0,0.0,0.0,0.0,0.0
2025/04/09 09:49:48.906628368,1744184988,904662112,mA1/imu,0.7074385485488722,0.7067742894277501,0.00028136779075216495,0.0008512714784819325,0.0,0.0,0.0,0.0,0.0,0.0,0.0,0.0,0.0,5.9409544455006334e-05,-1.261941851080328e-06,-2.807538967475531e-06,0.0,0.0,0.0,0.0,0.0,0.0,0.0,0.0,0.0,0.007895309924934691,-0.015625877324699854,9.809635003901272,0.0,0.0,0.0,0.0,0.0,0.0,0.0,0.0,0.0
2025/04/09 09:49:48.954965539,1744184988,954427361,mA1/imu,0.7074385006585334,0.7067743391544364,0.0002802222849717321,0.000850161329781137,0.0,0.0,0.0,0.0,0.0,0.0,0.0,0.0,0.0,6.634445633277251e-05,-9.044753091305517e-07,-2.7740692900800167e-06,0.0,0.0,0.0,0.0,0.0,0.0,0.0,0.0,0.0,0.007898201959239003,-0.015597127104204711,9.809634261922696,0.0,0.0,0.0,0.0,0.0,0.0,0.0,0.0,0.0
2025/04/09 09:49:49.7396234,1744184989,5996159,mA1/imu,0.7074384534797203,0.7067743883053084,0.00027899891936526466,0.0008489602356960898,0.0,0.0,0.0,0.0,0.0,0.0,0.0,0.0,0.0,6.96325100613636e-05,-3.940742482251608e-07,-2.738155660293897e-06,0.0,0.0,0.0,0.0,0.0,0.0,0.0,0.0,0.0,0.007894067402592995,-0.015639652507569993,9.809660007866563,0.0,0.0,0.0,0.0,0.0,0.0,0.0,0.0,0.0
2025/04/09 09:49:49.47971571,1744184989,46535566,mA1/imu,0.7074384069651537,0.7067744368161915,0.0002777731138290639,0.0008477357242799004,0.0,0.0,0.0,0.0,0.0,0.0,0.0,0.0,0.0,6.964972532750944e-05,1.1185441562672709e-07,-2.700486106191586e-06,0.0,0.0,0.0,0.0,0.0,0.0,0.0,0.0,0.0,0.00789753913207146,-0.015668529415568882,9.809699331460354,0.0,0.0,0.0,0.0,0.0,0.0,0.0,0.0,0.0
2025/04/09 09:49:49.98900338,1744184989,97607191,mA1/imu,0.7074383611131118,0.7067744846369081,0.0002765710988215726,0.0008465224477543578,0.0,0.0,0.0,0.0,0.0,0.0,0.0,0.0,0.0,6.696589198036036e-05,3.773744507136513e-07,-2.660738037004167e-06,0.0,0.0,0.0,0.0,0.0,0.0,0.0,0.0,0.0,0.007900739660262756,-0.015679451985346943,9.809771424410867,0.0,0.0,0.0,0.0,0.0,0.0,0.0,0.0,0.0
2025/04/09 09:49:49.149183427,1744184989,147428972,mA1/imu,0.70743831588919,0.7067745317103774,0.0002754520924031033,0.0008453777781395513,0.0,0.0,0.0,0.0,0.0,0.0,0.0,0.0,0.0,6.165681335516377e-05,9.714720302675626e-07,-2.6188443042839864e-06,0.0,0.0,0.0,0.0,0.0,0.0,0.0,0.0,0.0,0.007894629958501993,-0.01564279190756301,9.809847778106008,0.0,0.0,0.0,0.0,0.0,0.0,0.0,0.0,0.0
2025/04/09 09:49:49.204378778,1744184989,200135565,mA1/imu,0.707438271266279,0.7067745779785458,0.0002744750573316394,0.0008443544695812236,0.0,0.0,0.0,0.0,0.0,0.0,0.0,0.0,0.0,5.285163634997223e-05,1.462468274354183e-06,-2.574882502963696e-06,0.0,0.0,0.0,0.0,0.0,0.0,0.0,0.0,0.0,0.007897530993546713,-0.015671035043568277,9.80994984634993,0.0,0.0,0.0,0.0,0.0,0.0,0.0,0.0,0.0
2025/04/09 09:49:49.253585758,1744184989,251631202,mA1/imu,0.707438227217195,0.706774623397985,0.0002736793357279438,0.0008434998815889472,0.0,0.0,0.0,0.0,0.0,0.0,0.0,0.0,0.0,4.225916340894234e-05,1.737374788409032e-06,-2.530025233956907e-06,0.0,0.0,0.0,0.0,0.0,0.0,0.0,0.0,0.0,0.007898977741952848,-0.015643222676846612,9.810034609096332,0.0,0.0,0.0,0.0,0.0,0.0,0.0,0.0,0.0
2025/04/09 09:49:49.304131378,1744184989,302570808,mA1/imu,0.7074381837254506,0.7067746679265791,0.00027310768459478947,0.000842850343871672,0.0,0.0,0.0,0.0,0.0,0.0,0.0,0.0,0.0,2.9190745747704214e-05,2.459543519456522e-06,-2.4828603017683786e-06,0.0,0.0,0.0,0.0,0.0,0.0,0.0,0.0,0.0,0.00789311390617435,-0.015667849742082286,9.810134582418161,0.0,0.0,0.0,0.0,0.0,0.0,0.0,0.0,0.0
2025/04/09 09:49:49.354523106,1744184989,352373043,mA1/imu,0.7074381407784012,0.7067747115388359,0.00027278412751406266,0.0008424310145329403,0.0,0.0,0.0,0.0,0.0,0.0,0.0,0.0,0.0,1.543593451343486e-05,2.6974014892975686e-06,-2.435944240746273e-06,0.0,0.0,0.0,0.0,0.0,0.0,0.0,0.0,0.0,0.007902128392569074,-0.015640023863628717,9.810201180666139,0.0,0.0,0.0,0.0,0.0,0.0,0.0,0.0,0.0
2025/04/09 09:49:49.405302646,1744184989,403351133,mA1/imu,0.7074380983517775,0.7067747542224115,0.00027271364249474166,0.000842271654371282,0.0,0.0,0.0,0.0,0.0,0.0,0.0,0.0,0.0,5.168776206805738e-07,2.453936835555127e-06,-2.389123808477492e-06,0.0,0.0,0.0,0.0,0.0,0.0,0.0,0.0,0.0,0.007895311903273698,-0.01565721071076741,9.810261983205391,0.0,0.0,0.0,0.0,0.0,0.0,0.0,0.0,0.0
2025/04/09 09:49:49.454356722,1744184989,453106326,mA1/imu,0.7074380564481578,0.7067747959742882,0.0002729022950421076,0.0008423708767326275,0.0,0.0,0.0,0.0,0.0,0.0,0.0,0.0,0.0,-1.3881073191611251e-05,2.5619495389601427e-06,-2.342072596197364e-06,0.0,0.0,0.0,0.0,0.0,0.0,0.0,0.0,0.0,0.007895642747571548,-0.015629100600864157,9.810291818733166,0.0,0.0,0.0,0.0,0.0,0.0,0.0,0.0,0.0
2025/04/09 09:49:49.504941085,1744184989,504101299,mA1/imu,0.7074380150675595,0.706774836802839,0.00027334314259188464,0.0008427236308374648,0.0,0.0,0.0,0.0,0.0,0.0,0.0,0.0,0.0,-2.800498715850607e-05,2.349819007411004e-06,-2.2959330404529127e-06,0.0,0.0,0.0,0.0,0.0,0.0,0.0,0.0,0.0,0.007904855598843956,-0.015641136232845212,9.810313585175232,0.0,0.0,0.0,0.0,0.0,0.0,0.0,0.0,0.0
2025/04/09 09:49:49.555191807,1744184989,553918984,mA1/imu,0.707437974206044,0.7067748767360754,0.0002740048502171683,0.0008433192134714087,0.0,0.0,0.0,0.0,0.0,0.0,0.0,0.0,0.0,-4.0373302688856674e-05,1.694024407601718e-06,-2.251729961543643e-06,0.0,0.0,0.0,0.0,0.0,0.0,0.0,0.0,0.0,0.00789723362406654,-0.015619488965802049,9.810310687827462,0.0,0.0,0.0,0.0,0.0,0.0,0.0,0.0,0.0
2025/04/09 09:49:49.605753727,1744184989,604847080,mA1/imu,0.7074379338796105,0.7067749158054468,0.00027486136683838307,0.0008441253343616534,0.0,0.0,0.0,0.0,0.0,0.0,0.0,0.0,0.0,-5.11713491445197e-05,1.262858179790369e-06,-2.208389025042414e-06,0.0,0.0,0.0,0.0,0.0,0.0,0.0,0.0,0.0,0.007899022284915054,-0.01563903953861881,9.810291796451887,0.0,0.0,0.0,0.0,0.0,0.0,0.0,0.0,0.0
2025/04/09 09:49:49.655791915,1744184989,654659811,mA1/imu,0.7074378941065138,0.7067749540530849,0.000275871302063883,0.0008451037958817312,0.0,0.0,0.0,0.0,0.0,0.0,0.0,0.0,0.0,-5.92836746640894e-05,6.643875711579399e-07,-2.1668169605893904e-06,0.0,0.0,0.0,0.0,0.0,0.0,0.0,0.0,0.0,0.007900594210343639,-0.01562872414939816,9.810252324720167,0.0,0.0,0.0,0.0,0.0,0.0,0.0,0.0,0.0
2025/04/09 09:49:49.706822894,1744184989,705734135,mA1/imu,0.7074378549232413,0.7067749915092977,0.00027698789900112134,0.0008462129395774676,0.0,0.0,0.0,0.0,0.0,0.0,0.0,0.0,0.0,-6.500401799676792e-05,3.026686301168005e-08,-2.125597419461851e-06,0.0,0.0,0.0,0.0,0.0,0.0,0.0,0.0,0.0,0.00789437991675675,-0.015643367245515846,9.8101859184097,0.0,0.0,0.0,0.0,0.0,0.0,0.0,0.0,0.0
2025/04/09 09:49:49.747822647,1744184989,746480474,mA1/imu,0.7074378163802132,0.7067750282103294,0.00027816488404197327,0.0008473947020084798,0.0,0.0,0.0,0.0,0.0,0.0,0.0,0.0,0.0,-6.745689947859232e-05,-2.1147223733862947e-07,-2.0857443553620857e-06,0.0,0.0,0.0,0.0,0.0,0.0,0.0,0.0,0.0,0.007895904633295934,-0.015629560735807888,9.810130001660474,0.0,0.0,0.0,0.0,0.0,0.0,0.0,0.0,0.0
2025/04/09 09:49:49.800678982,1744184989,796843415,mA1/imu,0.7074377784926288,0.7067750642249784,0.0002793494254761035,0.0008485959525326536,0.0,0.0,0.0,0.0,0.0,0.0,0.0,0.0,0.0,-6.708314789932791e-05,-6.107249748723858e-07,-2.0490896355618943e-06,0.0,0.0,0.0,0.0,0.0,0.0,0.0,0.0,0.0,0.007898025461423154,-0.01563984227883954,9.810023302862437,0.0,0.0,0.0,0.0,0.0,0.0,0.0,0.0,0.0
2025/04/09 09:49:49.847436875,1744184989,846775947,mA1/imu,0.7074377412635043,0.7067750996362192,0.00028048386258010765,0.0008497640888684302,0.0,0.0,0.0,0.0,0.0,0.0,0.0,0.0,0.0,-6.342933889985058e-05,-1.146179426717112e-06,-2.016299936738013e-06,0.0,0.0,0.0,0.0,0.0,0.0,0.0,0.0,0.0,0.00789960807734071,-0.015623867493518236,9.809939747385133,0.0,0.0,0.0,0.0,0.0,0.0,0.0,0.0,0.0
2025/04/09 09:49:49.899765983,1744184989,897840272,mA1/imu,0.7074377046854786,0.7067751345315044,0.0002815148611055745,0.0008508505734855835,0.0,0.0,0.0,0.0,0.0,0.0,0.0,0.0,0.0,-5.717432290243058e-05,-1.8191383356854535e-06,-1.987492058099595e-06,0.0,0.0,0.0,0.0,0.0,0.0,0.0,0.0,0.0,0.007901840994410686,-0.015632169552576257,9.809842850880344,0.0,0.0,0.0,0.0,0.0,0.0,0.0,0.0,0.0
2025/04/09 09:49:49.953094937,1744184989,951093738,mA1/imu,0.7074376687378154,0.7067751690102482,0.00028239275504518617,0.0008518072971476782,0.0,0.0,0.0,0.0,0.0,0.0,0.0,0.0,0.0,-4.8053119607970056e-05,-2.341042407393124e-06,-1.9635585221897966e-06,0.0,0.0,0.0,0.0,0.0,0.0,0.0,0.0,0.0,0.007895653586343487,-0.0156126212170705,9.809780958851649,0.0,0.0,0.0,0.0,0.0,0.0,0.0,0.0,0.0
2025/04/09 09:49:50.7101905,1744184990,3563985,mA1/imu,0.7074376333938599,0.7067752031721377,0.00028308739919386406,0.0008525846599249196,0.0,0.0,0.0,0.0,0.0,0.0,0.0,0.0,0.0,-3.71117667021988e-05,-2.1866017511506283e-06,-1.942823830961431e-06,0.0,0.0,0.0,0.0,0.0,0.0,0.0,0.0,0.0,0.007890434208514237,-0.015621885095494895,9.809709102007297,0.0,0.0,0.0,0.0,0.0,0.0,0.0,0.0,0.0
2025/04/09 09:49:50.59669228,1744184990,53769331,mA1/imu,0.7074375986505342,0.7067752370824997,0.00028357226788285506,0.0008531408507105948,0.0,0.0,0.0,0.0,0.0,0.0,0.0,0.0,0.0,-2.4148569152566144e-05,-1.897586975456275e-06,-1.9243734436912353e-06,0.0,0.0,0.0,0.0,0.0,0.0,0.0,0.0,0.0,0.007892575488258228,-0.015595512156022926,9.80967888592045,0.0,0.0,0.0,0.0,0.0,0.0,0.0,0.0,0.0
2025/04/09 09:49:50.106810135,1744184990,105130645,mA1/imu,0.7074375644972892,0.7067752707855622,0.0002838240023682893,0.0008534565451592375,0.0,0.0,0.0,0.0,0.0,0.0,0.0,0.0,0.0,-1.0556309207533017e-05,-1.7533995418463697e-06,-1.907720764379983e-06,0.0,0.0,0.0,0.0,0.0,0.0,0.0,0.0,0.0,0.00789540050275073,-0.015610478191693415,9.809659025099158,0.0,0.0,0.0,0.0,0.0,0.0,0.0,0.0,0.0
2025/04/09 09:49:50.156707414,1744184990,154924665,mA1/imu,0.7074375309230755,0.7067753043128856,0.00028382659293831004,0.0008535205655379821,0.0,0.0,0.0,0.0,0.0,0.0,0.0,0.0,0.0,3.914784808223454e-06,-1.740917694288082e-06,-1.892582655882133e-06,0.0,0.0,0.0,0.0,0.0,0.0,0.0,0.0,0.0,0.007897557284223266,-0.015587645247777634,9.809658595481734,0.0,0.0,0.0,0.0,0.0,0.0,0.0,0.0,0.0
2025/04/09 09:49:50.207120124,1744184990,206060889,mA1/imu,0.7074374979147003,0.7067753376755953,0.0002835820790169069,0.0008533340149386223,0.0,0.0,0.0,0.0,0.0,0.0,0.0,0.0,0.0,1.7624816387462575e-05,-1.4615670101539403e-06,-1.8772606024398494e-06,0.0,0.0,0.0,0.0,0.0,0.0,0.0,0.0,0.0,0.007892234854566808,-0.015620697588315522,9.809687308943008,0.0,0.0,0.0,0.0,0.0,0.0,0.0,0.0,0.0
2025/04/09 09:49:50.247732166,1744184990,246450646,mA1/imu,0.7074374654657826,0.7067753708699173,0.000283105812214547,0.000852899841667721,0.0,0.0,0.0,0.0,0.0,0.0,0.0,0.0,0.0,3.101268278482322e-05,-1.046699921234022e-06,-1.8618186845478253e-06,0.0,0.0,0.0,0.0,0.0,0.0,0.0,0.0,0.0,0.007894530963564175,-0.015602534589282974,9.80972257029186,0.0,0.0,0.0,0.0,0.0,0.0,0.0,0.0,0.0
2025/04/09 09:49:50.299995084,1744184990,296683551,mA1/imu,0.7074374335573989,0.7067754038758661,0.0002824226986434501,0.0008522413077163532,0.0,0.0,0.0,0.0,0.0,0.0,0.0,0.0,0.0,4.233454184382842e-05,-3.7154205086493666e-07,-1.8450033050813227e-06,0.0,0.0,0.0,0.0,0.0,0.0,0.0,0.0,0.0,0.00788897254322356,-0.01563916647796013,9.809793376468246,0.0,0.0,0.0,0.0,0.0,0.0,0.0,0.0,0.0
2025/04/09 09:49:50.347525000,1744184990,346494410,mA1/imu,0.7074374021775219,0.7067754366624774,0.0002815679583504975,0.0008513814470937503,0.0,0.0,0.0,0.0,0.0,0.0,0.0,0.0,0.0,5.230881588364244e-05,4.341842580255731e-07,-1.8270817992200428e-06,0.0,0.0,0.0,0.0,0.0,0.0,0.0,0.0,0.0,0.007890560823939267,-0.015613219609879903,9.809862928400536,0.0,0.0,0.0,0.0,0.0,0.0,0.0,0.0,0.0
2025/04/09 09:49:50.400959892,1744184990,397479148,mA1/imu,0.7074373712483778,0.7067754691710986,0.00028062225923551696,0.000850405965390201,0.0,0.0,0.0,0.0,0.0,0.0,0.0,0.0,0.0,5.763712863636333e-05,1.0377858968653821e-06,-1.8075665624208154e-06,0.0,0.0,0.0,0.0,0.0,0.0,0.0,0.0,0.0,0.007893194760826233,-0.015759255862952612,9.809959249263255,0.0,0.0,0.0,0.0,0.0,0.0,0.0,0.0,0.0
2025/04/09 09:49:50.451031529,1744184990,449768122,mA1/imu,0.7074373408243885,0.7067755013788927,0.00027956039848289456,0.000849296129998724,0.0,0.0,0.0,0.0,0.0,0.0,0.0,0.0,0.0,6.346208247130207e-05,1.5117458374717307e-06,-1.7866961369272283e-06,0.0,0.0,0.0,0.0,0.0,0.0,0.0,0.0,0.0,0.007893632787927884,-0.015667956511582454,9.810040934913266,0.0,0.0,0.0,0.0,0.0,0.0,0.0,0.0,0.0
2025/04/09 09:49:50.503441168,1744184990,500710613,mA1/imu,0.7074373108175143,0.7067755332153627,0.00027847350736944626,0.0008481532463189686,0.0,0.0,0.0,0.0,0.0,0.0,0.0,0.0,0.0,6.360401730294213e-05,1.4178907616844122e-06,-1.7643991268218934e-06,0.0,0.0,0.0,0.0,0.0,0.0,0.0,0.0,0.0,0.007903377767774441,-0.0157831883953209,9.810127211705066,0.0,0.0,0.0,0.0,0.0,0.0,0.0,0.0,0.0
2025/04/09 09:49:50.555255953,1744184990,550893185,mA1/imu,0.7074372812423589,0.706775564641335,0.00027736711003687993,0.0008469957663413337,0.0,0.0,0.0,0.0,0.0,0.0,0.0,0.0,0.0,6.380542849276907e-05,1.496436553992024e-06,-1.7400824033227508e-06,0.0,0.0,0.0,0.0,0.0,0.0,0.0,0.0,0.0,0.007895215827209335,-0.015679766760563603,9.810191790543216,0.0,0.0,0.0,0.0,0.0,0.0,0.0,0.0,0.0
2025/04/09 09:49:50.603604086,1744184990,601926613,mA1/imu,0.7074372520718504,0.7067755955972566,0.000276303686178444,0.0008458755499138615,0.0,0.0,0.0,0.0,0.0,0.0,0.0,0.0,0.0,5.997707188713505e-05,1.620632378582559e-06,-1.7134621098482733e-06,0.0,0.0,0.0,0.0,0.0,0.0,0.0,0.0,0.0,0.007895834320853523,-0.015670791374731607,9.810252151895778,0.0,0.0,0.0,0.0,0.0,0.0,0.0,0.0,0.0
2025/04/09 09:49:50.652814052,1744184990,651707116,mA1/imu,0.7074372232735163,0.7067756260290082,0.0002753352872488079,0.0008448484126723077,0.0,0.0,0.0,0.0,0.0,0.0,0.0,0.0,0.0,5.371893880160506e-05,1.6369709229847117e-06,-1.6853331691928973e-06,0.0,0.0,0.0,0.0,0.0,0.0,0.0,0.0,0.0,0.007895700141241921,-0.015629140803831116,9.810276399722454,0.0,0.0,0.0,0.0,0.0,0.0,0.0,0.0,0.0
2025/04/09 09:49:50.704976875,1744184990,703584142,mA1/imu,0.7074371948189339,0.7067756558865851,0.00027450950099601874,0.0008439652475720574,0.0,0.0,0.0,0.0,0.0,0.0,0.0,0.0,0.0,4.4445876300261947e-05,1.5642612881192745e-06,-1.6554477745717567e-06,0.0,0.0,0.0,0.0,0.0,0.0,0.0,0.0,0.0,0.00789633023960048,-0.015644368431125346,9.810294769934279,0.0,0.0,0.0,0.0,0.0,0.0,0.0,0.0,0.0
2025/04/09 09:49:50.754822571,1744184990,753398597,mA1/imu,0.7074371666876229,0.7067756851307968,0.00027386212705809813,0.0008432653298879347,0.0,0.0,0.0,0.0,0.0,0.0,0.0,0.0,0.0,3.3645055804724096e-05,1.3930433605120723e-06,-1.6245753304118037e-06,0.0,0.0,0.0,0.0,0.0,0.0,0.0,0.0,0.0,0.007896551383765306,-0.015621342807233315,9.810295220319842,0.0,0.0,0.0,0.0,0.0,0.0,0.0,0.0,0.0
2025/04/09 09:49:50.805455848,1744184990,804759301,mA1/imu,0.7074371388694539,0.7067757137264673,0.00027342986992593185,0.0008427756225664511,0.0,0.0,0.0,0.0,0.0,0.0,0.0,0.0,0.0,2.0882799088208232e-05,1.6566459776964995e-06,-1.5917674037343716e-06,0.0,0.0,0.0,0.0,0.0,0.0,0.0,0.0,0.0,0.007897326333403691,-0.015648124476116094,9.810266886443474,0.0,0.0,0.0,0.0,0.0,0.0,0.0,0.0,0.0
2025/04/09 09:49:50.854941377,1744184990,854329315,mA1/imu,0.7074371113482729,0.706775741656886,0.00027322553110166074,0.0008425202546174617,0.0,0.0,0.0,0.0,0.0,0.0,0.0,0.0,0.0,7.66059980499252e-06,1.2792146196926357e-06,-1.559639109210936e-06,0.0,0.0,0.0,0.0,0.0,0.0,0.0,0.0,0.0,0.007897749081240671,-0.01563583370407347,9.810240075791102,0.0,0.0,0.0,0.0,0.0,0.0,0.0,0.0,0.0
2025/04/09 09:49:50.906080502,1744184990,905310374,mA1/imu,0.7074370841114545,0.7067757689144621,0.0002732552394528456,0.0008425145863773019,0.0,0.0,0.0,0.0,0.0,0.0,0.0,0.0,0.0,-6.233693011135706e-06,8.062880646691316e-07,-1.52740204630223e-06,0.0,0.0,0.0,0.0,0.0,0.0,0.0,0.0,0.0,0.007898312952994604,-0.015656592551341685,9.810168061348282,0.0,0.0,0.0,0.0,0.0,0.0,0.0,0.0,0.0
2025/04/09 09:49:50.956024334,1744184990,955103957,mA1/imu,0.7074370571558136,0.7067757955052003,0.0002735149672945124,0.0008427575428583768,0.0,0.0,0.0,0.0,0.0,0.0,0.0,0.0,0.0,-1.9458543660985326e-05,2.5579928175195904e-07,-1.4958660986907384e-06,0.0,0.0,0.0,0.0,0.0,0.0,0.0,0.0,0.0,0.007898691341627788,-0.015641947064610494,9.810105181396384,0.0,0.0,0.0,0.0,0.0,0.0,0.0,0.0,0.0
2025/04/09 09:49:51.291924,1744184990,996655730,mA1/imu,0.7074370304808222,0.7067758214459143,0.00027399203961717714,0.0008432391662247105,0.0,0.0,0.0,0.0,0.0,0.0,0.0,0.0,0.0,-3.204983802872484e-05,-3.713821149072133e-07,-1.4652158481361468e-06,0.0,0.0,0.0,0.0,0.0,0.0,0.0,0.0,0.0,0.007899495668335466,-0.015654682909233584,9.81000854248427,0.0,0.0,0.0,0.0,0.0,0.0,0.0,0.0,0.0
2025/04/09 09:49:51.48793706,1744184991,46491573,mA1/imu,0.7074370040915097,0.7067758467665692,0.0002746619161824861,0.0008439373554812531,0.0,0.0,0.0,0.0,0.0,0.0,0.0,0.0,0.0,-4.289997699011061e-05,-1.0636647276445778e-06,-1.4361069869049366e-06,0.0,0.0,0.0,0.0,0.0,0.0,0.0,0.0,0.0,0.007900302301168572,-0.01564057454682639,9.809932067265756,0.0,0.0,0.0,0.0,0.0,0.0,0.0,0.0,0.0
2025/04/09 09:49:51.100089103,1744184991,97546391,mA1/imu,0.7074369779965034,0.7067758715059876,0.00027549293225788136,0.0008448217391681514,0.0,0.0,0.0,0.0,0.0,0.0,0.0,0.0,0.0,-5.1966908224787746e-05,-1.684625712704051e-06,-1.4083453239101942e-06,0.0,0.0,0.0,0.0,0.0,0.0,0.0,0.0,0.0,0.007893426782148088,-0.015645124884529005,9.80983644733786,0.0,0.0,0.0,0.0,0.0,0.0,0.0,0.0,0.0
2025/04/09 09:49:51.148799532,1744184991,147403480,mA1/imu,0.7074369522317872,0.7067758956974629,0.00027645201696318336,0.0008458441532091199,0.0,0.0,0.0,0.0,0.0,0.0,0.0,0.0,0.0,-5.84284491558649e-05,-1.8260172962550145e-06,-1.3810894044903058e-06,0.0,0.0,0.0,0.0,0.0,0.0,0.0,0.0,0.0,0.007894881856817908,-0.015630728123835643,9.80978244047776,0.0,0.0,0.0,0.0,0.0,0.0,0.0,0.0,0.0
2025/04/09 09:49:51.201930316,1744184991,200410158,mA1/imu,0.7074369268270295,0.706775919388999,0.0002775029451479651,0.0008469506945083325,0.0,0.0,0.0,0.0,0.0,0.0,0.0,0.0,0.0,-6.237690586442222e-05,-1.3657120388117165e-06,-1.355127309563767e-06,0.0,0.0,0.0,0.0,0.0,0.0,0.0,0.0,0.0,0.007888561456971097,-0.015630298945935133,9.809712709162785,0.0,0.0,0.0,0.0,0.0,0.0,0.0,0.0,0.0
2025/04/09 09:49:51.251007229,1744184991,250283575,mA1/imu,0.7074369018029938,0.7067759426417292,0.00027859900792993317,0.0008480877721528677,0.0,0.0,0.0,0.0,0.0,0.0,0.0,0.0,0.0,-6.3311955952116e-05,-9.825730051287348e-07,-1.3318358666799898e-06,0.0,0.0,0.0,0.0,0.0,0.0,0.0,0.0,0.0,0.007889811695848991,-0.015613707725532028,9.809687659418618,0.0,0.0,0.0,0.0,0.0,0.0,0.0,0.0,0.0
2025/04/09 09:49:51.304859551,1744184991,301318693,mA1/imu,0.707436877159807,0.7067759655341842,0.00027968864962512577,0.0008492066067923461,0.0,0.0,0.0,0.0,0.0,0.0,0.0,0.0,0.0,-6.151379222397325e-05,-6.811404213043681e-07,-1.3124840163177284e-06,0.0,0.0,0.0,0.0,0.0,0.0,0.0,0.0,0.0,0.007891319010875895,-0.015613242049413481,9.809673124412315,0.0,0.0,0.0,0.0,0.0,0.0,0.0,0.0,0.0
2025/04/09 09:49:51.355642822,1744184991,354613951,mA1/imu,0.7074368529002919,0.7067759881442387,0.00028071948906523646,0.0008502575103651061,0.0,0.0,0.0,0.0,0.0,0.0,0.0,0.0,0.0,-5.676454097484611e-05,-4.544479757388065e-07,-1.296042290985992e-06,0.0,0.0,0.0,0.0,0.0,0.0,0.0,0.0,0.0,0.007892370018953862,-0.015603401179475415,9.809677655134632,0.0,0.0,0.0,0.0,0.0,0.0,0.0,0.0,0.0
2025/04/09 09:49:51.406249607,1744184991,405569587,mA1/imu,0.7074368290313197,0.7067760105386923,0.00028164388634533994,0.0008511955374812439,0.0,0.0,0.0,0.0,0.0,0.0,0.0,0.0,0.0,-4.963962670388732e-05,-3.067984743061183e-07,-1.2823239487304378e-06,0.0,0.0,0.0,0.0,0.0,0.0,0.0,0.0,0.0,0.007893700460856374,-0.015616196431636484,9.80970658956786,0.0,0.0,0.0,0.0,0.0,0.0,0.0,0.0,0.0
2025/04/09 09:49:51.457255957,1744184991,455427244,mA1/imu,0.7074368055584931,0.7067760327797261,0.000282418195043925,0.0008519796416588879,0.0,0.0,0.0,0.0,0.0,0.0,0.0,0.0,0.0,-4.0096473388042386e-05,-2.3143459697350298e-07,-1.2711574539524914e-06,0.0,0.0,0.0,0.0,0.0,0.0,0.0,0.0,0.0,0.007894734413101527,-0.015610743647522822,9.809740378077871,0.0,0.0,0.0,0.0,0.0,0.0,0.0,0.0,0.0
2025/04/09 09:49:51.499752556,1744184991,497810564,mA1/imu,0.7074367824838496,0.706776054919863,0.00028300711757557763,0.0008525771427901579,0.0,0.0,0.0,0.0,0.0,0.0,0.0,0.0,0.0,-2.8999634294507415e-05,-2.3160802151384726e-07,-1.2620340554128537e-06,0.0,0.0,0.0,0.0,0.0,0.0,0.0,0.0,0.0,0.007895920347131848,-0.015625936495065655,9.809816501178371,0.0,0.0,0.0,0.0,0.0,0.0,0.0,0.0,0.0
2025/04/09 09:49:51.547003316,1744184991,546150276,mA1/imu,0.7074367598080851,0.7067760770013303,0.000283382713326802,0.000852962534527271,0.0,0.0,0.0,0.0,0.0,0.0,0.0,0.0,0.0,-1.64059450300017e-05,-2.979020540160345e-07,-1.2546141496316356e-06,0.0,0.0,0.0,0.0,0.0,0.0,0.0,0.0,0.0,0.007896750671124192,-0.015613720881579592,9.809884857984574,0.0,0.0,0.0,0.0,0.0,0.0,0.0,0.0,0.0
2025/04/09 09:49:51.600052007,1744184991,598083863,mA1/imu,0.7074367375273634,0.7067760990520023,0.0002835286924950198,0.0008531218876260405,0.0,0.0,0.0,0.0,0.0,0.0,0.0,0.0,0.0,-3.414591293780901e-06,-4.3191512041511533e-07,-1.2482021878290064e-06,0.0,0.0,0.0,0.0,0.0,0.0,0.0,0.0,0.0,0.007897860427649122,-0.0156307027575047,9.809971443542098,0.0,0.0,0.0,0.0,0.0,0.0,0.0,0.0,0.0
2025/04/09 09:49:51.649131290,1744184991,647889968,mA1/imu,0.7074367156364316,0.7067761210875827,0.00028343707753231227,0.0008530494431324343,0.0,0.0,0.0,0.0,0.0,0.0,0.0,0.0,0.0,9.990570724457622e-06,-6.25796804759122e-07,-1.2424686568281193e-06,0.0,0.0,0.0,0.0,0.0,0.0,0.0,0.0,0.0,0.007898735433223798,-0.015613251921760215,9.81004988210024,0.0,0.0,0.0,0.0,0.0,0.0,0.0,0.0,0.0
2025/04/09 09:49:51.704398615,1744184991,702412487,mA1/imu,0.7074366941250173,0.7067761431072521,0.0002831137852397228,0.0008527523019989866,0.0,0.0,0.0,0.0,0.0,0.0,0.0,0.0,0.0,2.2475312986816536e-05,-7.449291310167047e-07,-1.2363669759008522e-06,0.0,0.0,0.0,0.0,0.0,0.0,0.0,0.0,0.0,0.007891737616046378,-0.01563221195683599,9.810135753946014,0.0,0.0,0.0,0.0,0.0,0.0,0.0,0.0,0.0
2025/04/09 09:49:51.753146960,1744184991,752298452,mA1/imu,0.7074366729916872,0.7067761650963359,0.00028257983272427217,0.0008522363567695834,0.0,0.0,0.0,0.0,0.0,0.0,0.0,0.0,0.0,3.43362898609769e-05,-3.8271608337653426e-07,-1.2291090743058593e-06,0.0,0.0,0.0,0.0,0.0,0.0,0.0,0.0,0.0,0.007892750794072515,-0.01560966813231715,9.810187989770847,0.0,0.0,0.0,0.0,0.0,0.0,0.0,0.0,0.0
2025/04/09 09:49:51.804161212,1744184991,803271760,mA1/imu,0.7074366522222081,0.7067761870272399,0.00028186325237282314,0.0008515262636003469,0.0,0.0,0.0,0.0,0.0,0.0,0.0,0.0,0.0,4.410231522490558e-05,-8.910148054179902e-08,-1.2207086595352412e-06,0.0,0.0,0.0,0.0,0.0,0.0,0.0,0.0,0.0,0.007893870519855328,-0.01563123782111051,9.810247023794927,0.0,0.0,0.0,0.0,0.0,0.0,0.0,0.0,0.0
2025/04/09 09:49:51.853829233,1744184991,853016148,mA1/imu,0.7074366317986829,0.7067762088652444,0.00028099449380957186,0.0008506547488776661,0.0,0.0,0.0,0.0,0.0,0.0,0.0,0.0,0.0,5.2347291868093135e-05,1.4454786006741435e-07,-1.2111999154696092e-06,0.0,0.0,0.0,0.0,0.0,0.0,0.0,0.0,0.0,0.007894382595278223,-0.01560220392017263,9.810265269424077,0.0,0.0,0.0,0.0,0.0,0.0,0.0,0.0,0.0
2025/04/09 09:49:51.904798113,1744184991,904030675,mA1/imu,0.7074366116984921,0.7067762305647882,0.00028001383769670504,0.0008496643083451343,0.0,0.0,0.0,0.0,0.0,0.0,0.0,0.0,0.0,5.767500088732756e-05,3.1510864839159354e-07,-1.1998482650845942e-06,0.0,0.0,0.0,0.0,0.0,0.0,0.0,0.0,0.0,0.007895133908767445,-0.01562720442602489,9.810278338056117,0.0,0.0,0.0,0.0,0.0,0.0,0.0,0.0,0.0
2025/04/09 09:49:51.956481263,1744184991,954580174,mA1/imu,0.7074365919004608,0.7067762520764915,0.00027896330584593437,0.0008485991058851742,0.0,0.0,0.0,0.0,0.0,0.0,0.0,0.0,0.0,6.0922552042814135e-05,4.28813949007694e-07,-1.1868587451207443e-06,0.0,0.0,0.0,0.0,0.0,0.0,0.0,0.0,0.0,0.0078955260378323,-0.015604240875509658,9.810274290562587,0.0,0.0,0.0,0.0,0.0,0.0,0.0,0.0,0.0
2025/04/09 09:49:52.7443801,1744184992,5495222,mA1/imu,0.7074365723793287,0.7067762733431976,0.0002778926970148653,0.00084751102492331,0.0,0.0,0.0,0.0,0.0,0.0,0.0,0.0,0.0,6.077377613710061e-05,4.846054312220875e-07,-1.1716214035798628e-06,0.0,0.0,0.0,0.0,0.0,0.0,0.0,0.0,0.0,0.007896073587547972,-0.01564161969204536,9.81025040736672,0.0,0.0,0.0,0.0,0.0,0.0,0.0,0.0,0.0
2025/04/09 09:49:52.56158469,1744184992,55316930,mA1/imu,0.707436553113567,0.7067762943108492,0.00027684798681276967,0.0008464479966497889,0.0,0.0,0.0,0.0,0.0,0.0,0.0,0.0,0.0,5.848447489152185e-05,4.881156337905948e-07,-1.154650579995167e-06,0.0,0.0,0.0,0.0,0.0,0.0,0.0,0.0,0.0,0.007896445955355566,-0.015622025118451578,9.810211711439255,0.0,0.0,0.0,0.0,0.0,0.0,0.0,0.0,0.0
2025/04/09 09:49:52.107280000,1744184992,106348408,mA1/imu,0.7074365340792339,0.7067763149237695,0.0002758780638541089,0.0008454608395986357,0.0,0.0,0.0,0.0,0.0,0.0,0.0,0.0,0.0,5.293012414126593e-05,4.391963235811289e-07,-1.1355270367837043e-06,0.0,0.0,0.0,0.0,0.0,0.0,0.0,0.0,0.0,0.007896830315902425,-0.01565728267119836,9.81015203126346,0.0,0.0,0.0,0.0,0.0,0.0,0.0,0.0,0.0
2025/04/09 09:49:52.146867839,1744184992,146069820,mA1/imu,0.7074365152576131,0.7067763351337829,0.00027502428326687574,0.0008445926043764021,0.0,0.0,0.0,0.0,0.0,0.0,0.0,0.0,0.0,4.5589651699162476e-05,3.4636688296775665e-07,-1.114919865388341e-06,0.0,0.0,0.0,0.0,0.0,0.0,0.0,0.0,0.0,0.007897011226417165,-0.015633382353512304,9.810091217246349,0.0,0.0,0.0,0.0,0.0,0.0,0.0,0.0,0.0
2025/04/09 09:49:52.200704453,1744184992,198398213,mA1/imu,0.707436496629075,0.7067763548960516,0.0002743267626074274,0.0008438849791818953,0.0,0.0,0.0,0.0,0.0,0.0,0.0,0.0,0.0,3.561061567846244e-05,2.1064895274511607e-07,-1.0926412788335646e-06,0.0,0.0,0.0,0.0,0.0,0.0,0.0,0.0,0.0,0.007897318899350162,-0.015662757795450316,9.809995399822428,0.0,0.0,0.0,0.0,0.0,0.0,0.0,0.0,0.0
2025/04/09 09:49:52.249250310,1744184992,248316268,mA1/imu,0.7074364781805212,0.706776374177851,0.00027381402723048224,0.0008433679088339096,0.0,0.0,0.0,0.0,0.0,0.0,0.0,0.0,0.0,2.46180277378432e-05,3.780551040362829e-08,-1.0694803063918588e-06,0.0,0.0,0.0,0.0,0.0,0.0,0.0,0.0,0.0,0.007897532554968535,-0.015637874223539648,9.809922911116924,0.0,0.0,0.0,0.0,0.0,0.0,0.0,0.0,0.0
2025/04/09 09:49:52.300810847,1744184992,299453961,mA1/imu,0.7074364598990879,0.706776392954011,0.0002735096869997599,0.0008430663170009221,0.0,0.0,0.0,0.0,0.0,0.0,0.0,0.0,0.0,1.20471818410287e-05,-1.7114043797998714e-07,-1.0454798687788928e-06,0.0,0.0,0.0,0.0,0.0,0.0,0.0,0.0,0.0,0.007897898909085677,-0.01565950479666549,9.809840455908704,0.0,0.0,0.0,0.0,0.0,0.0,0.0,0.0,0.0
2025/04/09 09:49:52.350401821,1744184992,349244650,mA1/imu,0.7074364417845083,0.7067764112111435,0.0002734290468782996,0.0008429871450313562,0.0,0.0,0.0,0.0,0.0,0.0,0.0,0.0,0.0,-5.300626057902076e-07,1.2772256593653113e-07,-1.020539387540588e-06,0.0,0.0,0.0,0.0,0.0,0.0,0.0,0.0,0.0,0.007890111413649165,-0.015634396150131718,9.809779278497023,0.0,0.0,0.0,0.0,0.0,0.0,0.0,0.0,0.0
2025/04/09 09:49:52.402673430,1744184992,401554920,mA1/imu,0.7074364238402052,0.7067764289446387,0.0002735826954275922,0.0008431280770996696,0.0,0.0,0.0,0.0,0.0,0.0,0.0,0.0,0.0,-1.3476208594824493e-05,5.134229273151786e-07,-9.954979163830057e-07,0.0,0.0,0.0,0.0,0.0,0.0,0.0,0.0,0.0,0.007890819729396502,-0.015648389598447405,9.809719669416438,0.0,0.0,0.0,0.0,0.0,0.0,0.0,0.0,0.0
2025/04/09 09:49:52.452248017,1744184992,451466416,mA1/imu,0.7074364060680082,0.7067764461665403,0.0002739603794566397,0.000843480578388772,0.0,0.0,0.0,0.0,0.0,0.0,0.0,0.0,0.0,-2.5317902512973767e-05,8.59826846333822e-07,-9.712869902343439e-07,0.0,0.0,0.0,0.0,0.0,0.0,0.0,0.0,0.0,0.007890554722078915,-0.015622780831217955,9.809699054017592,0.0,0.0,0.0,0.0,0.0,0.0,0.0,0.0,0.0
2025/04/09 09:49:52.503555916,1744184992,502457556,mA1/imu,0.7074363937282476,0.7067764580542595,0.0002742913408275368,0.0008437614044551968,0.0,0.0,0.0,0.0,0.0,0.0,0.0,0.0,0.0,3.74692183067958e-05,3.061367125044178e-06,4.524586762498968e-07,0.0,0.0,0.0,0.0,0.0,0.0,0.0,0.0,0.0,0.0076430797305884176,0.026200442099393192,9.80975611552351,0.0,0.0,0.0,0.0,0.0,0.0,0.0,0.0,0.0
2025/04/09 09:49:52.553253791,1744184992,552280230,mA1/imu,0.7074363416951409,0.7067765185684605,0.00027126614660172754,0.0008376538188340551,0.0,0.0,0.0,0.0,0.0,0.0,0.0,0.0,0.0,0.0004063809741514532,0.00016803465692873798,-8.152535651509172e-06,0.0,0.0,0.0,0.0,0.0,0.0,0.0,0.0,0.0,0.0017528461691006724,0.021869984450322538,9.809600926297579,0.0,0.0,0.0,0.0,0.0,0.0,0.0,0.0,0.0
2025/04/09 09:49:52.606572071,1744184992,603282300,mA1/imu,0.7074360654729066,0.7067768213009612,0.00026196247851611857,0.0008182393185018867,0.0,0.0,0.0,0.0,0.0,0.0,0.0,0.0,0.0,0.0018298129043252287,0.000356842551964203,-2.3233368891234704e-05,0.0,0.0,0.0,0.0,0.0,0.0,0.0,0.0,0.0,0.0020710239576490043,-0.4978453048767987,9.809599380307993,0.0,0.0,0.0,0.0,0.0,0.0,0.0,0.0,0.0
2025/04/09 09:49:52.657602246,1744184992,653214324,mA1/imu,0.7074356105889954,0.7067773229343813,0.00024276720886390232,0.000783403067885657,0.0,0.0,0.0,0.0,0.0,0.0,0.0,0.0,0.0,0.0025366708104346395,0.0004973911631531808,-2.7277869673484086e-05,0.0,0.0,0.0,0.0,0.0,0.0,0.0,0.0,0.0,0.002648688381538343,0.1257764312736705,9.810839880232573,0.0,0.0,0.0,0.0,0.0,0.0,0.0,0.0,0.0
2025/04/09 09:49:52.708489366,1744184992,706412360,mA1/imu,0.7074350067744872,0.7067779852134958,0.00021886712871515022,0.0007368206787440133,0.0,0.0,0.0,0.0,0.0,0.0,0.0,0.0,0.0,0.002397172056639286,0.0006897225053523574,-3.79677139539335e-05,0.0,0.0,0.0,0.0,0.0,0.0,0.0,0.0,0.0,0.0024357151540658397,0.09969991961805903,9.810790399513522,0.0,0.0,0.0,0.0,0.0,0.0,0.0,0.0,0.0
2025/04/09 09:49:52.755709338,1744184992,754839189,mA1/imu,0.7074344199352554,0.7067786565290055,0.00017334364769942882,0.0006649194707553099,0.0,0.0,0.0,0.0,0.0,0.0,0.0,0.0,0.0,0.003612588349684509,0.0007722583870220794,-3.238110285963013e-05,0.0,0.0,0.0,0.0,0.0,0.0,0.0,0.0,0.0,0.003034195588967459,0.3009605417551874,9.810372307995447,0.0,0.0,0.0,0.0,0.0,0.0,0.0,0.0,0.0
2025/04/09 09:49:52.810185016,1744184992,808985763,mA1/imu,0.7074339375232246,0.7067792289499121,0.00011362369845665837,0.0005767625243719179,0.0,0.0,0.0,0.0,0.0,0.0,0.0,0.0,0.0,0.0045401488006001686,0.0008177258555805516,-3.0118256141359464e-05,0.0,0.0,0.0,0.0,0.0,0.0,0.0,0.0,0.0,0.0021427857373186717,0.1288111123118045,9.812933791510158,0.0,0.0,0.0,0.0,0.0,0.0,0.0,0.0,0.0
2025/04/09 09:49:52.848377759,1744184992,846464046,mA1/imu,0.7074335377318998,0.7067797151579148,3.75159301944482e-05,0.000471726595072826,0.0,0.0,0.0,0.0,0.0,0.0,0.0,0.0,0.0,0.005419981282899395,0.0008062870264358709,-2.1063972044957717e-05,0.0,0.0,0.0,0.0,0.0,0.0,0.0,0.0,0.0,0.0029473099203239025,-0.24163403768115296,9.811030359917789,0.0,0.0,0.0,0.0,0.0,0.0,0.0,0.0,0.0
2025/04/09 09:49:52.898262385,1744184992,897540661,mA1/imu,0.7074332345840562,0.7067800882838687,-5.6713139561060636e-05,0.0003495640232111983,0.0,0.0,0.0,0.0,0.0,0.0,0.0,0.0,0.0,0.0048467099560474515,0.0007819729070670444,-2.1611644824839788e-05,0.0,0.0,0.0,0.0,0.0,0.0,0.0,0.0,0.0,0.003983505353918443,0.6620443051977133,9.812470517427448,0.0,0.0,0.0,0.0,0.0,0.0,0.0,0.0,0.0
2025/04/09 09:49:52.948798019,1744184992,947331015,mA1/imu,0.7074327118320293,0.7067806474026272,-0.0001577990845304715,0.00022312900515608232,0.0,0.0,0.0,0.0,0.0,0.0,0.0,0.0,0.0,0.0053975490889009835,0.0007136599069790593,-4.4540143235550296e-05,0.0,0.0,0.0,0.0,0.0,0.0,0.0,0.0,0.0,0.0004549564442958105,0.5824533998189525,9.808897677021088,0.0,0.0,0.0,0.0,0.0,0.0,0.0,0.0,0.0
2025/04/09 09:49:53.1524765,1744184992,998325490,mA1/imu,-0.7074318229907138,-0.7067815342118747,0.00026344629070197727,-9.650489955525579e-05,0.0,0.0,0.0,0.0,0.0,0.0,0.0,0.0,0.0,0.005872796500388498,0.0005096660520916531,-5.203255721321593e-05,0.0,0.0,0.0,0.0,0.0,0.0,0.0,0.0,0.0,0.005486645915216891,0.10700857191553587,9.810362238045062,0.0,0.0,0.0,0.0,0.0,0.0,0.0,0.0,0.0
2025/04/09 09:49:53.50213029,1744184993,48309223,mA1/imu,-0.7074309835751115,-0.7067823322337173,0.0003711132838948158,2.4395666517011043e-05,0.0,0.0,0.0,0.0,0.0,0.0,0.0,0.0,0.0,0.006147390846413182,0.00029111561671215904,-3.5148943689571876e-05,0.0,0.0,0.0,0.0,0.0,0.0,0.0,0.0,0.0,0.003621541394365816,0.12279636934880234,9.810299926185193,0.0,0.0,0.0,0.0,0.0,0.0,0.0,0.0,0.0
2025/04/09 09:49:53.102483313,1744184993,100818087,mA1/imu,-0.7074308152673429,-0.7067824321884512,0.00046797585327101074,0.00012711632752372245,0.0,0.0,0.0,0.0,0.0,0.0,0.0,0.0,0.0,0.004356197300825203,8.21681278953665e-05,9.905168444711026e-06,0.0,0.0,0.0,0.0,0.0,0.0,0.0,0.0,0.0,0.003409230356395939,0.5796176721217093,9.81122824314793,0.0,0.0,0.0,0.0,0.0,0.0,0.0,0.0,0.0
2025/04/09 09:49:53.151500116,1744184993,150685309,mA1/imu,-0.7074335438047106,-0.7067796156235512,0.00055499179658084,0.00021914159700855133,0.0,0.0,0.0,0.0,0.0,0.0,0.0,0.0,0.0,0.004957715286356602,0.0002113571448732882,0.00028915173424793494,0.0,0.0,0.0,0.0,0.0,0.0,0.0,0.0,0.0,-0.009237097322614346,0.011953653735635403,9.809346616564223,0.0,0.0,0.0,0.0,0.0,0.0,0.0,0.0,0.0
2025/04/09 09:49:53.205961403,1744184993,202598021,mA1/imu,-0.7074424436644154,-0.7067706349066482,0.0006122300646309535,0.0002893270154788855,0.0,0.0,0.0,0.0,0.0,0.0,0.0,0.0,0.0,0.0025290512901447243,0.0004470941339551883,0.0006421563829858976,0.0,0.0,0.0,0.0,0.0,0.0,0.0,0.0,0.0,-0.01050728855535558,0.5283447734037288,9.811413914669323,0.0,0.0,0.0,0.0,0.0,0.0,0.0,0.0,0.0
2025/04/09 09:49:53.253624079,1744184993,252405067,mA1/imu,-0.707457490124328,-0.70675552592423,0.0006415854402334884,0.0003385419829446568,0.0,0.0,0.0,0.0,0.0,0.0,0.0,0.0,0.0,0.001410639997140664,0.0006352003413193289,0.0009901983741192385,0.0,0.0,0.0,0.0,0.0,0.0,0.0,0.0,0.0,-0.010064243056904513,0.08696523954110075,9.811033516243103,0.0,0.0,0.0,0.0,0.0,0.0,0.0,0.0,0.0
2025/04/09 09:49:53.304848340,1744184993,303476362,mA1/imu,-0.7074778986966664,-0.706735086162994,0.0006400743343557478,0.000362141935202197,0.0,0.0,0.0,0.0,0.0,0.0,0.0,0.0,0.0,-0.0017430102114917023,0.000773717813473257,0.0012626158885902551,0.0,0.0,0.0,0.0,0.0,0.0,0.0,0.0,0.0,-0.008157551620477866,0.4950102046833278,9.810594438550488,0.0,0.0,0.0,0.0,0.0,0.0,0.0,0.0,0.0
2025/04/09 09:49:53.353988286,1744184993,353281753,mA1/imu,-0.7075031989223631,-0.7067097786764247,0.0006151511606005014,0.000365823442962246,0.0,0.0,0.0,0.0,0.0,0.0,0.0,0.0,0.0,-0.0019938034639562507,0.000866697720440794,0.0015360237702145346,0.0,0.0,0.0,0.0,0.0,0.0,0.0,0.0,0.0,-0.010486653638163061,0.06333121985473485,9.806884699094816,0.0,0.0,0.0,0.0,0.0,0.0,0.0,0.0,0.0
2025/04/09 09:49:53.406034865,1744184993,404323050,mA1/imu,-0.7075330105800833,-0.7066799801482021,0.0005685179553663237,0.00034840286258043724,0.0,0.0,0.0,0.0,0.0,0.0,0.0,0.0,0.0,-0.001731170611855712,0.0007810173983131463,0.001746310990037383,0.0,0.0,0.0,0.0,0.0,0.0,0.0,0.0,0.0,0.0004075057808221984,0.1843047608797784,9.806655879909082,0.0,0.0,0.0,0.0,0.0,0.0,0.0,0.0,0.0
2025/04/09 09:49:53.456320193,1744184993,454170177,mA1/imu,-0.7075638435654622,-0.7066491943221298,0.0004897216081549368,0.00028916345071737726,0.0,0.0,0.0,0.0,0.0,0.0,0.0,0.0,0.0,-0.0035834018660544273,0.00036479694203617955,0.0017435245876339215,0.0,0.0,0.0,0.0,0.0,0.0,0.0,0.0,0.0,0.005464818080859125,0.2748075095669114,9.80997241651141,0.0,0.0,0.0,0.0,0.0,0.0,0.0,0.0,0.0
2025/04/09 09:49:53.506055164,1744184993,505264603,mA1/imu,-0.70759457447669,-0.7066185098425912,0.0003985038206598518,0.0002022713346761961,0.0,0.0,0.0,0.0,0.0,0.0,0.0,0.0,0.0,-0.0058906193025723575,-4.10895945683898e-05,0.0017265661797786632,0.0,0.0,0.0,0.0,0.0,0.0,0.0,0.0,0.0,0.004303872214894108,0.699243402946878,9.808521300576242,0.0,0.0,0.0,0.0,0.0,0.0,0.0,0.0,0.0
2025/04/09 09:49:53.556070713,1744184993,555043743,mA1/imu,-0.7076243657739495,-0.7065887488394588,0.0002980913131169747,9.010035041396413e-05,0.0,0.0,0.0,0.0,0.0,0.0,0.0,0.0,0.0,-0.006805748387485481,-0.0004976070896427049,0.0016596898289952373,0.0,0.0,0.0,0.0,0.0,0.0,0.0,0.0,0.0,0.004305052743420337,0.7004160079862286,9.808833307976291,0.0,0.0,0.0,0.0,0.0,0.0,0.0,0.0,0.0
2025/04/09 09:49:53.606806820,1744184993,606009218,mA1/imu,-0.7076532909457972,-0.7065598216301463,0.0001902864081831243,-4.541631226209925e-05,0.0,0.0,0.0,0.0,0.0,0.0,0.0,0.0,0.0,-0.005912453907622933,-0.0009519054805035772,0.001626807213168383,0.0,0.0,0.0,0.0,0.0,0.0,0.0,0.0,0.0,0.004326360570040799,-0.45342014494913246,9.809764078418802,0.0,0.0,0.0,0.0,0.0,0.0,0.0,0.0,0.0
2025/04/09 09:49:53.651634659,1744184993,646493356,mA1/imu,0.7076820284307307,0.7065310333897498,-7.780878864480344e-05,0.00019859297848092707,0.0,0.0,0.0,0.0,0.0,0.0,0.0,0.0,0.0,-0.006278083343216828,-0.001287782556105372,0.001639172735679946,0.0,0.0,0.0,0.0,0.0,0.0,0.0,0.0,0.0,0.0018700264344941892,-0.4589594180732215,9.808827414052994,0.0,0.0,0.0,0.0,0.0,0.0,0.0,0.0,0.0
2025/04/09 09:49:53.700786613,1744184993,697076811,mA1/imu,0.7077111470362993,0.7065018108958284,2.4856870409686757e-05,0.00035063316518007246,0.0,0.0,0.0,0.0,0.0,0.0,0.0,0.0,0.0,-0.006423449595071422,-0.0014875329222245055,0.0016638864404114806,0.0,0.0,0.0,0.0,0.0,0.0,0.0,0.0,0.0,0.003397202085255658,-0.24202091102207302,9.80908228865463,0.0,0.0,0.0,0.0,0.0,0.0,0.0,0.0,0.0
2025/04/09 09:49:53.748453831,1744184993,746820014,mA1/imu,0.7077426182902687,0.7064701776136268,0.00012929602730854355,0.0005076226383788658,0.0,0.0,0.0,0.0,0.0,0.0,0.0,0.0,0.0,-0.006884213066335953,-0.0014574786424989576,0.001868076996676899,0.0,0.0,0.0,0.0,0.0,0.0,0.0,0.0,0.0,-0.001897447491805808,-0.07178485024889253,9.810786182417111,0.0,0.0,0.0,0.0,0.0,0.0,0.0,0.0,0.0
2025/04/09 09:49:53.800488840,1744184993,797808910,mA1/imu,0.7077757261172304,0.7064368638908807,0.00022318868053783703,0.0006550130208687788,0.0,0.0,0.0,0.0,0.0,0.0,0.0,0.0,0.0,-0.005949149386661798,-0.001529136841508161,0.0018906652517801613,0.0,0.0,0.0,0.0,0.0,0.0,0.0,0.0,0.0,0.0006375429462475296,0.13819816538003107,9.809203382100746,0.0,0.0,0.0,0.0,0.0,0.0,0.0,0.0,0.0
2025/04/09 09:49:53.848655357,1744184993,847623779,mA1/imu,0.7078112323645266,0.7064011158914407,0.00031091377526619804,0.0007912891771948411,0.0,0.0,0.0,0.0,0.0,0.0,0.0,0.0,0.0,-0.005745644183654853,-0.0012794555071520713,0.0021006050412762955,0.0,0.0,0.0,0.0,0.0,0.0,0.0,0.0,0.0,-0.0026959254550369587,0.08433701543255924,9.813125119568186,0.0,0.0,0.0,0.0,0.0,0.0,0.0,0.0,0.0
2025/04/09 09:49:53.900500233,1744184993,898914657,mA1/imu,0.7078488852440553,0.7063632149090803,0.0003810010319128782,0.0009050526341015442,0.0,0.0,0.0,0.0,0.0,0.0,0.0,0.0,0.0,-0.004467474690507188,-0.0012042379370881438,0.0021516097501485423,0.0,0.0,0.0,0.0,0.0,0.0,0.0,0.0,0.0,0.0017259571460559583,-0.42987468394768824,9.813183055508595,0.0,0.0,0.0,0.0,0.0,0.0,0.0,0.0,0.0
2025/04/09 09:49:53.952220198,1744184993,949465195,mA1/imu,0.7078865601380884,0.7063253165348622,0.0004259670144142807,0.0009918416678274952,0.0,0.0,0.0,0.0,0.0,0.0,0.0,0.0,0.0,-0.002711589536612745,-0.0011569302415456635,0.0021288681781089793,0.0,0.0,0.0,0.0,0.0,0.0,0.0,0.0,0.0,0.0051078990779144014,-0.16021904674479298,9.810313244201911,0.0,0.0,0.0,0.0,0.0,0.0,0.0,0.0,0.0
2025/04/09 09:49:54.3282037,1744184994,1785132,mA1/imu,0.7079246009583171,0.7062870785927207,0.000454607371921974,0.0010560791187054078,0.0,0.0,0.0,0.0,0.0,0.0,0.0,0.0,0.0,-0.0013165794014352024,-0.0009168961936771586,0.002164544487283295,0.0,0.0,0.0,0.0,0.0,0.0,0.0,0.0,0.0,0.002005736852568046,-0.5085492683329415,9.811507970163477,0.0,0.0,0.0,0.0,0.0,0.0,0.0,0.0,0.0
2025/04/09 09:49:54.54305387,1744184994,51548055,mA1/imu,0.7079651275870679,0.7062464005773604,0.0004626678302142845,0.001088912589801877,0.0,0.0,0.0,0.0,0.0,0.0,0.0,0.0,0.0,-0.0009152384463238399,-0.0006203870504907334,0.002381605385682689,0.0,0.0,0.0,0.0,0.0,0.0,0.0,0.0,0.0,0.009108689340491423,0.04598411031551712,9.810529793746122,0.0,0.0,0.0,0.0,0.0,0.0,0.0,0.0,0.0
2025/04/09 09:49:54.104195139,1744184994,102600936,mA1/imu,0.7080073758805868,0.7062040564272196,0.0004411311367354045,0.001091690315968836,0.0,0.0,0.0,0.0,0.0,0.0,0.0,0.0,0.0,0.00045659357626366557,-0.0007284833154930448,0.002395207639148295,0.0,0.0,0.0,0.0,0.0,0.0,0.0,0.0,0.0,0.01419112284578631,0.031683927106973306,9.811002801219392,0.0,0.0,0.0,0.0,0.0,0.0,0.0,0.0,0.0
2025/04/09 09:49:54.153344585,1744184994,152414467,mA1/imu,0.7080473984138991,0.7061639964748155,0.00038593278086459886,0.0010689892023199399,0.0,0.0,0.0,0.0,0.0,0.0,0.0,0.0,0.0,0.0031292407206915504,-0.0010315190583451792,0.0021812748086207034,0.0,0.0,0.0,0.0,0.0,0.0,0.0,0.0,0.0,0.015944829774743124,-0.27448762980464814,9.80936718767685,0.0,0.0,0.0,0.0,0.0,0.0,0.0,0.0,0.0
2025/04/09 09:49:54.205677983,1744184994,203491899,mA1/imu,0.7080855089470762,0.7061258900443224,0.0003051811810250698,0.00102288450980877,0.0,0.0,0.0,0.0,0.0,0.0,0.0,0.0,0.0,0.00513844795974127,-0.000943401234815928,0.0021080545674979903,0.0,0.0,0.0,0.0,0.0,0.0,0.0,0.0,0.0,0.009237822219660666,-0.020829897395695185,9.810802022875155,0.0,0.0,0.0,0.0,0.0,0.0,0.0,0.0,0.0
2025/04/09 09:49:54.255074999,1744184994,253289256,mA1/imu,0.7081207244166773,0.706090699484778,0.00021194243881474253,0.0009585578229206735,0.0,0.0,0.0,0.0,0.0,0.0,0.0,0.0,0.0,0.004537422534330919,-0.0007429371767200248,0.0019393929655335388,0.0,0.0,0.0,0.0,0.0,0.0,0.0,0.0,0.0,0.009381828094667215,0.66904171303138,9.811609035228967,0.0,0.0,0.0,0.0,0.0,0.0,0.0,0.0,0.0
2025/04/09 09:49:54.305664256,1744184994,304948340,mA1/imu,0.7081542563801495,0.7060572060785638,0.00010392571899072106,0.0008718455453042783,0.0,0.0,0.0,0.0,0.0,0.0,0.0,0.0,0.0,0.007088350042465533,-0.0005195632719811635,0.001857725699894488,0.0,0.0,0.0,0.0,0.0,0.0,0.0,0.0,0.0,0.008634789395419963,-0.4751799709117918,9.810572334692672,0.0,0.0,0.0,0.0,0.0,0.0,0.0,0.0,0.0
2025/04/09 09:49:54.355365007,1744184994,354110302,mA1/imu,0.7081805660998352,0.7060309395566869,-2.2114985457034712e-05,0.0007731094011981506,0.0,0.0,0.0,0.0,0.0,0.0,0.0,0.0,0.0,0.007253406223603356,-0.0008782760821721899,0.0012684466367291853,0.0,0.0,0.0,0.0,0.0,0.0,0.0,0.0,0.0,0.013140211106564787,-0.39668930755834286,9.809409500460296,0.0,0.0,0.0,0.0,0.0,0.0,0.0,0.0,0.0
2025/04/09 09:49:54.407039440,1744184994,405095595,mA1/imu,0.7082020439711534,0.7060094891070497,-0.00014993911038234771,0.0006661262241609203,0.0,0.0,0.0,0.0,0.0,0.0,0.0,0.0,0.0,0.006271300702309761,-0.00033753114609362067,0.0012235739235998428,0.0,0.0,0.0,0.0,0.0,0.0,0.0,0.0,0.0,-0.01135852261253642,0.43379892114798313,9.810828376147452,0.0,0.0,0.0,0.0,0.0,0.0,0.0,0.0,0.0
2025/04/09 09:49:54.455690781,1744184994,454928552,mA1/imu,0.7082258599671414,0.7059856693682393,-0.0002679760396986493,0.0005423184712874878,0.0,0.0,0.0,0.0,0.0,0.0,0.0,0.0,0.0,0.0070594984819123035,0.00035039401318703194,0.0013553404966076203,0.0,0.0,0.0,0.0,0.0,0.0,0.0,0.0,0.0,0.008191274863765748,-0.5453297392553372,9.808950787899539,0.0,0.0,0.0,0.0,0.0,0.0,0.0,0.0,0.0
2025/04/09 09:49:54.507092244,1744184994,505964921,mA1/imu,0.7082491602829648,0.7059623319728169,-0.000381200766042972,0.0004092431471645926,0.0,0.0,0.0,0.0,0.0,0.0,0.0,0.0,0.0,0.008035209483376016,0.0006864147310504868,0.0012982615126598631,0.0,0.0,0.0,0.0,0.0,0.0,0.0,0.0,0.0,0.005917803942063323,-0.458273948517072,9.808329587701932,0.0,0.0,0.0,0.0,0.0,0.0,0.0,0.0,0.0
2025/04/09 09:49:54.557026450,1744184994,555755549,mA1/imu,-0.7082719768764184,-0.7059394463562629,0.00047208535402253906,-0.0002863305815576747,0.0,0.0,0.0,0.0,0.0,0.0,0.0,0.0,0.0,0.00569521956921497,0.001016919898791844,0.0012720161278794646,0.0,0.0,0.0,0.0,0.0,0.0,0.0,0.0,0.0,0.008804385342578961,0.27055538542590923,9.81004846370738,0.0,0.0,0.0,0.0,0.0,0.0,0.0,0.0,0.0
2025/04/09 09:49:54.597919285,1744184994,596614985,mA1/imu,-0.708293837513749,-0.7059174977300237,0.0005442092520141908,-0.00017313266305861072,0.0,0.0,0.0,0.0,0.0,0.0,0.0,0.0,0.0,0.004519925710891866,0.0012365465715919075,0.0012121640641146387,0.0,0.0,0.0,0.0,0.0,0.0,0.0,0.0,0.0,0.00959527026444164,0.03470081327465478,9.808472035247672,0.0,0.0,0.0,0.0,0.0,0.0,0.0,0.0,0.0
2025/04/09 09:49:54.648345661,1744184994,647653031,mA1/imu,-0.7083139560749067,-0.705897282831241,0.0006006025540691792,-7.069341022166939e-05,0.0,0.0,0.0,0.0,0.0,0.0,0.0,0.0,0.0,0.004290867280541014,0.0013051195579225927,0.0010803890441640916,0.0,0.0,0.0,0.0,0.0,0.0,0.0,0.0,0.0,0.012781177138418354,-0.04672999304112539,9.808182331956305,0.0,0.0,0.0,0.0,0.0,0.0,0.0,0.0,0.0
2025/04/09 09:49:54.702114272,1744184994,699589897,mA1/imu,-0.7083322833170341,-0.7058788728993328,0.0006270505610180235,3.583083441880937e-06,0.0,0.0,0.0,0.0,0.0,0.0,0.0,0.0,0.0,0.0013519628578093628,0.0013612245317317373,0.0010111350082648517,0.0,0.0,0.0,0.0,0.0,0.0,0.0,0.0,0.0,0.010066409811895848,0.5392741914753671,9.81032446065985,0.0,0.0,0.0,0.0,0.0,0.0,0.0,0.0,0.0
2025/04/09 09:49:54.751923693,1744184994,749479776,mA1/imu,-0.708349581751793,-0.7058615080658824,0.0006311382019165069,5.5924845781392624e-05,0.0,0.0,0.0,0.0,0.0,0.0,0.0,0.0,0.0,-0.0007123442750745412,0.0013675084981161537,0.0009574954751459356,0.0,0.0,0.0,0.0,0.0,0.0,0.0,0.0,0.0,0.009549668351964495,0.5754545444763258,9.80930223617695,0.0,0.0,0.0,0.0,0.0,0.0,0.0,0.0,0.0
2025/04/09 09:49:54.803668475,1744184994,800765259,mA1/imu,-0.7083659269209464,-0.7058451157412919,0.0006154594388547458,8.585610163831651e-05,0.0,0.0,0.0,0.0,0.0,0.0,0.0,0.0,0.0,-0.0017396452367617616,0.0012542727444150327,0.0009016315250164104,0.0,0.0,0.0,0.0,0.0,0.0,0.0,0.0,0.0,0.010590012366336596,0.6055261028555796,9.809058688890508,0.0,0.0,0.0,0.0,0.0,0.0,0.0,0.0,0.0
2025/04/09 09:49:54.851417634,1744184994,850676480,mA1/imu,-0.7083811541614975,-0.7058298673214469,0.0005756838980904903,8.610378984741401e-05,0.0,0.0,0.0,0.0,0.0,0.0,0.0,0.0,0.0,-0.0015050091049663766,0.001063340475682356,0.0008351502914944851,0.0,0.0,0.0,0.0,0.0,0.0,0.0,0.0,0.0,0.010286297300127088,0.7238820324981735,9.810586477216482,0.0,0.0,0.0,0.0,0.0,0.0,0.0,0.0,0.0
2025/04/09 09:49:54.902388776,1744184994,901673370,mA1/imu,-0.7083952242723586,-0.7058158035310603,0.00050538752838315,4.7930832299535075e-05,0.0,0.0,0.0,0.0,0.0,0.0,0.0,0.0,0.0,-0.0012008657974341566,0.0007976781966815733,0.0007734835797073236,0.0,0.0,0.0,0.0,0.0,0.0,0.0,0.0,0.0,0.009649958737744116,-0.4129088389311157,9.80820033917249,0.0,0.0,0.0,0.0,0.0,0.0,0.0,0.0,0.0
2025/04/09 09:49:54.954746167,1744184994,953766165,mA1/imu,-0.7084083934849723,-0.7058026466906034,0.0004141749614077581,-2.058351565651406e-05,0.0,0.0,0.0,0.0,0.0,0.0,0.0,0.0,0.0,-0.004448189925645798,0.0005253522113249663,0.0007280455848822781,0.0,0.0,0.0,0.0,0.0,0.0,0.0,0.0,0.0,0.011351866457384119,0.0734106807285657,9.808789874061775,0.0,0.0,0.0,0.0,0.0,0.0,0.0,0.0,0.0
2025/04/09 09:49:55.6307557,1744184995,4878203,mA1/imu,-0.7084225344756284,-0.7057884970907625,0.00031563381934912637,-0.00010196461057607657,0.0,0.0,0.0,0.0,0.0,0.0,0.0,0.0,0.0,-0.005379051953076321,0.0009293957681925899,0.0011698038641127896,0.0,0.0,0.0,0.0,0.0,0.0,0.0,0.0,0.0,-0.09722821234986409,0.11765407976578629,9.808172127803731,0.0,0.0,0.0,0.0,0.0,0.0,0.0,0.0,0.0
2025/04/09 09:49:55.56448277,1744184995,54731108,mA1/imu,0.7084645184969344,0.7057463916268792,-0.0001614108207304243,0.00017516590283551286,0.0,0.0,0.0,0.0,0.0,0.0,0.0,0.0,0.0,-0.007430177215101547,0.002586561039474134,0.0028097530953798363,0.0,0.0,0.0,0.0,0.0,0.0,0.0,0.0,0.0,0.005435958176220689,0.6282306432938752,9.809930517237094,0.0,0.0,0.0,0.0,0.0,0.0,0.0,0.0,0.0
2025/04/09 09:49:55.106315660,1744184995,105623651,mA1/imu,0.7085177837141232,0.7056929099768496,7.89390487942554e-07,0.0002587829396144259,0.0,0.0,0.0,0.0,0.0,0.0,0.0,0.0,0.0,-0.007555655850800932,0.0019741906573479,0.003142204270912373,0.0,0.0,0.0,0.0,0.0,0.0,0.0,0.0,0.0,0.007195990167877139,0.02829857383482166,9.809145330699582,0.0,0.0,0.0,0.0,0.0,0.0,0.0,0.0,0.0
2025/04/09 09:49:55.157196002,1744184995,155461030,mA1/imu,0.7085781489579559,0.705632235342744,0.00015810993404712374,0.00036092349289843645,0.0,0.0,0.0,0.0,0.0,0.0,0.0,0.0,0.0,-0.007898139780697727,0.001221020384685188,0.003574000869009746,0.0,0.0,0.0,0.0,0.0,0.0,0.0,0.0,0.0,0.022886137502595997,0.3320263541589989,9.808417866638043,0.0,0.0,0.0,0.0,0.0,0.0,0.0,0.0,0.0
2025/04/09 09:49:55.199331872,1744184995,196531569,mA1/imu,0.708643276757148,0.7055667139670294,0.00029636518661063904,0.0004802252975479132,0.0,0.0,0.0,0.0,0.0,0.0,0.0,0.0,0.0,-0.006994632988064982,8.892780125702507e-05,0.0036853734560386353,0.0,0.0,0.0,0.0,0.0,0.0,0.0,0.0,0.0,0.031058990076429406,0.2890961071900549,9.808919310517554,0.0,0.0,0.0,0.0,0.0,0.0,0.0,0.0,0.0
2025/04/09 09:49:55.247200743,1744184995,246224608,mA1/imu,0.7087043011676626,0.7055052467108452,0.00041204436097389517,0.0006249714944936231,0.0,0.0,0.0,0.0,0.0,0.0,0.0,0.0,0.0,-0.005347246908137479,-0.0014090937176726224,0.0033111790551610793,0.0,0.0,0.0,0.0,0.0,0.0,0.0,0.0,0.0,0.031234122039872914,-0.35022152043155363,9.813719370571848,0.0,0.0,0.0,0.0,0.0,0.0,0.0,0.0,0.0
2025/04/09 09:49:55.299546464,1744184995,297255919,mA1/imu,0.7087601907720332,0.7054488641882409,0.0005111846250456642,0.0007941552687417569,0.0,0.0,0.0,0.0,0.0,0.0,0.0,0.0,0.0,-0.007435668675899995,-0.002318938894059074,0.003190599208439798,0.0,0.0,0.0,0.0,0.0,0.0,0.0,0.0,0.0,0.01883738810285976,-0.6533754717160045,9.811315704662759,0.0,0.0,0.0,0.0,0.0,0.0,0.0,0.0,0.0
2025/04/09 09:49:55.349268733,1744184995,347144576,mA1/imu,0.70881979861371,0.7053887679852713,0.0005559607976122043,0.0009327384586013341,0.0,0.0,0.0,0.0,0.0,0.0,0.0,0.0,0.0,-0.006234592280908297,-0.0028033622019683025,0.00351092443642997,0.0,0.0,0.0,0.0,0.0,0.0,0.0,0.0,0.0,0.014170756200497452,0.2955686559276649,9.812438089524386,0.0,0.0,0.0,0.0,0.0,0.0,0.0,0.0,0.0
2025/04/09 09:49:55.401334721,1744184995,398101963,mA1/imu,0.7088830545262578,0.7053249742725229,0.0005853599280625474,0.001073790827806109,0.0,0.0,0.0,0.0,0.0,0.0,0.0,0.0,0.0,-0.005695032921368386,-0.0033423869414731817,0.0036441371713504937,0.0,0.0,0.0,0.0,0.0,0.0,0.0,0.0,0.0,0.01740717800107717,0.5701914444659881,9.813234109442215,0.0,0.0,0.0,0.0,0.0,0.0,0.0,0.0,0.0
2025/04/09 09:49:55.448744809,1744184995,447851619,mA1/imu,0.7089486052049777,0.7052588932014573,0.000581290377520441,0.001196177106110587,0.0,0.0,0.0,0.0,0.0,0.0,0.0,0.0,0.0,-0.0037221774623841597,-0.0036739262787842033,0.0037700278676136346,0.0,0.0,0.0,0.0,0.0,0.0,0.0,0.0,0.0,0.015789172424906146,0.4176339562816598,9.810863918512187,0.0,0.0,0.0,0.0,0.0,0.0,0.0,0.0,0.0
2025/04/09 09:49:55.502873269,1744184995,498878010,mA1/imu,0.7090163668625893,0.7051906229145547,0.0005470689802392803,0.0012952180849414494,0.0,0.0,0.0,0.0,0.0,0.0,0.0,0.0,0.0,-0.0013692259215863371,-0.003792280250472069,0.0038887263026731967,0.0,0.0,0.0,0.0,0.0,0.0,0.0,0.0,0.0,0.014725900213453364,0.040927642876502954,9.811790584419438,0.0,0.0,0.0,0.0,0.0,0.0,0.0,0.0,0.0
2025/04/09 09:49:55.550538716,1744184995,548680105,mA1/imu,0.7090831218552021,0.7051234032809592,0.00048578143506781583,0.0013698401204818925,0.0,0.0,0.0,0.0,0.0,0.0,0.0,0.0,0.0,0.00022719187360522572,-0.0038618296267627027,0.0036819811735265065,0.0,0.0,0.0,0.0,0.0,0.0,0.0,0.0,0.0,0.017302113845058104,0.272804174769289,9.811915404430868,0.0,0.0,0.0,0.0,0.0,0.0,0.0,0.0,0.0
2025/04/09 09:49:55.603654702,1744184995,600232189,mA1/imu,0.7091474274215971,0.7050587005010112,0.00040123947557124846,0.001412103409511918,0.0,0.0,0.0,0.0,0.0,0.0,0.0,0.0,0.0,0.002091194883327533,-0.0033849620664237884,0.003647893235097705,0.0,0.0,0.0,0.0,0.0,0.0,0.0,0.0,0.0,0.008655265761253372,0.06899223794328647,9.811764437389185,0.0,0.0,0.0,0.0,0.0,0.0,0.0,0.0,0.0
2025/04/09 09:49:55.651874879,1744184995,650062520,mA1/imu,0.7092119910807446,0.7049937790636074,0.00030786219379146367,0.0014242225137968178,0.0,0.0,0.0,0.0,0.0,0.0,0.0,0.0,0.0,0.0024314212185230846,-0.002709162031338832,0.0036628738756041925,0.0,0.0,0.0,0.0,0.0,0.0,0.0,0.0,0.0,0.008905603424674283,0.40376573856148557,9.811418633234185,0.0,0.0,0.0,0.0,0.0,0.0,0.0,0.0,0.0
2025/04/09 09:49:55.704707829,1744184995,701089850,mA1/imu,0.7092768769112714,0.70492859598945,0.00020044620513380205,0.001395083028048076,0.0,0.0,0.0,0.0,0.0,0.0,0.0,0.0,0.0,0.004114367779271632,-0.0018920356191118332,0.0036851764685247473,0.0,0.0,0.0,0.0,0.0,0.0,0.0,0.0,0.0,0.00830136918567765,0.01964101474396845,9.809440765504881,0.0,0.0,0.0,0.0,0.0,0.0,0.0,0.0,0.0
2025/04/09 09:49:55.754625490,1744184995,751104172,mA1/imu,0.709344993499147,0.704860204164398,9.256913406921127e-05,0.0013282371676777874,0.0,0.0,0.0,0.0,0.0,0.0,0.0,0.0,0.0,0.005689792248208821,-0.0007349224041138737,0.0039596059585519944,0.0,0.0,0.0,0.0,0.0,0.0,0.0,0.0,0.0,0.007411802575638841,-0.5759277500669526,9.807975648077875,0.0,0.0,0.0,0.0,0.0,0.0,0.0,0.0,0.0
2025/04/09 09:49:55.804879049,1744184995,802393936,mA1/imu,0.709415814523461,0.7047891164219358,-1.5111685468998238e-05,0.001226070486647207,0.0,0.0,0.0,0.0,0.0,0.0,0.0,0.0,0.0,0.004795793593478442,0.00019211145288724403,0.004042959197542605,0.0,0.0,0.0,0.0,0.0,0.0,0.0,0.0,0.0,0.010849939060476006,0.48356311410949415,9.809430141645242,0.0,0.0,0.0,0.0,0.0,0.0,0.0,0.0,0.0
2025/04/09 09:49:55.853064931,1744184995,852224526,mA1/imu,0.7094882518076004,0.7047164048895055,-0.00012169483859339074,0.0010928938519305241,0.0,0.0,0.0,0.0,0.0,0.0,0.0,0.0,0.0,0.006173400061012395,0.0010872811250054913,0.0041386024948153926,0.0,0.0,0.0,0.0,0.0,0.0,0.0,0.0,0.0,0.009939861352250737,-0.007047855010319468,9.809795913154579,0.0,0.0,0.0,0.0,0.0,0.0,0.0,0.0,0.0
2025/04/09 09:49:55.903829676,1744184995,903144032,mA1/imu,0.7095623309650215,0.7046420124287751,-0.00021681071368303748,0.000941163602087182,0.0,0.0,0.0,0.0,0.0,0.0,0.0,0.0,0.0,0.005711990999037483,0.0018991087268074149,0.004232714181738457,0.0,0.0,0.0,0.0,0.0,0.0,0.0,0.0,0.0,0.011438839073578549,0.5746201631277326,9.810256454167787,0.0,0.0,0.0,0.0,0.0,0.0,0.0,0.0,0.0
2025/04/09 09:49:55.954970763,1744184995,952906754,mA1/imu,0.7096390625686102,0.7045649063744471,-0.0002985390957665183,0.0007774681464786978,0.0,0.0,0.0,0.0,0.0,0.0,0.0,0.0,0.0,0.005466885853053841,0.002557959795155216,0.004426082134433291,0.0,0.0,0.0,0.0,0.0,0.0,0.0,0.0,0.0,0.012235034343764033,0.5711597130112264,9.807675636797324,0.0,0.0,0.0,0.0,0.0,0.0,0.0,0.0,0.0
2025/04/09 09:49:56.4801419,1744184996,4077709,mA1/imu,0.7097184727252184,0.7044850494735054,-0.0003670343758972039,0.0006081337541483441,0.0,0.0,0.0,0.0,0.0,0.0,0.0,0.0,0.0,0.006881124479329922,0.0030056783755792217,0.004542231115802337,0.0,0.0,0.0,0.0,0.0,0.0,0.0,0.0,0.0,0.013605263881845775,0.06728802008570937,9.807554875773443,0.0,0.0,0.0,0.0,0.0,0.0,0.0,0.0,0.0
2025/04/09 09:49:56.55879075,1744184996,53849958,mA1/imu,0.709796393750002,0.7044066333090742,-0.0004156665478792493,0.0004489888516717909,0.0,0.0,0.0,0.0,0.0,0.0,0.0,0.0,0.0,0.007092554090201021,0.003150804496950431,0.0043080828379946715,0.0,0.0,0.0,0.0,0.0,0.0,0.0,0.0,0.0,0.015017263305194782,-0.4985900846224919,9.808656603007048,0.0,0.0,0.0,0.0,0.0,0.0,0.0,0.0,0.0
2025/04/09 09:49:56.106865628,1744184996,104981682,mA1/imu,-0.7098711866695072,-0.704331322348305,0.00044231068879096406,-0.0003017561407469435,0.0,0.0,0.0,0.0,0.0,0.0,0.0,0.0,0.0,0.0047062577511795545,0.003476788876827713,0.004241470150722571,0.0,0.0,0.0,0.0,0.0,0.0,0.0,0.0,0.0,0.011621967267718216,0.04858952568213045,9.809348537536493,0.0,0.0,0.0,0.0,0.0,0.0,0.0,0.0,0.0
2025/04/09 09:49:56.155848044,1744184996,154703903,mA1/imu,-0.7099461353043055,-0.7042558171589897,0.0004459520571464356,-0.0001734674820683666,0.0,0.0,0.0,0.0,0.0,0.0,0.0,0.0,0.0,0.002105909604334964,0.003513935519255416,0.0042607010934812665,0.0,0.0,0.0,0.0,0.0,0.0,0.0,0.0,0.0,0.01204451362217348,0.5763316976834694,9.808812424379697,0.0,0.0,0.0,0.0,0.0,0.0,0.0,0.0,0.0
2025/04/09 09:49:56.207377193,1744184996,205898001,mA1/imu,-0.7100217954672199,-0.7041795649866343,0.00043085375595234383,-6.768885356802208e-05,0.0,0.0,0.0,0.0,0.0,0.0,0.0,0.0,0.0,0.0023572896497819516,0.003358683821127086,0.004381785541332855,0.0,0.0,0.0,0.0,0.0,0.0,0.0,0.0,0.0,0.0025072525999201628,-0.5701559979244092,9.809696797044541,0.0,0.0,0.0,0.0,0.0,0.0,0.0,0.0,0.0
2025/04/09 09:49:56.258618977,1744184996,255694287,mA1/imu,-0.7101031650212583,-0.7040975368880463,0.00039178133700889996,9.075343812291886e-06,0.0,0.0,0.0,0.0,0.0,0.0,0.0,0.0,0.0,0.000995177763598488,0.0031091987803182467,0.004699583351957074,0.0,0.0,0.0,0.0,0.0,0.0,0.0,0.0,0.0,0.016169069410591763,-0.05349719755807214,9.810397023604347,0.0,0.0,0.0,0.0,0.0,0.0,0.0,0.0,0.0
2025/04/09 09:49:56.298938692,1744184996,296540030,mA1/imu,-0.7101867330730557,-0.7040132734174389,0.0003354336060343592,5.003377682546566e-05,0.0,0.0,0.0,0.0,0.0,0.0,0.0,0.0,0.0,-0.0008979163964631354,0.0024949501301961964,0.004772078399923811,0.0,0.0,0.0,0.0,0.0,0.0,0.0,0.0,0.0,0.015869504771038736,0.1164223919047105,9.81013636595913,0.0,0.0,0.0,0.0,0.0,0.0,0.0,0.0,0.0
2025/04/09 09:49:56.348384787,1744184996,346433379,mA1/imu,-0.7102688771512471,-0.7039304296856905,0.00026447621476419827,4.8632888277203614e-05,0.0,0.0,0.0,0.0,0.0,0.0,0.0,0.0,0.0,-0.003185752663236998,0.0016386039997869574,0.004604380727358879,0.0,0.0,0.0,0.0,0.0,0.0,0.0,0.0,0.0,0.015768765548504295,0.25406847419079004,9.810831016631314,0.0,0.0,0.0,0.0,0.0,0.0,0.0,0.0,0.0
2025/04/09 09:49:56.403072790,1744184996,399127366,mA1/imu,-0.7103500370071667,-0.7038485575792649,0.00018131127061527772,6.612748136915859e-06,0.0,0.0,0.0,0.0,0.0,0.0,0.0,0.0,0.0,-0.005175299470270718,0.0008719735399364805,0.004621962410422684,0.0,0.0,0.0,0.0,0.0,0.0,0.0,0.0,0.0,0.014864707640086393,0.18868494484345,9.811796320558866,0.0,0.0,0.0,0.0,0.0,0.0,0.0,0.0,0.0
2025/04/09 09:49:56.451202679,1744184996,449174516,mA1/imu,-0.710433977350118,-0.7037638458971566,9.486155008379117e-05,-6.35281131135561e-05,0.0,0.0,0.0,0.0,0.0,0.0,0.0,0.0,0.0,-0.004844107116795528,0.00019948165280598865,0.004861439383973066,0.0,0.0,0.0,0.0,0.0,0.0,0.0,0.0,0.0,0.013700863890886785,-0.5838071937971239,9.809918588920748,0.0,0.0,0.0,0.0,0.0,0.0,0.0,0.0,0.0
2025/04/09 09:49:56.502730097,1744184996,500147253,mA1/imu,0.7105202896101102,0.7036766951405801,-7.241392348545194e-06,0.00016345017160250558,0.0,0.0,0.0,0.0,0.0,0.0,0.0,0.0,0.0,-0.004410458200097557,-0.0006687403605887818,0.004931488476982185,0.0,0.0,0.0,0.0,0.0,0.0,0.0,0.0,0.0,0.014921282629572893,-0.49190375603555375,9.809763427805727,0.0,0.0,0.0,0.0,0.0,0.0,0.0,0.0,0.0
2025/04/09 09:49:56.551342150,1744184996,550090887,mA1/imu,0.7106050716352532,0.7035910277724228,8.490050805883814e-05,0.0003009922024626322,0.0,0.0,0.0,0.0,0.0,0.0,0.0,0.0,0.0,-0.00687562256836569,-0.0016061794664622975,0.0047568850631595026,0.0,0.0,0.0,0.0,0.0,0.0,0.0,0.0,0.0,0.015122076868490783,0.6392266041924428,9.812288300802939,0.0,0.0,0.0,0.0,0.0,0.0,0.0,0.0,0.0
2025/04/09 09:49:56.602736630,1744184996,601074895,mA1/imu,0.710688765738959,0.7035063863316526,0.00017336075836276945,0.0004610738138161333,0.0,0.0,0.0,0.0,0.0,0.0,0.0,0.0,0.0,-0.007015452315999162,-0.0022334320676133048,0.004767643660616125,0.0,0.0,0.0,0.0,0.0,0.0,0.0,0.0,0.0,0.012188893249163491,-0.2424129378341865,9.810289704930714,0.0,0.0,0.0,0.0,0.0,0.0,0.0,0.0,0.0
2025/04/09 09:49:56.655424236,1744184996,653930120,mA1/imu,0.7107738578714341,0.70342026353438,0.0002488199705665999,0.0006276180399572042,0.0,0.0,0.0,0.0,0.0,0.0,0.0,0.0,0.0,-0.005572255690816327,-0.0027655806732135436,0.004896030155317965,0.0,0.0,0.0,0.0,0.0,0.0,0.0,0.0,0.0,0.014471851420516239,-0.5029296323381736,9.81069638923153,0.0,0.0,0.0,0.0,0.0,0.0,0.0,0.0,0.0
2025/04/09 09:49:56.706245746,1744184996,705488473,mA1/imu,0.7108604362262566,0.7033325628016996,0.0003178736923627076,0.0008032853322828323,0.0,0.0,0.0,0.0,0.0,0.0,0.0,0.0,0.0,-0.005980347549516044,-0.003126734357683454,0.004950270399463918,0.0,0.0,0.0,0.0,0.0,0.0,0.0,0.0,0.0,0.012183251450600712,-0.5478470933220873,9.811578681561222,0.0,0.0,0.0,0.0,0.0,0.0,0.0,0.0,0.0
2025/04/09 09:49:56.749572430,1744184996,746976950,mA1/imu,0.7109465627659325,0.703245256174757,0.00037592925463950593,0.0009763381596731585,0.0,0.0,0.0,0.0,0.0,0.0,0.0,0.0,0.0,-0.004965284389423989,-0.0032827252891719145,0.004870462946825387,0.0,0.0,0.0,0.0,0.0,0.0,0.0,0.0,0.0,0.011134921433916489,-0.4737504663586791,9.80953635568767,0.0,0.0,0.0,0.0,0.0,0.0,0.0,0.0,0.0
2025/04/09 09:49:56.799011242,1744184996,797408231,mA1/imu,0.7110322252122238,0.7031583774616298,0.0004215670492195624,0.0011371879813443283,0.0,0.0,0.0,0.0,0.0,0.0,0.0,0.0,0.0,-0.004127075017864743,-0.003190974021961382,0.004892663184115328,0.0,0.0,0.0,0.0,0.0,0.0,0.0,0.0,0.0,0.008421248302659681,-0.5139039970366248,9.809540264092595,0.0,0.0,0.0,0.0,0.0,0.0,0.0,0.0,0.0
2025/04/09 09:49:56.850661884,1744184996,847229537,mA1/imu,0.7111210747595282,0.7030682678193212,0.00045344555210886423,0.0012736583231400846,0.0,0.0,0.0,0.0,0.0,0.0,0.0,0.0,0.0,-0.0048963703719424176,-0.0027792466918125356,0.005169459036614504,0.0,0.0,0.0,0.0,0.0,0.0,0.0,0.0,0.0,0.008060234620083975,-0.014236038175399772,9.807790059575998,0.0,0.0,0.0,0.0,0.0,0.0,0.0,0.0,0.0
2025/04/09 09:49:56.900291136,1744184996,898224414,mA1/imu,0.7112127831253001,0.7029752913670111,0.00046643943191265925,0.001378144000875429,0.0,0.0,0.0,0.0,0.0,0.0,0.0,0.0,0.0,-0.003949418510546893,-0.002402101321830677,0.0052521000842822045,0.0,0.0,0.0,0.0,0.0,0.0,0.0,0.0,0.0,0.009388411629180669,0.5940859300696445,9.80957139432838,0.0,0.0,0.0,0.0,0.0,0.0,0.0,0.0,0.0
2025/04/09 09:49:56.948526733,1744184996,947966995,mA1/imu,0.7113023794653051,0.7028844551835494,0.0004706558771799136,0.0014649612162811521,0.0,0.0,0.0,0.0,0.0,0.0,0.0,0.0,0.0,-0.002496433478730069,-0.002183420240790986,0.005016942465578973,0.0,0.0,0.0,0.0,0.0,0.0,0.0,0.0,0.0,0.007791271526172259,0.6041689848991549,9.809771204939864,0.0,0.0,0.0,0.0,0.0,0.0,0.0,0.0,0.0
2025/04/09 09:49:57.1472830,1744184996,999008714,mA1/imu,0.7113906942091064,0.7027949808890145,0.0004554001366868666,0.0015124948301076697,0.0,0.0,0.0,0.0,0.0,0.0,0.0,0.0,0.0,0.00032550980228456905,-0.001490029135929587,0.005030540171083101,0.0,0.0,0.0,0.0,0.0,0.0,0.0,0.0,0.0,0.006654550337567755,-0.5615182450149422,9.81010297638379,0.0,0.0,0.0,0.0,0.0,0.0,0.0,0.0,0.0
2025/04/09 09:49:57.50027505,1744184997,48774745,mA1/imu,0.7114737071634795,0.7027109335785091,0.00041817682384552796,0.0015274070902897836,0.0,0.0,0.0,0.0,0.0,0.0,0.0,0.0,0.0,0.0015930526865142048,-0.001388085768284833,0.004552348546754565,0.0,0.0,0.0,0.0,0.0,0.0,0.0,0.0,0.0,0.011271053595823827,0.2722504989878274,9.810162317456598,0.0,0.0,0.0,0.0,0.0,0.0,0.0,0.0,0.0
2025/04/09 09:49:57.104219224,1744184997,101091275,mA1/imu,0.7115534427810185,0.7026302691894245,0.0003680634922929762,0.001505793658664302,0.0,0.0,0.0,0.0,0.0,0.0,0.0,0.0,0.0,0.0024393928486975266,-0.00044061657078282206,0.004518474112495199,0.0,0.0,0.0,0.0,0.0,0.0,0.0,0.0,0.0,0.00337619372224956,0.6419813038479709,9.809570994996102,0.0,0.0,0.0,0.0,0.0,0.0,0.0,0.0,0.0
2025/04/09 09:49:57.150996084,1744184997,149734481,mA1/imu,0.7116311093951003,0.7025517573583179,0.0003155051040880113,0.0014466618012667575,0.0,0.0,0.0,0.0,0.0,0.0,0.0,0.0,0.0,0.004365988150352114,0.0005591421514825859,0.004346666808662506,0.0,0.0,0.0,0.0,0.0,0.0,0.0,0.0,0.0,0.0017111427099324224,-0.10686788756132547,9.810004047924478,0.0,0.0,0.0,0.0,0.0,0.0,0.0,0.0,0.0
2025/04/09 09:49:57.203458355,1744184997,202045922,mA1/imu,0.7117067519381676,0.7024753494489471,0.00025866551737592643,0.0013474992963320356,0.0,0.0,0.0,0.0,0.0,0.0,0.0,0.0,0.0,0.004247975221130991,0.0015520164665549618,0.004270322248933631,0.0,0.0,0.0,0.0,0.0,0.0,0.0,0.0,0.0,0.00316431415492896,0.3101258980419682,9.810086594686412,0.0,0.0,0.0,0.0,0.0,0.0,0.0,0.0,0.0
2025/04/09 09:49:57.252492920,1744184997,251817555,mA1/imu,0.7117934885542172,0.7023877512098982,0.0002166918053207552,0.00119567837688547,0.0,0.0,0.0,0.0,0.0,0.0,0.0,0.0,0.0,0.0056522764431327305,0.0038868918996461804,0.005289517967555948,0.0,0.0,0.0,0.0,0.0,0.0,0.0,0.0,0.0,-0.006501169082686135,0.001976960630600228,9.810444620954678,0.0,0.0,0.0,0.0,0.0,0.0,0.0,0.0,0.0
2025/04/09 09:49:57.305699293,1744184997,303850282,mA1/imu,0.7118868124141355,0.7022934635287095,0.0001823143887111114,0.0010120064991838026,0.0,0.0,0.0,0.0,0.0,0.0,0.0,0.0,0.0,0.005907423474654473,0.004388574587272932,0.0053748766158940005,0.0,0.0,0.0,0.0,0.0,0.0,0.0,0.0,0.0,-0.0016604862790383385,0.24559236087357705,9.809776507428332,0.0,0.0,0.0,0.0,0.0,0.0,0.0,0.0,0.0
2025/04/09 09:49:57.355677435,1744184997,353721781,mA1/imu,0.7119851914951432,0.7021939952775892,0.00014956906771151793,0.0008109974201570332,0.0,0.0,0.0,0.0,0.0,0.0,0.0,0.0,0.0,0.006792942483150786,0.004785085081949168,0.005672169409511302,0.0,0.0,0.0,0.0,0.0,0.0,0.0,0.0,0.0,0.01284250023011315,0.01300765035494368,9.80884101070516,0.0,0.0,0.0,0.0,0.0,0.0,0.0,0.0,0.0
2025/04/09 09:49:57.407175130,1744184997,406105408,mA1/imu,0.712085751032343,0.7020922265970869,0.00011813963322327754,0.0006120226106029308,0.0,0.0,0.0,0.0,0.0,0.0,0.0,0.0,0.0,0.006505640126433867,0.0045623631108930775,0.005783799857922435,0.0,0.0,0.0,0.0,0.0,0.0,0.0,0.0,0.0,0.016457536837529207,-0.6266454842496323,9.81015368667944,0.0,0.0,0.0,0.0,0.0,0.0,0.0,0.0,0.0
2025/04/09 09:49:57.446906070,1744184997,445819389,mA1/imu,0.7121898098074216,0.7019868215800944,7.313079004041571e-05,0.0004144710273814087,0.0,0.0,0.0,0.0,0.0,0.0,0.0,0.0,0.0,0.007330242320055184,0.004036558387712486,0.005988680542822258,0.0,0.0,0.0,0.0,0.0,0.0,0.0,0.0,0.0,0.016146963708970077,-0.5465216755664034,9.810381480759629,0.0,0.0,0.0,0.0,0.0,0.0,0.0,0.0,0.0
2025/04/09 09:49:57.503103045,1744184997,498457591,mA1/imu,0.7122961954675775,0.7018789560819958,3.278346240504503e-05,0.0002446567124691259,0.0,0.0,0.0,0.0,0.0,0.0,0.0,0.0,0.0,0.006141317988479635,0.003301545090068692,0.0061076667334498584,0.0,0.0,0.0,0.0,0.0,0.0,0.0,0.0,0.0,0.01686067811364108,0.04189468412468375,9.809348989553481,0.0,0.0,0.0,0.0,0.0,0.0,0.0,0.0,0.0
2025/04/09 09:49:57.550954839,1744184997,549790953,mA1/imu,0.7124046652926208,0.7017688948587077,-8.048213274383358e-06,0.00010494438123739029,0.0,0.0,0.0,0.0,0.0,0.0,0.0,0.0,0.0,0.005004417518906136,0.002373788284278693,0.006229951188932867,0.0,0.0,0.0,0.0,0.0,0.0,0.0,0.0,0.0,0.01706233607251532,0.031176528552248374,9.810259692736846,0.0,0.0,0.0,0.0,0.0,0.0,0.0,0.0,0.0
2025/04/09 09:49:57.607576940,1744184997,601371682,mA1/imu,-0.7125152176857252,-0.7016566558467004,4.263249124211431e-05,-7.399955494102545e-06,0.0,0.0,0.0,0.0,0.0,0.0,0.0,0.0,0.0,0.0026161743050123324,0.0013149472004823396,0.006350029964180085,0.0,0.0,0.0,0.0,0.0,0.0,0.0,0.0,0.0,0.01807330067435322,-0.05725764494686327,9.811830180611153,0.0,0.0,0.0,0.0,0.0,0.0,0.0,0.0,0.0
2025/04/09 09:49:57.653270450,1744184997,651286805,mA1/imu,-0.7126281854954838,-0.701541915181091,8.39846217409106e-05,5.854950563885278e-05,0.0,0.0,0.0,0.0,0.0,0.0,0.0,0.0,0.0,0.001788839417983955,0.0002493571384673555,0.006500569747837749,0.0,0.0,0.0,0.0,0.0,0.0,0.0,0.0,0.0,0.016033171450244816,-0.2731674442198824,9.8097471538311,0.0,0.0,0.0,0.0,0.0,0.0,0.0,0.0,0.0
2025/04/09 09:49:57.703586847,1744184997,702161046,mA1/imu,-0.7127434038124649,-0.7014248483320054,0.00012395262690463872,8.426144454224598e-05,0.0,0.0,0.0,0.0,0.0,0.0,0.0,0.0,0.0,0.001973735512378654,-0.0008509794375883069,0.006611222657295955,0.0,0.0,0.0,0.0,0.0,0.0,0.0,0.0,0.0,0.016253384110163582,-0.5438209401903505,9.810155247356844,0.0,0.0,0.0,0.0,0.0,0.0,0.0,0.0,0.0
2025/04/09 09:49:57.752809092,1744184997,752010043,mA1/imu,-0.7128571334257013,-0.7013092615804539,0.0001538008828536417,5.736600611866055e-05,0.0,0.0,0.0,0.0,0.0,0.0,0.0,0.0,0.0,-0.0008254696924618373,-0.0021295186782824493,0.006340512413382832,0.0,0.0,0.0,0.0,0.0,0.0,0.0,0.0,0.0,0.025160539800788542,0.525653720788491,9.811958591154635,0.0,0.0,0.0,0.0,0.0,0.0,0.0,0.0,0.0
2025/04/09 09:49:57.804200632,1744184997,803024306,mA1/imu,-0.7129659506345414,-0.7011986325516323,0.000174913567459948,-1.8674838062573837e-05,0.0,0.0,0.0,0.0,0.0,0.0,0.0,0.0,0.0,-0.003150384178759778,-0.0030281181741206556,0.0062011962670637105,0.0,0.0,0.0,0.0,0.0,0.0,0.0,0.0,0.0,0.01098886782750023,0.5632517156687988,9.810126412041013,0.0,0.0,0.0,0.0,0.0,0.0,0.0,0.0,0.0
2025/04/09 09:49:57.854797069,1744184997,852851312,mA1/imu,-0.7130770629914468,-0.7010856240755593,0.00018532068566709734,-0.0001249252537826241,0.0,0.0,0.0,0.0,0.0,0.0,0.0,0.0,0.0,-0.0029163564294045303,-0.0034409249149504615,0.006425963355700978,0.0,0.0,0.0,0.0,0.0,0.0,0.0,0.0,0.0,0.009986449799240371,-0.5863363192857322,9.808458110050129,0.0,0.0,0.0,0.0,0.0,0.0,0.0,0.0,0.0
2025/04/09 09:49:57.904672210,1744184997,903808361,mA1/imu,0.7131902919070429,0.7009704036941439,-0.00018282024259845737,0.0002593283149277146,0.0,0.0,0.0,0.0,0.0,0.0,0.0,0.0,0.0,-0.004472801647503796,-0.0038432746747560113,0.006488565608675451,0.0,0.0,0.0,0.0,0.0,0.0,0.0,0.0,0.0,0.010635336970027259,0.013761020099959151,9.810331523897265,0.0,0.0,0.0,0.0,0.0,0.0,0.0,0.0,0.0
2025/04/09 09:49:57.956543957,1744184997,953662676,mA1/imu,0.7133046377822513,0.7008539740341392,-0.00016799882815879926,0.00041542180912479697,0.0,0.0,0.0,0.0,0.0,0.0,0.0,0.0,0.0,-0.0051635307259284965,-0.003991680195451445,0.006555386190953164,0.0,0.0,0.0,0.0,0.0,0.0,0.0,0.0,0.0,0.009904763299714176,0.09444139396501194,9.809687101144606,0.0,0.0,0.0,0.0,0.0,0.0,0.0,0.0,0.0
2025/04/09 09:49:58.7196566,1744184998,6032607,mA1/imu,0.7134204943720928,0.700735920800797,-0.0001333553279681121,0.0005913761022282734,0.0,0.0,0.0,0.0,0.0,0.0,0.0,0.0,0.0,-0.005966298023315244,-0.0038328579880468074,0.0067235206786640115,0.0,0.0,0.0,0.0,0.0,0.0,0.0,0.0,0.0,-0.004031168936857638,0.02904790216662583,9.807102111460702,0.0,0.0,0.0,0.0,0.0,0.0,0.0,0.0,0.0
2025/04/09 09:49:58.48714149,1744184998,46617635,mA1/imu,0.7135430083759304,0.7006110064824557,-8.410892420127676e-05,0.0007653229100021248,0.0,0.0,0.0,0.0,0.0,0.0,0.0,0.0,0.0,-0.005555930350518306,-0.0033055246813884307,0.007104392039088303,0.0,0.0,0.0,0.0,0.0,0.0,0.0,0.0,0.0,0.010222714440779226,-0.43774833087527715,9.807646024601862,0.0,0.0,0.0,0.0,0.0,0.0,0.0,0.0,0.0
2025/04/09 09:49:58.100062456,1744184998,97238343,mA1/imu,0.7136686599377776,0.7004828043951796,-1.8992688696565065e-05,0.0009403236458568819,0.0,0.0,0.0,0.0,0.0,0.0,0.0,0.0,0.0,-0.0077074941303104235,-0.0028608656902188692,0.007229733173780497,0.0,0.0,0.0,0.0,0.0,0.0,0.0,0.0,0.0,0.009219810618873076,0.5785090083849943,9.810278657331587,0.0,0.0,0.0,0.0,0.0,0.0,0.0,0.0,0.0
2025/04/09 09:49:58.148000749,1744184998,147107582,mA1/imu,0.7137927694154131,0.7003560964811352,4.680238605237407e-05,0.001103748847504745,0.0,0.0,0.0,0.0,0.0,0.0,0.0,0.0,0.0,-0.006588822499136329,-0.0025374204457903025,0.0069990307732076045,0.0,0.0,0.0,0.0,0.0,0.0,0.0,0.0,0.0,0.01235467447004919,0.6497061516263286,9.810492153275085,0.0,0.0,0.0,0.0,0.0,0.0,0.0,0.0,0.0
2025/04/09 09:49:58.200183438,1744184998,198047625,mA1/imu,0.7139153942063835,0.7002308202442654,0.0001285006647162429,0.0012616587360588542,0.0,0.0,0.0,0.0,0.0,0.0,0.0,0.0,0.0,-0.006614441373213609,-0.0017713045942067253,0.007038209398815658,0.0,0.0,0.0,0.0,0.0,0.0,0.0,0.0,0.0,0.006157273307972059,0.4272507104984118,9.809801966129564,0.0,0.0,0.0,0.0,0.0,0.0,0.0,0.0,0.0
2025/04/09 09:49:58.250077773,1744184998,248481290,mA1/imu,0.7140395105142838,0.7001040004223381,0.00020935283560950043,0.00138643014626869,0.0,0.0,0.0,0.0,0.0,0.0,0.0,0.0,0.0,-0.0059643634012408455,-0.000789977357347766,0.00714156595227737,0.0,0.0,0.0,0.0,0.0,0.0,0.0,0.0,0.0,0.004700069571387199,0.043258571886141337,9.808490460189821,0.0,0.0,0.0,0.0,0.0,0.0,0.0,0.0,0.0
2025/04/09 09:49:58.302995513,1744184998,299440631,mA1/imu,0.714165007194027,0.6999757616384247,0.0002929615587922938,0.0014797945086439273,0.0,0.0,0.0,0.0,0.0,0.0,0.0,0.0,0.0,-0.004340009801756261,0.00014417845376450626,0.007206414527816344,0.0,0.0,0.0,0.0,0.0,0.0,0.0,0.0,0.0,0.006258165706016065,0.02586777828694496,9.80850345157701,0.0,0.0,0.0,0.0,0.0,0.0,0.0,0.0,0.0
2025/04/09 09:49:58.350276423,1744184998,349217478,mA1/imu,0.7142916354474376,0.6998463818074887,0.0003737326069300881,0.0015367903989272004,0.0,0.0,0.0,0.0,0.0,0.0,0.0,0.0,0.0,-0.0034361140632616,0.0010647329882299368,0.007271089135895971,0.0,0.0,0.0,0.0,0.0,0.0,0.0,0.0,0.0,0.0066331706476798775,0.005588848441318007,9.810265373558968,0.0,0.0,0.0,0.0,0.0,0.0,0.0,0.0,0.0
2025/04/09 09:49:58.402989822,1744184998,400229583,mA1/imu,0.7144194019600384,0.6997158676940662,0.00044816445798540885,0.0015561969089498383,0.0,0.0,0.0,0.0,0.0,0.0,0.0,0.0,0.0,-0.002083461456637749,0.0018982128777721272,0.0073445514021931715,0.0,0.0,0.0,0.0,0.0,0.0,0.0,0.0,0.0,0.007459939899734494,0.007994160431526495,9.810193488820648,0.0,0.0,0.0,0.0,0.0,0.0,0.0,0.0,0.0
2025/04/09 09:49:58.451985132,1744184998,450034837,mA1/imu,0.714551822945112,0.6995806392419197,0.0005138234080351324,0.001535418245728421,0.0,0.0,0.0,0.0,0.0,0.0,0.0,0.0,0.0,-0.0006632750379522641,0.002787664776055518,0.007746099610205211,0.0,0.0,0.0,0.0,0.0,0.0,0.0,0.0,0.0,0.005152104096047909,0.009395973235670301,9.812090828634764,0.0,0.0,0.0,0.0,0.0,0.0,0.0,0.0,0.0
2025/04/09 09:49:58.504186437,1744184998,501105143,mA1/imu,0.7146896687588591,0.6994399064039447,0.0005628273098128095,0.0014757792560480363,0.0,0.0,0.0,0.0,0.0,0.0,0.0,0.0,0.0,0.0009045869603332276,0.0032092104663095323,0.00795722045572526,0.0,0.0,0.0,0.0,0.0,0.0,0.0,0.0,0.0,0.012501249284784195,0.015549038567266901,9.811743008135037,0.0,0.0,0.0,0.0,0.0,0.0,0.0,0.0,0.0
2025/04/09 09:49:58.552163680,1744184998,550911428,mA1/imu,0.7148328325635351,0.6992937437350475,0.0005978839055741556,0.001387082207345773,0.0,0.0,0.0,0.0,0.0,0.0,0.0,0.0,0.0,0.0019087148155917573,0.0035918368500829734,0.008337064394313864,0.0,0.0,0.0,0.0,0.0,0.0,0.0,0.0,0.0,0.012333991124566535,-0.008919275595309813,9.8085618503313,0.0,0.0,0.0,0.0,0.0,0.0,0.0,0.0,0.0
2025/04/09 09:49:58.604459467,1744184998,602031267,mA1/imu,0.7149806941289815,0.6991427818477071,0.0006069248048970193,0.0012685642949022962,0.0,0.0,0.0,0.0,0.0,0.0,0.0,0.0,0.0,0.004167915097099366,0.003523192774810915,0.00853481267807176,0.0,0.0,0.0,0.0,0.0,0.0,0.0,0.0,0.0,0.015293337949564643,0.06016139400858557,9.810071095186428,0.0,0.0,0.0,0.0,0.0,0.0,0.0,0.0,0.0
2025/04/09 09:49:58.653971305,1744184998,651849088,mA1/imu,0.7151320611341755,0.6989881864917813,0.0005971938531937574,0.0011373840240586721,0.0,0.0,0.0,0.0,0.0,0.0,0.0,0.0,0.0,0.0060096527601078585,0.0032487962588745385,0.00873775074168838,0.0,0.0,0.0,0.0,0.0,0.0,0.0,0.0,0.0,0.01562993966549477,-0.4304854025152514,9.810817717535825,0.0,0.0,0.0,0.0,0.0,0.0,0.0,0.0,0.0
2025/04/09 09:49:58.706246315,1744184998,702871398,mA1/imu,0.7152868908697766,0.6988299819507545,0.0005676656721881335,0.0009989155325227914,0.0,0.0,0.0,0.0,0.0,0.0,0.0,0.0,0.0,0.006302439650767133,0.002813676694826384,0.008935695113540648,0.0,0.0,0.0,0.0,0.0,0.0,0.0,0.0,0.0,0.016552054367668576,-0.5584471788901552,9.8102846835029,0.0,0.0,0.0,0.0,0.0,0.0,0.0,0.0,0.0
2025/04/09 09:49:58.753622376,1744184998,752746081,mA1/imu,0.7154437940633435,0.698669582148319,0.0005143010695143396,0.0008532358121320232,0.0,0.0,0.0,0.0,0.0,0.0,0.0,0.0,0.0,0.00611825203574704,0.0023242590326274055,0.009002169572985346,0.0,0.0,0.0,0.0,0.0,0.0,0.0,0.0,0.0,0.014146251218248593,-0.48247736028608385,9.811708273001873,0.0,0.0,0.0,0.0,0.0,0.0,0.0,0.0,0.0
2025/04/09 09:49:58.804963668,1744184998,804255120,mA1/imu,0.7156027643516736,0.6985069693116392,0.0004414759323443344,0.0007089247581653787,0.0,0.0,0.0,0.0,0.0,0.0,0.0,0.0,0.0,0.005584622493392506,0.0016644843666402476,0.009156080576601677,0.0,0.0,0.0,0.0,0.0,0.0,0.0,0.0,0.0,0.01584154207292415,-0.08052858133280454,9.811765404373391,0.0,0.0,0.0,0.0,0.0,0.0,0.0,0.0,0.0
2025/04/09 09:49:58.855884155,1744184998,854108393,mA1/imu,0.7157639205667614,0.6983420086336165,0.0003494434929943163,0.0005717356990317305,0.0,0.0,0.0,0.0,0.0,0.0,0.0,0.0,0.0,0.005263777677508073,0.0008899118410465892,0.009270020046891097,0.0,0.0,0.0,0.0,0.0,0.0,0.0,0.0,0.0,0.015464300653337669,0.5616804389816905,9.810132672015213,0.0,0.0,0.0,0.0,0.0,0.0,0.0,0.0,0.0
2025/04/09 09:49:58.905931857,1744184998,905104883,mA1/imu,0.7159269164500015,0.6981750380511307,0.00024750130916817946,0.00045308696384537217,0.0,0.0,0.0,0.0,0.0,0.0,0.0,0.0,0.0,0.005422580500103986,3.0486952919129597e-05,0.00930420556074311,0.0,0.0,0.0,0.0,0.0,0.0,0.0,0.0,0.0,0.025882811401399138,0.4005031613038113,9.808392372635309,0.0,0.0,0.0,0.0,0.0,0.0,0.0,0.0,0.0
2025/04/09 09:49:58.956336786,1744184998,955003773,mA1/imu,0.7160860205629636,0.698011940080099,0.00013123249046067214,0.00035417220174297035,0.0,0.0,0.0,0.0,0.0,0.0,0.0,0.0,0.0,0.006250714619760646,-0.0008653327602412681,0.009031529698510751,0.0,0.0,0.0,0.0,0.0,0.0,0.0,0.0,0.0,0.010561348918333635,0.050742584398690505,9.812170884441093,0.0,0.0,0.0,0.0,0.0,0.0,0.0,0.0,0.0
2025/04/09 09:49:59.6713333,1744184999,5874894,mA1/imu,0.7162428978589933,0.6978510057308156,2.8316022328760766e-05,0.0002902847633806572,0.0,0.0,0.0,0.0,0.0,0.0,0.0,0.0,0.0,0.006468607814494269,-0.001400649006971452,0.0090019757420278,0.0,0.0,0.0,0.0,0.0,0.0,0.0,0.0,0.0,0.009337203062565882,-0.5006234447760743,9.809724010367837,0.0,0.0,0.0,0.0,0.0,0.0,0.0,0.0,0.0
2025/04/09 09:49:59.47043339,1744184999,45932995,mA1/imu,0.7164004849574512,0.6976892414793757,-6.917010855384102e-05,0.00025038402184440365,0.0,0.0,0.0,0.0,0.0,0.0,0.0,0.0,0.0,0.004120509403059928,-0.0018862737459874944,0.009053043597528187,0.0,0.0,0.0,0.0,0.0,0.0,0.0,0.0,0.0,0.010326868596697493,-0.5971685796719461,9.809214583971722,0.0,0.0,0.0,0.0,0.0,0.0,0.0,0.0,0.0
2025/04/09 09:49:59.102699506,1744184999,96857048,mA1/imu,0.7165589149420905,0.6975265170234767,-0.00015948204973618464,0.00023244695571738948,0.0,0.0,0.0,0.0,0.0,0.0,0.0,0.0,0.0,0.0011309514868958564,-0.0022184082576600637,0.009103199285058245,0.0,0.0,0.0,0.0,0.0,0.0,0.0,0.0,0.0,0.00981491409546115,-0.09325829061187821,9.810183034127968,0.0,0.0,0.0,0.0,0.0,0.0,0.0,0.0,0.0
2025/04/09 09:49:59.147929086,1744184999,146691751,mA1/imu,0.7167181969404557,0.6973628276121885,-0.0002335581608726273,0.0002414326838260856,0.0,0.0,0.0,0.0,0.0,0.0,0.0,0.0,0.0,-0.0008094814303387288,-0.002433454106077711,0.009155090017684189,0.0,0.0,0.0,0.0,0.0,0.0,0.0,0.0,0.0,0.008223445656791326,0.49266614439713236,9.809902555829652,0.0,0.0,0.0,0.0,0.0,0.0,0.0,0.0,0.0
2025/04/09 09:49:59.199830109,1744184999,197635583,mA1/imu,-0.7168783474127476,-0.6971981610888753,0.0002931393319176103,-0.0002706554834692094,0.0,0.0,0.0,0.0,0.0,0.0,0.0,0.0,0.0,-0.00032198221861235213,-0.002529120660567053,0.009215365167050335,0.0,0.0,0.0,0.0,0.0,0.0,0.0,0.0,0.0,0.007380833778585694,-0.014378783234395396,9.810131237338176,0.0,0.0,0.0,0.0,0.0,0.0,0.0,0.0,0.0
2025/04/09 09:49:59.249044765,1744184999,247508766,mA1/imu,0.7170423112700445,0.6970294929680668,-0.0003224913494526445,0.0003252391762006838,0.0,0.0,0.0,0.0,0.0,0.0,0.0,0.0,0.0,-0.0006109554809656683,-0.0022316510017290664,0.009562500082630956,0.0,0.0,0.0,0.0,0.0,0.0,0.0,0.0,0.0,0.003356812415255187,-0.5687108175559634,9.808366537700154,0.0,0.0,0.0,0.0,0.0,0.0,0.0,0.0,0.0
2025/04/09 09:49:59.300137725,1744184999,298465884,mA1/imu,0.7172111694279849,0.6968557044640493,-0.00032514037431231185,0.00039985921652141475,0.0,0.0,0.0,0.0,0.0,0.0,0.0,0.0,0.0,-0.0026018622408987223,-0.00210518410443637,0.009752396570629087,0.0,0.0,0.0,0.0,0.0,0.0,0.0,0.0,0.0,0.010163935365325026,0.10914569185373803,9.809532640488658,0.0,0.0,0.0,0.0,0.0,0.0,0.0,0.0,0.0
2025/04/09 09:49:59.351554849,1744184999,348314721,mA1/imu,0.717379193093213,0.6966826790253249,-0.00030492773750325777,0.0004950576752988172,0.0,0.0,0.0,0.0,0.0,0.0,0.0,0.0,0.0,-0.0033024704160731478,-0.0020136230812527094,0.009550441656582037,0.0,0.0,0.0,0.0,0.0,0.0,0.0,0.0,0.0,0.009813215844702208,-0.3938115093866924,9.808247345021298,0.0,0.0,0.0,0.0,0.0,0.0,0.0,0.0,0.0
2025/04/09 09:49:59.402725256,1744184999,399342663,mA1/imu,0.7175447879872963,0.6965120547721828,-0.0002546469448090861,0.0006082304099406242,0.0,0.0,0.0,0.0,0.0,0.0,0.0,0.0,0.0,-0.0057508967180475165,-0.00152142536714906,0.009532740906682234,0.0,0.0,0.0,0.0,0.0,0.0,0.0,0.0,0.0,0.005952421439853722,-0.06467483444253785,9.810216828259316,0.0,0.0,0.0,0.0,0.0,0.0,0.0,0.0,0.0
2025/04/09 09:49:59.450852118,1744184999,449135655,mA1/imu,0.7177144789094022,0.6963371154300237,-0.00018632036488574067,0.0007167448087260543,0.0,0.0,0.0,0.0,0.0,0.0,0.0,0.0,0.0,-0.005971478385259876,-0.0007034062936230958,0.009949018781230085,0.0,0.0,0.0,0.0,0.0,0.0,0.0,0.0,0.0,-0.0048535318062875605,-0.2988574563756259,9.807972644483442,0.0,0.0,0.0,0.0,0.0,0.0,0.0,0.0,0.0
2025/04/09 09:49:59.504284928,1744184999,501674696,mA1/imu,0.7178914464215089,0.6961545681913104,-9.18968105238214e-05,0.0008245581726779254,0.0,0.0,0.0,0.0,0.0,0.0,0.0,0.0,0.0,-0.0061013518595101415,-9.693292860488687e-05,0.010250470463921873,0.0,0.0,0.0,0.0,0.0,0.0,0.0,0.0,0.0,0.009380893730313433,-0.1845077577664523,9.80912504832362,0.0,0.0,0.0,0.0,0.0,0.0,0.0,0.0,0.0
2025/04/09 09:49:59.552751659,1744184999,551486275,mA1/imu,0.718072062376778,0.6959681432776268,1.178194782430964e-05,0.000925547318567567,0.0,0.0,0.0,0.0,0.0,0.0,0.0,0.0,0.0,-0.006719650788033178,0.00034236800917908345,0.010482471616862613,0.0,0.0,0.0,0.0,0.0,0.0,0.0,0.0,0.0,0.010847647617796113,0.6014465620896707,9.807313891136667,0.0,0.0,0.0,0.0,0.0,0.0,0.0,0.0,0.0
2025/04/09 09:49:59.604597245,1744184999,602456984,mA1/imu,0.7182561932452367,0.6957779574706427,0.0001307150789320518,0.0010284339597409673,0.0,0.0,0.0,0.0,0.0,0.0,0.0,0.0,0.0,-0.005215659503276228,0.000685076328606607,0.010665024552614848,0.0,0.0,0.0,0.0,0.0,0.0,0.0,0.0,0.0,0.010533299428033823,0.07408881481871869,9.808636303127072,0.0,0.0,0.0,0.0,0.0,0.0,0.0,0.0,0.0
2025/04/09 09:49:59.654278086,1744184999,652443274,mA1/imu,0.7184420513085084,0.6955858638637906,0.000253621510592683,0.0011227558131478212,0.0,0.0,0.0,0.0,0.0,0.0,0.0,0.0,0.0,-0.005317922149413289,0.001026626901356066,0.010711484165426185,0.0,0.0,0.0,0.0,0.0,0.0,0.0,0.0,0.0,0.009411800844861287,0.04169431576959405,9.811503446518257,0.0,0.0,0.0,0.0,0.0,0.0,0.0,0.0,0.0
2025/04/09 09:49:59.705245674,1744184999,703444022,mA1/imu,0.7186295245384545,0.6953919807565228,0.0003781099411601556,0.0012068943727795935,0.0,0.0,0.0,0.0,0.0,0.0,0.0,0.0,0.0,-0.004518576015404237,0.001329125635297852,0.010846585997986777,0.0,0.0,0.0,0.0,0.0,0.0,0.0,0.0,0.0,0.009773306715613697,-0.5663903481093466,9.81039619889797,0.0,0.0,0.0,0.0,0.0,0.0,0.0,0.0,0.0
2025/04/09 09:49:59.757015633,1744184999,755106995,mA1/imu,0.7188188514553345,0.6951960924388513,0.0004899385491573424,0.0012695709526394157,0.0,0.0,0.0,0.0,0.0,0.0,0.0,0.0,0.0,-0.005101669533820711,0.001526159985716261,0.010938120305238044,0.0,0.0,0.0,0.0,0.0,0.0,0.0,0.0,0.0,0.011280306441761296,-0.03358780506586865,9.808912010136915,0.0,0.0,0.0,0.0,0.0,0.0,0.0,0.0,0.0
2025/04/09 09:49:59.807198830,1744184999,806039965,mA1/imu,0.7190105462623106,0.6949976734331551,0.000588581468237688,0.0013121958429103912,0.0,0.0,0.0,0.0,0.0,0.0,0.0,0.0,0.0,-0.00523862622755384,0.001757123269574908,0.011178699994494308,0.0,0.0,0.0,0.0,0.0,0.0,0.0,0.0,0.0,-0.003706649495803906,0.27996712525252543,9.808865804395632,0.0,0.0,0.0,0.0,0.0,0.0,0.0,0.0,0.0
2025/04/09 09:49:59.848426332,1744184999,846501292,mA1/imu,0.7192114059459612,0.6947897201187896,0.0006690032987525519,0.0013231814213703918,0.0,0.0,0.0,0.0,0.0,0.0,0.0,0.0,0.0,-0.002664723790959082,0.0022082501304067047,0.011837916549572853,0.0,0.0,0.0,0.0,0.0,0.0,0.0,0.0,0.0,-0.004645493222024826,0.6179982987627746,9.813079069323628,0.0,0.0,0.0,0.0,0.0,0.0,0.0,0.0,0.0
2025/04/09 09:49:59.897402850,1744184999,896717095,mA1/imu,0.7194220718738001,0.694571531655394,0.0007380236895554388,0.0013134822887002923,0.0,0.0,0.0,0.0,0.0,0.0,0.0,0.0,0.0,0.0002410971378007756,0.0021797932127827126,0.012269259222344833,0.0,0.0,0.0,0.0,0.0,0.0,0.0,0.0,0.0,0.013126491381485363,0.10344185856564736,9.811817554919848,0.0,0.0,0.0,0.0,0.0,0.0,0.0,0.0,0.0
2025/04/09 09:49:59.947926565,1744184999,946601599,mA1/imu,0.7196375207696936,0.6943482929408147,0.0007867235508320924,0.001291455256738011,0.0,0.0,0.0,0.0,0.0,0.0,0.0,0.0,0.0,0.0017821258316070474,0.0018187077892785205,0.012505761214462407,0.0,0.0,0.0,0.0,0.0,0.0,0.0,0.0,0.0,0.01570055115352436,-0.5132144941836044,9.811630558134706,0.0,0.0,0.0,0.0,0.0,0.0,0.0,0.0,0.0
2025/04/09 09:50:00.3590034,1744184999,997597772,mA1/imu,0.7198569126307719,0.6941208829767115,0.0008069359195914925,0.0012545946537307299,0.0,0.0,0.0,0.0,0.0,0.0,0.0,0.0,0.0,0.0016137020339571837,0.0013856100327162362,0.012731135948536145,0.0,0.0,0.0,0.0,0.0,0.0,0.0,0.0,0.0,0.015858542626623114,-0.6103674701031134,9.811933616340813,0.0,0.0,0.0,0.0,0.0,0.0,0.0,0.0,0.0
2025/04/09 09:50:00.48083487,1744185000,47349262,mA1/imu,0.7200800902728796,0.6938894711338082,0.0007920236070334126,0.0011992251045526107,0.0,0.0,0.0,0.0,0.0,0.0,0.0,0.0,0.0,0.0010959257429887475,0.0008862897824457209,0.012946795059395607,0.0,0.0,0.0,0.0,0.0,0.0,0.0,0.0,0.0,0.01526621742964026,-0.09671108200021962,9.811215701145482,0.0,0.0,0.0,0.0,0.0,0.0,0.0,0.0,0.0
2025/04/09 09:50:00.100624984,1744185000,98306806,mA1/imu,0.7203069211111217,0.6936541777516948,0.0007419564138566167,0.0011272034938009155,0.0,0.0,0.0,0.0,0.0,0.0,0.0,0.0,0.0,0.0018859175159675328,0.0003228714652854584,0.013152427147452845,0.0,0.0,0.0,0.0,0.0,0.0,0.0,0.0,0.0,0.017207847443945934,0.5114870641074633,9.811254186870357,0.0,0.0,0.0,0.0,0.0,0.0,0.0,0.0,0.0
2025/04/09 09:50:00.149333049,1744185000,148121171,mA1/imu,0.7205366323259972,0.6934157657934381,0.0006628728096418396,0.0010477714678989677,0.0,0.0,0.0,0.0,0.0,0.0,0.0,0.0,0.0,0.004231558254891776,-0.00033345632488720767,0.013299086574621694,0.0,0.0,0.0,0.0,0.0,0.0,0.0,0.0,0.0,0.01660077829846835,0.6130277594851335,9.811888175649674,0.0,0.0,0.0,0.0,0.0,0.0,0.0,0.0,0.0
2025/04/09 09:50:00.200997966,1744185000,199317756,mA1/imu,0.720769114036041,0.6931743100166656,0.0005645799168662981,0.0009702752895115114,0.0,0.0,0.0,0.0,0.0,0.0,0.0,0.0,0.0,0.006595473123351786,-0.0009304167734480158,0.013472168745133677,0.0,0.0,0.0,0.0,0.0,0.0,0.0,0.0,0.0,0.015255586274476405,0.10041944396836089,9.81110674235545,0.0,0.0,0.0,0.0,0.0,0.0,0.0,0.0,0.0
2025/04/09 09:50:00.250360417,1744185000,248911531,mA1/imu,0.7210038623637045,0.6929303118034463,0.0004525085446682582,0.0008992644862334769,0.0,0.0,0.0,0.0,0.0,0.0,0.0,0.0,0.0,0.007299134750992117,-0.0015265734676873702,0.013587391316022311,0.0,0.0,0.0,0.0,0.0,0.0,0.0,0.0,0.0,0.01696479630986217,-0.5154100937514142,9.810862439517761,0.0,0.0,0.0,0.0,0.0,0.0,0.0,0.0,0.0
2025/04/09 09:50:00.304099989,1744185000,300534774,mA1/imu,0.7212408378352411,0.692683804676601,0.0003279995565117748,0.000832462467077682,0.0,0.0,0.0,0.0,0.0,0.0,0.0,0.0,0.0,0.006035964010973471,-0.0019187538091643913,0.013731483904656602,0.0,0.0,0.0,0.0,0.0,0.0,0.0,0.0,0.0,0.014111215626505538,-0.6134412953537589,9.810529184849353,0.0,0.0,0.0,0.0,0.0,0.0,0.0,0.0,0.0
2025/04/09 09:50:00.351581971,1744185000,350363212,mA1/imu,0.7214772384596714,0.6924377013334287,0.00019146231367493243,0.0007664847461742115,0.0,0.0,0.0,0.0,0.0,0.0,0.0,0.0,0.0,0.004250932152467446,-0.0022257389066346,0.013603206834169355,0.0,0.0,0.0,0.0,0.0,0.0,0.0,0.0,0.0,0.013188039725076914,-0.10071302141897553,9.80929513897733,0.0,0.0,0.0,0.0,0.0,0.0,0.0,0.0,0.0
2025/04/09 09:50:00.404449747,1744185000,401744715,mA1/imu,0.7217138441739617,0.6921911836940031,4.891552523834502e-05,0.00069996514834804,0.0,0.0,0.0,0.0,0.0,0.0,0.0,0.0,0.0,0.004087895319702125,-0.002286630742964077,0.013697529748269956,0.0,0.0,0.0,0.0,0.0,0.0,0.0,0.0,0.0,0.013732624677350388,0.34398050600732494,9.809012085606009,0.0,0.0,0.0,0.0,0.0,0.0,0.0,0.0,0.0
2025/04/09 09:50:00.452655549,1744185000,451650639,mA1/imu,0.7219515162633914,0.6919433379697039,-8.217248214115598e-05,0.0006468786729443796,0.0,0.0,0.0,0.0,0.0,0.0,0.0,0.0,0.0,0.004533657950384995,-0.0023076090494387426,0.01375312749109848,0.0,0.0,0.0,0.0,0.0,0.0,0.0,0.0,0.0,0.012661100621317822,0.32385921552235025,9.809174896837787,0.0,0.0,0.0,0.0,0.0,0.0,0.0,0.0,0.0
2025/04/09 09:50:00.505917364,1744185000,504876065,mA1/imu,0.7221900289144972,0.6916944075040171,-0.00019630345789145527,0.0006084645404178538,0.0,0.0,0.0,0.0,0.0,0.0,0.0,0.0,0.0,0.003966100744829939,-0.002173945436682963,0.01380494882490053,0.0,0.0,0.0,0.0,0.0,0.0,0.0,0.0,0.0,0.0125704295848297,0.0003077070436208829,9.8075491026478,0.0,0.0,0.0,0.0,0.0,0.0,0.0,0.0,0.0
2025/04/09 09:50:00.553634498,1744185000,552662553,mA1/imu,0.72242868403425,0.6914451339644756,-0.0002953307782552493,0.0005796387855383936,0.0,0.0,0.0,0.0,0.0,0.0,0.0,0.0,0.0,0.0034306565205850332,-0.001979008878659808,0.013800709694477524,0.0,0.0,0.0,0.0,0.0,0.0,0.0,0.0,0.0,0.01324536947925148,0.02917116981591212,9.810133394632272,0.0,0.0,0.0,0.0,0.0,0.0,0.0,0.0,0.0
2025/04/09 09:50:00.607424462,1744185000,603639693,mA1/imu,0.7226674638673128,0.6911955432363945,-0.0003667002491573905,0.0005685144315812918,0.0,0.0,0.0,0.0,0.0,0.0,0.0,0.0,0.0,0.0010953805210601353,-0.0015854740529081721,0.013825613076176855,0.0,0.0,0.0,0.0,0.0,0.0,0.0,0.0,0.0,0.009455323018931414,0.5771081915182602,9.807577782387149,0.0,0.0,0.0,0.0,0.0,0.0,0.0,0.0,0.0
2025/04/09 09:50:00.658548122,1744185000,655858029,mA1/imu,0.7229039250759693,0.6909482032889509,-0.0004090177615765449,0.0005728752032344478,0.0,0.0,0.0,0.0,0.0,0.0,0.0,0.0,0.0,0.0006680931354520039,-0.0011535705567850157,0.013568855831126582,0.0,0.0,0.0,0.0,0.0,0.0,0.0,0.0,0.0,0.008326453185987775,-0.002158079417800901,9.807892928943343,0.0,0.0,0.0,0.0,0.0,0.0,0.0,0.0,0.0
2025/04/09 09:50:00.699868982,1744185000,696653703,mA1/imu,0.7231369274637224,0.6907043238193292,-0.00041890130874820463,0.0005879772986494087,0.0,0.0,0.0,0.0,0.0,0.0,0.0,0.0,0.0,-0.0017415855701958167,-0.00041058890486505456,0.013466518458487354,0.0,0.0,0.0,0.0,0.0,0.0,0.0,0.0,0.0,0.0070803442632219726,0.5512166319367889,9.809021582183036,0.0,0.0,0.0,0.0,0.0,0.0,0.0,0.0,0.0
2025/04/09 09:50:00.747961014,1744185000,746581019,mA1/imu,0.7233683413524229,0.690461955922872,-0.0003992076643959924,0.0006089215444953223,0.0,0.0,0.0,0.0,0.0,0.0,0.0,0.0,0.0,-0.001302173777827287,0.00025666983067470687,0.013364765877849549,0.0,0.0,0.0,0.0,0.0,0.0,0.0,0.0,0.0,0.006762461299958621,-0.5617213935893781,9.80767712082913,0.0,0.0,0.0,0.0,0.0,0.0,0.0,0.0,0.0
2025/04/09 09:50:00.798836075,1744185000,797592702,mA1/imu,0.7235982031552413,0.6902210604358132,-0.0003485647486306745,0.0006376707486622861,0.0,0.0,0.0,0.0,0.0,0.0,0.0,0.0,0.0,-0.0018242178778905731,0.0009262254478992021,0.013286124097257703,0.0,0.0,0.0,0.0,0.0,0.0,0.0,0.0,0.0,0.008846293099969087,-0.1943463451540557,9.80823192482245,0.0,0.0,0.0,0.0,0.0,0.0,0.0,0.0,0.0
2025/04/09 09:50:00.848306102,1744185000,847408704,mA1/imu,0.72382487381005,0.6899833473069606,-0.0002627700993179167,0.0006807678181708609,0.0,0.0,0.0,0.0,0.0,0.0,0.0,0.0,0.0,-0.005448466999984673,0.0015597422230105278,0.013040807657328953,0.0,0.0,0.0,0.0,0.0,0.0,0.0,0.0,0.0,0.0057077106194568464,0.5159291330818212,9.808773010913,0.0,0.0,0.0,0.0,0.0,0.0,0.0,0.0,0.0
2025/04/09 09:50:00.900924013,1744185000,898426109,mA1/imu,0.7240481485496754,0.6897490381579268,-0.00016288135897112054,0.0007186178854047792,0.0,0.0,0.0,0.0,0.0,0.0,0.0,0.0,0.0,-0.004616624367965722,0.0020381949465710955,0.012881251402949925,0.0,0.0,0.0,0.0,0.0,0.0,0.0,0.0,0.0,0.010110911731863357,0.14784145306329072,9.80886526351142,0.0,0.0,0.0,0.0,0.0,0.0,0.0,0.0,0.0
2025/04/09 09:50:00.951348779,1744185000,948256659,mA1/imu,0.724268784310421,0.6895173124540291,-3.341744620513761e-05,0.0007763909788234815,0.0,0.0,0.0,0.0,0.0,0.0,0.0,0.0,0.0,-0.006203498226625294,0.0022196013381114606,0.012753419710882884,0.0,0.0,0.0,0.0,0.0,0.0,0.0,0.0,0.0,0.012902480650092899,0.31399039643107035,9.809733711191742,0.0,0.0,0.0,0.0,0.0,0.0,0.0,0.0,0.0
2025/04/09 09:50:01.2788702,1744185000,999273779,mA1/imu,0.7244868501308714,0.6892881101197057,0.00010045618211261352,0.0008337527258634723,0.0,0.0,0.0,0.0,0.0,0.0,0.0,0.0,0.0,-0.006893850889123692,0.0023297821233896044,0.012593876013400422,0.0,0.0,0.0,0.0,0.0,0.0,0.0,0.0,0.0,0.013779297754029557,0.040806019155126105,9.811350243232415,0.0,0.0,0.0,0.0,0.0,0.0,0.0,0.0,0.0
2025/04/09 09:50:01.50604820,1744185001,49091604,mA1/imu,0.7246996610052455,0.6890642729193129,0.00022538058482144834,0.000882229365250591,0.0,0.0,0.0,0.0,0.0,0.0,0.0,0.0,0.0,-0.0047310523142524395,0.002282675401187642,0.0122030254345068,0.0,0.0,0.0,0.0,0.0,0.0,0.0,0.0,0.0,0.009745366626381357,0.05231008021291007,9.809021133570427,0.0,0.0,0.0,0.0,0.0,0.0,0.0,0.0,0.0
2025/04/09 09:50:01.103478894,1744185001,102331601,mA1/imu,0.7249075560661757,0.6888454156513196,0.0003643373231696724,0.0009464420954123938,0.0,0.0,0.0,0.0,0.0,0.0,0.0,0.0,0.0,-0.005272878080342134,0.0021789130791901347,0.011986592367443446,0.0,0.0,0.0,0.0,0.0,0.0,0.0,0.0,0.0,0.015302388955697537,0.0031389923949728636,9.810765641559499,0.0,0.0,0.0,0.0,0.0,0.0,0.0,0.0,0.0
2025/04/09 09:50:01.153699835,1744185001,152183476,mA1/imu,0.7251110178858354,0.6886310958085334,0.00048151783146023594,0.00099687846997204,0.0,0.0,0.0,0.0,0.0,0.0,0.0,0.0,0.0,-0.004357370046541402,0.001868754715820029,0.011718395971707209,0.0,0.0,0.0,0.0,0.0,0.0,0.0,0.0,0.0,0.014860194564174284,0.03531153378193708,9.812427512137521,0.0,0.0,0.0,0.0,0.0,0.0,0.0,0.0,0.0
2025/04/09 09:50:01.203817711,1744185001,203121483,mA1/imu,0.7253097509088617,0.68842160914941,0.0005895367002558757,0.0010515413169453268,0.0,0.0,0.0,0.0,0.0,0.0,0.0,0.0,0.0,-0.0043433950795072835,0.001429886758337578,0.011440013707150299,0.0,0.0,0.0,0.0,0.0,0.0,0.0,0.0,0.0,0.01645191178543766,0.6205858592567188,9.81250329847126,0.0,0.0,0.0,0.0,0.0,0.0,0.0,0.0,0.0
2025/04/09 09:50:01.254411963,1744185001,252927691,mA1/imu,0.7255030330586222,0.6882177578691077,0.0006740667183004477,0.001101095099140505,0.0,0.0,0.0,0.0,0.0,0.0,0.0,0.0,0.0,-0.003442634627746608,0.0008415941210053619,0.011105039552365375,0.0,0.0,0.0,0.0,0.0,0.0,0.0,0.0,0.0,0.016877198153789956,0.23529761189346196,9.811594687748338,0.0,0.0,0.0,0.0,0.0,0.0,0.0,0.0,0.0
2025/04/09 09:50:01.305150872,1744185001,303882441,mA1/imu,0.7256908853644151,0.6880195500737204,0.0007299913393752253,0.0011422469133636516,0.0,0.0,0.0,0.0,0.0,0.0,0.0,0.0,0.0,-0.0003803703343832394,0.00022572819333955185,0.010799588712890244,0.0,0.0,0.0,0.0,0.0,0.0,0.0,0.0,0.0,0.016378416657477576,-0.49053502214462197,9.810048468258344,0.0,0.0,0.0,0.0,0.0,0.0,0.0,0.0,0.0
2025/04/09 09:50:01.354786956,1744185001,353668353,mA1/imu,0.7258731923088988,0.6878271178315786,0.000759705764228742,0.001177926119917943,0.0,0.0,0.0,0.0,0.0,0.0,0.0,0.0,0.0,-0.0004155907993180606,-0.0003879460767373054,0.010473330268419574,0.0,0.0,0.0,0.0,0.0,0.0,0.0,0.0,0.0,0.016946399963579103,-0.45037104277220424,9.812500654649966,0.0,0.0,0.0,0.0,0.0,0.0,0.0,0.0,0.0
2025/04/09 09:50:01.406405838,1744185001,404796096,mA1/imu,0.7260499288574167,0.6876405246456792,0.0007558661992319098,0.001199307068262912,0.0,0.0,0.0,0.0,0.0,0.0,0.0,0.0,0.0,0.0006490222720805356,-0.0009343390324467786,0.010153706627521674,0.0,0.0,0.0,0.0,0.0,0.0,0.0,0.0,0.0,0.014961596070299439,-0.5466164140091194,9.812592088549257,0.0,0.0,0.0,0.0,0.0,0.0,0.0,0.0,0.0
2025/04/09 09:50:01.456406883,1744185001,454529782,mA1/imu,0.7262191906796321,0.687461763424619,0.000729255794557004,0.0012161840811751147,0.0,0.0,0.0,0.0,0.0,0.0,0.0,0.0,0.0,0.0005740186806698816,-0.0014651685990936171,0.009638087293060458,0.0,0.0,0.0,0.0,0.0,0.0,0.0,0.0,0.0,0.015880675054259427,-0.19789586769336937,9.809490514919661,0.0,0.0,0.0,0.0,0.0,0.0,0.0,0.0,0.0
2025/04/09 09:50:01.507593172,1744185001,505536044,mA1/imu,0.726381529904036,0.6872903030666602,0.0006678778566808516,0.0012108938760529942,0.0,0.0,0.0,0.0,0.0,0.0,0.0,0.0,0.0,0.0017902553066906843,-0.001773651779509196,0.009326841388145294,0.0,0.0,0.0,0.0,0.0,0.0,0.0,0.0,0.0,0.0135382360169565,-0.354893059957207,9.810234349975056,0.0,0.0,0.0,0.0,0.0,0.0,0.0,0.0,0.0
2025/04/09 09:50:01.556238164,1744185001,555289697,mA1/imu,0.7265396858634666,0.6871232281251636,0.0005814628459423631,0.0011900156419977178,0.0,0.0,0.0,0.0,0.0,0.0,0.0,0.0,0.0,0.0028706990531171196,-0.002055504733580826,0.009089623893959783,0.0,0.0,0.0,0.0,0.0,0.0,0.0,0.0,0.0,0.01478428347302525,-0.028102716901284963,9.811226024266302,0.0,0.0,0.0,0.0,0.0,0.0,0.0,0.0,0.0
2025/04/09 09:50:01.607824235,1744185001,606346720,mA1/imu,0.7266926907575892,0.6869615398887744,0.00047950768937382615,0.0011601661580006454,0.0,0.0,0.0,0.0,0.0,0.0,0.0,0.0,0.0,0.002983623645102588,-0.002197835377533505,0.008745708336574783,0.0,0.0,0.0,0.0,0.0,0.0,0.0,0.0,0.0,0.01102990976057893,-0.16333425530034523,9.812838422906406,0.0,0.0,0.0,0.0,0.0,0.0,0.0,0.0,0.0
2025/04/09 09:50:01.648493622,1744185001,646114363,mA1/imu,0.7268381666740766,0.6868077796139301,0.00035585107362413063,0.0011075638418625265,0.0,0.0,0.0,0.0,0.0,0.0,0.0,0.0,0.0,0.00510142061688821,-0.0020799140904375346,0.008321160606072629,0.0,0.0,0.0,0.0,0.0,0.0,0.0,0.0,0.0,0.007704432332403446,0.020843251598358346,9.80874473312027,0.0,0.0,0.0,0.0,0.0,0.0,0.0,0.0,0.0
2025/04/09 09:50:01.700184363,1744185001,697074755,mA1/imu,0.7269782652276094,0.6866596239476138,0.00023748679429372717,0.0010518207069039052,0.0,0.0,0.0,0.0,0.0,0.0,0.0,0.0,0.0,0.005906472387291136,-0.0018035761553275031,0.008042110526448277,0.0,0.0,0.0,0.0,0.0,0.0,0.0,0.0,0.0,0.006345829634632065,-0.5907173871395613,9.808108905705753,0.0,0.0,0.0,0.0,0.0,0.0,0.0,0.0,0.0
2025/04/09 09:50:01.748309206,1744185001,746916060,mA1/imu,0.7271137185441857,0.6865163413442601,0.00010707152972745085,0.0009705193586621091,0.0,0.0,0.0,0.0,0.0,0.0,0.0,0.0,0.0,0.00514111295458935,-0.0013887046607965546,0.0077764053487150795,0.0,0.0,0.0,0.0,0.0,0.0,0.0,0.0,0.0,0.0060693842802937705,0.11998258859325737,9.807508539451867,0.0,0.0,0.0,0.0,0.0,0.0,0.0,0.0,0.0
2025/04/09 09:50:01.800334450,1744185001,798312391,mA1/imu,0.727244608262071,0.6863778105992511,-1.3312295489366832e-05,0.0008835686210272185,0.0,0.0,0.0,0.0,0.0,0.0,0.0,0.0,0.0,0.007531564503696801,-0.0009289335691868855,0.007510422542565235,0.0,0.0,0.0,0.0,0.0,0.0,0.0,0.0,0.0,0.006792558642881639,-0.38198749841856194,9.806528851654251,0.0,0.0,0.0,0.0,0.0,0.0,0.0,0.0,0.0
2025/04/09 09:50:01.850045544,1744185001,849120060,mA1/imu,0.7273706278625663,0.6862443534601134,-0.00011152553731344137,0.0008028879009936915,0.0,0.0,0.0,0.0,0.0,0.0,0.0,0.0,0.0,0.004625181582636397,-0.00047351118024697666,0.007225191383735228,0.0,0.0,0.0,0.0,0.0,0.0,0.0,0.0,0.0,0.00819780332948332,-0.058521202411432854,9.809884188623888,0.0,0.0,0.0,0.0,0.0,0.0,0.0,0.0,0.0
2025/04/09 09:50:01.903138196,1744185001,900784943,mA1/imu,0.7274917925644953,0.6861159931187527,-0.00021556579324579547,0.00069947791525663,0.0,0.0,0.0,0.0,0.0,0.0,0.0,0.0,0.0,0.005121137593540462,1.0221009190158198e-05,0.00694499946949553,0.0,0.0,0.0,0.0,0.0,0.0,0.0,0.0,0.0,0.007532816025649548,0.013112416544200037,9.807067112520619,0.0,0.0,0.0,0.0,0.0,0.0,0.0,0.0,0.0
2025/04/09 09:50:01.951578728,1744185001,950565570,mA1/imu,0.727608169585292,0.6859926323524573,-0.00028522789375900304,0.0006152689950504232,0.0,0.0,0.0,0.0,0.0,0.0,0.0,0.0,0.0,0.004561555023774259,0.0004663439970702391,0.006672534211997351,0.0,0.0,0.0,0.0,0.0,0.0,0.0,0.0,0.0,0.007513601465130139,0.015548046439394538,9.808547470327296,0.0,0.0,0.0,0.0,0.0,0.0,0.0,0.0,0.0
2025/04/09 09:50:02.2677189,1744185002,1574295,mA1/imu,0.727719880709075,0.6858741705622695,-0.00033718233722075013,0.0005326202774537889,0.0,0.0,0.0,0.0,0.0,0.0,0.0,0.0,0.0,0.0023308529271149213,0.0009395291281597,0.006406683390189054,0.0,0.0,0.0,0.0,0.0,0.0,0.0,0.0,0.0,0.00724984873496469,0.08537376539033659,9.810711786390181,0.0,0.0,0.0,0.0,0.0,0.0,0.0,0.0,0.0
2025/04/09 09:50:02.53534473,1744185002,51972675,mA1/imu,0.7278272678504631,0.6857602535084683,-0.0003731915666642594,0.00045123096756863714,0.0,0.0,0.0,0.0,0.0,0.0,0.0,0.0,0.0,0.0033023830820790414,0.001356404871908821,0.006162969347591564,0.0,0.0,0.0,0.0,0.0,0.0,0.0,0.0,0.0,0.00642451657278232,0.181135383989651,9.808634862094513,0.0,0.0,0.0,0.0,0.0,0.0,0.0,0.0,0.0
2025/04/09 09:50:02.105828252,1744185002,103284799,mA1/imu,0.7279304976297843,0.6856507103383372,-0.00037423137836975153,0.0003924077770287633,0.0,0.0,0.0,0.0,0.0,0.0,0.0,0.0,0.0,0.001008424450002,0.0017197273468571017,0.005927175272559985,0.0,0.0,0.0,0.0,0.0,0.0,0.0,0.0,0.0,0.00605901098415086,0.3528753364819971,9.809016861879078,0.0,0.0,0.0,0.0,0.0,0.0,0.0,0.0,0.0
2025/04/09 09:50:02.155318114,1744185002,153093293,mA1/imu,0.7280289652016193,0.6855461928681303,-0.00034895680162595706,0.00034856939412226837,0.0,0.0,0.0,0.0,0.0,0.0,0.0,0.0,0.0,-0.00011944016633441482,0.0020824492014282995,0.005620093497125125,0.0,0.0,0.0,0.0,0.0,0.0,0.0,0.0,0.0,0.0035284590850939383,0.6110157540776878,9.811704942920215,0.0,0.0,0.0,0.0,0.0,0.0,0.0,0.0,0.0
2025/04/09 09:50:02.206228501,1744185002,204187157,mA1/imu,0.7281227039946906,0.6854466686178993,-0.0002956124671336289,0.0003240699821050254,0.0,0.0,0.0,0.0,0.0,0.0,0.0,0.0,0.0,-0.0016430759584545127,0.002308807655663677,0.005367988640375129,0.0,0.0,0.0,0.0,0.0,0.0,0.0,0.0,0.0,0.0056628692411658695,0.5914295719121306,9.811078835192223,0.0,0.0,0.0,0.0,0.0,0.0,0.0,0.0,0.0
2025/04/09 09:50:02.255066483,1744185002,254071533,mA1/imu,0.7282141981274727,0.6853494970606883,-0.00021543044311133437,0.00031955273035860917,0.0,0.0,0.0,0.0,0.0,0.0,0.0,0.0,0.0,-0.0031763280142244918,0.002518607285378776,0.005318932982547037,0.0,0.0,0.0,0.0,0.0,0.0,0.0,0.0,0.0,0.005813037404637761,0.31289505192714573,9.81174659693857,0.0,0.0,0.0,0.0,0.0,0.0,0.0,0.0,0.0
2025/04/09 09:50:02.305896649,1744185002,305101098,mA1/imu,0.7283030875610946,0.6852550535624367,-0.00012143700582603147,0.00033086125811676657,0.0,0.0,0.0,0.0,0.0,0.0,0.0,0.0,0.0,-0.002493795470347973,0.0023655151312453994,0.00511202168314268,0.0,0.0,0.0,0.0,0.0,0.0,0.0,0.0,0.0,0.005940727343208936,-0.5441408006080497,9.8100015960417,0.0,0.0,0.0,0.0,0.0,0.0,0.0,0.0,0.0
2025/04/09 09:50:02.356416842,1744185002,354864389,mA1/imu,0.7283890452832052,0.6851636762352044,-9.988217066307013e-06,0.0003679395552439385,0.0,0.0,0.0,0.0,0.0,0.0,0.0,0.0,0.0,-0.003656717012229946,0.0021018734101412393,0.00493696359727845,0.0,0.0,0.0,0.0,0.0,0.0,0.0,0.0,0.0,0.010281711266947607,0.051486993619642735,9.81088754780713,0.0,0.0,0.0,0.0,0.0,0.0,0.0,0.0,0.0
2025/04/09 09:50:02.408259579,1744185002,405870309,mA1/imu,0.7284711178282302,0.6850763697812681,0.0001123161294660456,0.000430630346549953,0.0,0.0,0.0,0.0,0.0,0.0,0.0,0.0,0.0,-0.004763244680425176,0.001649484300645238,0.004702959183011955,0.0,0.0,0.0,0.0,0.0,0.0,0.0,0.0,0.0,0.009358442515163747,0.02502426635630954,9.809712405018443,0.0,0.0,0.0,0.0,0.0,0.0,0.0,0.0,0.0
2025/04/09 09:50:02.457169021,1744185002,455661392,mA1/imu,0.7285496010289182,0.6849928118496914,0.00024102712880172365,0.0005181320107385553,0.0,0.0,0.0,0.0,0.0,0.0,0.0,0.0,0.0,-0.005899811490002195,0.001109108509482185,0.004491755662941076,0.0,0.0,0.0,0.0,0.0,0.0,0.0,0.0,0.0,0.013478382442104218,0.017040596492897905,9.811829165190773,0.0,0.0,0.0,0.0,0.0,0.0,0.0,0.0,0.0
2025/04/09 09:50:02.498087619,1744185002,496495239,mA1/imu,0.7286236784549923,0.6849138753821465,0.00036291362193826296,0.0006219304048990428,0.0,0.0,0.0,0.0,0.0,0.0,0.0,0.0,0.0,-0.006744031864268221,0.0004426573663995514,0.004226521576897477,0.0,0.0,0.0,0.0,0.0,0.0,0.0,0.0,0.0,0.012124586159563617,0.38264406228506864,9.811715224969834,0.0,0.0,0.0,0.0,0.0,0.0,0.0,0.0,0.0
2025/04/09 09:50:02.547331610,1744185002,546330827,mA1/imu,0.7286939599017508,0.6848389144104949,0.000476429755063431,0.000739679963914046,0.0,0.0,0.0,0.0,0.0,0.0,0.0,0.0,0.0,-0.006501920098134613,-0.00016251331832255658,0.004030660569164556,0.0,0.0,0.0,0.0,0.0,0.0,0.0,0.0,0.0,0.010960664214411771,-0.023192041148835777,9.810707631890342,0.0,0.0,0.0,0.0,0.0,0.0,0.0,0.0,0.0
2025/04/09 09:50:02.600333124,1744185002,597307743,mA1/imu,0.7287602850694459,0.6847681100503791,0.0005761938195275007,0.0008662356574491868,0.0,0.0,0.0,0.0,0.0,0.0,0.0,0.0,0.0,-0.004750268874514503,-0.0008231049994255751,0.0037829310630928216,0.0,0.0,0.0,0.0,0.0,0.0,0.0,0.0,0.0,0.010277347949567457,-0.5509876047171499,9.809682794234952,0.0,0.0,0.0,0.0,0.0,0.0,0.0,0.0,0.0
2025/04/09 09:50:02.650602076,1744185002,647468543,mA1/imu,0.728824461011015,0.6846995408422326,0.0006652294805045815,0.001000635886806231,0.0,0.0,0.0,0.0,0.0,0.0,0.0,0.0,0.0,-0.004237331574130214,-0.00129826631633146,0.003741735342181655,0.0,0.0,0.0,0.0,0.0,0.0,0.0,0.0,0.0,0.010991817640993723,-0.5457569130293561,9.81158405982887,0.0,0.0,0.0,0.0,0.0,0.0,0.0,0.0,0.0
