time,header_stamp_secs,header_stamp_nsecs,header_frame_id,orientation_x,orientation_y,orientation_z,orientation_w,orientation_covariance_0,orientation_covariance_1,orientation_covariance_2,orientation_covariance_3,orientation_covariance_4,orientation_covariance_5,orientation_covariance_6,orientation_covariance_7,orientation_covariance_8,angular_velocity_x,angular_velocity_y,angular_velocity_z,angular_velocity_covariance_0,angular_velocity_covariance_1,angular_velocity_covariance_2,angular_velocity_covariance_3,angular_velocity_covariance_4,angular_velocity_covariance_5,angular_velocity_covariance_6,angular_velocity_covariance_7,angular_velocity_covariance_8,linear_acceleration_x,linear_acceleration_y,linear_acceleration_z,linear_acceleration_covariance_0,linear_acceleration_covariance_1,linear_acceleration_covariance_2,linear_acceleration_covariance_3,linear_acceleration_covariance_4,linear_acceleration_covariance_5,linear_acceleration_covariance_6,linear_acceleration_covariance_7,linear_acceleration_covariance_8
2025/04/09 10:24:45.407424440,1744187085,404362965,mA1/imu,0.7041659972018967,0.7100346502490515,0.00039940063987952383,0.0009403773149089988,0.0,0.0,0.0,0.0,0.0,0.0,0.0,0.0,0.0,0.001621799425735353,0.00011624453389079544,0.0005883852787858691,0.0,0.0,0.0,0.0,0.0,0.0,0.0,0.0,0.0,0.008112115031828085,-0.16924398118820344,9.808931307345215,0.0,0.0,0.0,0.0,0.0,0.0,0.0,0.0,0.0
2025/04/09 10:24:45.456222232,1744187085,455065018,mA1/imu,0.7041764777994605,0.7100243048979601,0.00037524782038944626,0.0009131030544111815,0.0,0.0,0.0,0.0,0.0,0.0,0.0,0.0,0.0,0.0017301324114879489,8.009620698719651e-05,0.0005887176369577677,0.0,0.0,0.0,0.0,0.0,0.0,0.0,0.0,0.0,0.008046755395928805,0.0011518303975837398,9.808772628066,0.0,0.0,0.0,0.0,0.0,0.0,0.0,0.0,0.0
2025/04/09 10:24:45.508093373,1744187085,506032394,mA1/imu,0.7041869601975811,0.710013951017015,0.0003528197928013714,0.0008888009293319881,0.0,0.0,0.0,0.0,0.0,0.0,0.0,0.0,0.0,0.0006296238650511603,4.2448587100980235e-05,0.0005890196574528118,0.0,0.0,0.0,0.0,0.0,0.0,0.0,0.0,0.0,0.008506594855836687,0.3369371409698376,9.80914541711184,0.0,0.0,0.0,0.0,0.0,0.0,0.0,0.0,0.0
2025/04/09 10:24:45.547143346,1744187085,545910069,mA1/imu,0.7041974601137652,0.7100035917244679,0.00032086500087477805,0.0008567107613286298,0.0,0.0,0.0,0.0,0.0,0.0,0.0,0.0,0.0,0.0027741267330712825,-2.165585690339331e-05,0.0005895295810432454,0.0,0.0,0.0,0.0,0.0,0.0,0.0,0.0,0.0,0.008334307658867028,-0.5743492649348413,9.808718484433427,0.0,0.0,0.0,0.0,0.0,0.0,0.0,0.0,0.0
2025/04/09 10:24:45.597952014,1744187085,596924382,mA1/imu,0.7042079647634567,0.7099932220034136,0.00028920627564538116,0.0008266998559346491,0.0,0.0,0.0,0.0,0.0,0.0,0.0,0.0,0.0,0.00196860723289754,-6.138202036858338e-05,0.0005900253927709903,0.0,0.0,0.0,0.0,0.0,0.0,0.0,0.0,0.0,0.008040536143026057,-0.00014454633622601812,9.809002581342915,0.0,0.0,0.0,0.0,0.0,0.0,0.0,0.0,0.0
2025/04/09 10:24:45.647924672,1744187085,646766397,mA1/imu,0.7042184694014344,0.7099828485434767,0.00025695317537479534,0.0007975606918299059,0.0,0.0,0.0,0.0,0.0,0.0,0.0,0.0,0.0,0.001916698837766196,-8.604406434164478e-05,0.0005887370958306659,0.0,0.0,0.0,0.0,0.0,0.0,0.0,0.0,0.0,0.006973215004360273,0.0010629276573121734,9.809217212382649,0.0,0.0,0.0,0.0,0.0,0.0,0.0,0.0,0.0
2025/04/09 10:24:45.698418040,1744187085,697765324,mA1/imu,0.7042289065494634,0.7099725314862401,0.00022996030891657665,0.0007738432808955564,0.0,0.0,0.0,0.0,0.0,0.0,0.0,0.0,0.0,0.0013644029206266162,-9.097498573793435e-05,0.0005848467316885715,0.0,0.0,0.0,0.0,0.0,0.0,0.0,0.0,0.0,0.007198136285670542,-0.027417894015490323,9.809281477219582,0.0,0.0,0.0,0.0,0.0,0.0,0.0,0.0,0.0
2025/04/09 10:24:45.748599893,1744187085,747612258,mA1/imu,0.7042392758259199,0.7099622781973516,0.0002040213936676804,0.0007511965660705321,0.0,0.0,0.0,0.0,0.0,0.0,0.0,0.0,0.0,0.001369138217615456,-8.154092882476732e-05,0.0005814394786284905,0.0,0.0,0.0,0.0,0.0,0.0,0.0,0.0,0.0,0.0061707441674250935,-0.1716636968463893,9.809453927511559,0.0,0.0,0.0,0.0,0.0,0.0,0.0,0.0,0.0
2025/04/09 10:24:45.800359523,1744187085,798558220,mA1/imu,0.704249583434477,0.7099520807341494,0.00018164072745402963,0.0007309584556250395,0.0,0.0,0.0,0.0,0.0,0.0,0.0,0.0,0.0,0.0004810529175047667,-3.769420482920731e-05,0.0005781633161345222,0.0,0.0,0.0,0.0,0.0,0.0,0.0,0.0,0.0,0.0062386305382759084,0.250840910540102,9.809886924007472,0.0,0.0,0.0,0.0,0.0,0.0,0.0,0.0,0.0
2025/04/09 10:24:45.849470537,1744187085,848376175,mA1/imu,0.7042598288088008,0.7099419354833196,0.00016656058611965808,0.0007169560432337965,0.0,0.0,0.0,0.0,0.0,0.0,0.0,0.0,0.0,0.0010368883577873552,-3.4091966275805636e-05,0.0005756466388875773,0.0,0.0,0.0,0.0,0.0,0.0,0.0,0.0,0.0,0.0074825682578328005,-0.3068096582422875,9.810216419460138,0.0,0.0,0.0,0.0,0.0,0.0,0.0,0.0,0.0
2025/04/09 10:24:45.900191066,1744187085,899329789,mA1/imu,0.7042700429039356,0.7099318169061574,0.0001542877742732079,0.0007058382916674112,0.0,0.0,0.0,0.0,0.0,0.0,0.0,0.0,0.0,0.0009407808728090826,-2.6556782901071488e-05,0.0005742506760121229,0.0,0.0,0.0,0.0,0.0,0.0,0.0,0.0,0.0,0.007130730015604091,0.03049663296272774,9.810272024890335,0.0,0.0,0.0,0.0,0.0,0.0,0.0,0.0,0.0
2025/04/09 10:24:45.955585786,1744187085,954521037,mA1/imu,0.70428021521315,0.7099217206627768,0.00015771577684981468,0.0007100114470073948,0.0,0.0,0.0,0.0,0.0,0.0,0.0,0.0,0.0,-2.9949205145462647e-05,-3.31984400049196e-05,0.0005728109433464207,0.0,0.0,0.0,0.0,0.0,0.0,0.0,0.0,0.0,0.007845134195982026,-0.11174998134701575,9.809250484864908,0.0,0.0,0.0,0.0,0.0,0.0,0.0,0.0,0.0
2025/04/09 10:24:46.7226677,1744187086,5746046,mA1/imu,0.7042903693579976,0.7099116478887696,0.0001560232728508819,0.0007095619531533226,0.0,0.0,0.0,0.0,0.0,0.0,0.0,0.0,0.0,0.00017400450512968952,-4.189389273120341e-05,0.0005716491529836866,0.0,0.0,0.0,0.0,0.0,0.0,0.0,0.0,0.0,0.007523130701069118,-0.6088767965169138,9.810067327893178,0.0,0.0,0.0,0.0,0.0,0.0,0.0,0.0,0.0
2025/04/09 10:24:46.47074410,1744187086,46143009,mA1/imu,0.7043004847371308,0.7099016049957884,0.00016043220650191335,0.000716020218439673,0.0,0.0,0.0,0.0,0.0,0.0,0.0,0.0,0.0,0.000183034015257846,-7.938901094447716e-05,0.0005685349137571769,0.0,0.0,0.0,0.0,0.0,0.0,0.0,0.0,0.0,0.00900916351508061,0.04388956351258936,9.810578262253157,0.0,0.0,0.0,0.0,0.0,0.0,0.0,0.0,0.0
2025/04/09 10:24:46.98888953,1744187086,97830839,mA1/imu,0.7043105074386136,0.7098916357393864,0.00017765486521534605,0.0007369243988830526,0.0,0.0,0.0,0.0,0.0,0.0,0.0,0.0,0.0,1.4911327172308118e-06,-0.00013626350854948157,0.0005641287400409043,0.0,0.0,0.0,0.0,0.0,0.0,0.0,0.0,0.0,0.008088056086871121,0.057099045470847196,9.811134490042935,0.0,0.0,0.0,0.0,0.0,0.0,0.0,0.0,0.0
2025/04/09 10:24:46.151140384,1744187086,148567727,mA1/imu,0.7043204460076135,0.7098817390998432,0.00020100753957744507,0.0007651301769159226,0.0,0.0,0.0,0.0,0.0,0.0,0.0,0.0,0.0,-0.002420784051452972,-0.00013877899464631243,0.0005605064711288775,0.0,0.0,0.0,0.0,0.0,0.0,0.0,0.0,0.0,0.007506874245669932,0.5353199862874206,9.812324706486828,0.0,0.0,0.0,0.0,0.0,0.0,0.0,0.0,0.0
2025/04/09 10:24:46.201450880,1744187086,199486941,mA1/imu,0.7043303599774168,0.709871870494769,0.0002203429995348421,0.0007892675735050819,0.0,0.0,0.0,0.0,0.0,0.0,0.0,0.0,0.0,-0.00042288112312112094,-0.00013334068668934695,0.0005593660629290775,0.0,0.0,0.0,0.0,0.0,0.0,0.0,0.0,0.0,0.007070415064356624,-0.5702302549844109,9.809368909510779,0.0,0.0,0.0,0.0,0.0,0.0,0.0,0.0,0.0
2025/04/09 10:24:46.252898747,1744187086,250923914,mA1/imu,0.7043402368087202,0.7098620229766166,0.0002500202344496915,0.0008225798829551716,0.0,0.0,0.0,0.0,0.0,0.0,0.0,0.0,0.0,-0.00041038103017278086,-9.854939511128064e-05,0.0005585985254458545,0.0,0.0,0.0,0.0,0.0,0.0,0.0,0.0,0.0,0.005515111205636601,-0.5630415485887931,9.810342074876747,0.0,0.0,0.0,0.0,0.0,0.0,0.0,0.0,0.0
2025/04/09 10:24:46.303754655,1744187086,301874936,mA1/imu,0.7043501070345679,0.7098521890177274,0.0002760154142625567,0.0008486946590487678,0.0,0.0,0.0,0.0,0.0,0.0,0.0,0.0,0.0,-0.0012526034481425822,4.031439042082207e-05,0.0005576431833574243,0.0,0.0,0.0,0.0,0.0,0.0,0.0,0.0,0.0,0.004518058281903439,0.06445992764899092,9.81108925758378,0.0,0.0,0.0,0.0,0.0,0.0,0.0,0.0,0.0
2025/04/09 10:24:46.352933510,1744187086,351753946,mA1/imu,0.7043599605869694,0.7098423586678536,0.0003110458012647292,0.0008803483916571412,0.0,0.0,0.0,0.0,0.0,0.0,0.0,0.0,0.0,-0.002006070750572297,9.100492246047123e-05,0.0005578404468807236,0.0,0.0,0.0,0.0,0.0,0.0,0.0,0.0,0.0,0.009443980762171109,-0.03598496288539829,9.810018990047984,0.0,0.0,0.0,0.0,0.0,0.0,0.0,0.0,0.0
2025/04/09 10:24:46.403703236,1744187086,402652518,mA1/imu,0.704369260074246,0.7098330831342576,0.00033904221838978966,0.0009080754084065941,0.0,0.0,0.0,0.0,0.0,0.0,0.0,0.0,0.0,-0.0010714699309350587,-3.081984400796128e-05,0.0005190714286509842,0.0,0.0,0.0,0.0,0.0,0.0,0.0,0.0,0.0,0.00988526651497377,-0.3680019835836171,9.808810318703678,0.0,0.0,0.0,0.0,0.0,0.0,0.0,0.0,0.0
2025/04/09 10:24:46.454303375,1744187086,452481922,mA1/imu,0.7043784624820063,0.7098239091405673,0.0003613570420398987,0.000932215091428198,0.0,0.0,0.0,0.0,0.0,0.0,0.0,0.0,0.0,-0.0005688512397263143,-5.630362596573026e-05,0.0005202662054770163,0.0,0.0,0.0,0.0,0.0,0.0,0.0,0.0,0.0,0.007120232092920734,0.03897833233532952,9.809685200305925,0.0,0.0,0.0,0.0,0.0,0.0,0.0,0.0,0.0
2025/04/09 10:24:46.504889232,1744187086,503432925,mA1/imu,0.7043882326245026,0.7098141608960757,0.00039085033445086185,0.0009601914109656209,0.0,0.0,0.0,0.0,0.0,0.0,0.0,0.0,0.0,-0.0024684647345956197,6.234055242453381e-05,0.0005596662386559114,0.0,0.0,0.0,0.0,0.0,0.0,0.0,0.0,0.0,0.00722911356934893,0.48265880590830734,9.810268820247698,0.0,0.0,0.0,0.0,0.0,0.0,0.0,0.0,0.0
2025/04/09 10:24:46.554178326,1744187086,553227303,mA1/imu,0.7043981210993334,0.7098043180219189,0.00040877124029608755,0.0009746872527031475,0.0,0.0,0.0,0.0,0.0,0.0,0.0,0.0,0.0,-0.0007983154087031078,0.00011414991830208839,0.0005578706190442429,0.0,0.0,0.0,0.0,0.0,0.0,0.0,0.0,0.0,0.005967745079232871,-0.6077698244798605,9.808688411342844,0.0,0.0,0.0,0.0,0.0,0.0,0.0,0.0,0.0
2025/04/09 10:24:46.605454363,1744187086,604239057,mA1/imu,0.7044079917600053,0.7097945087254988,0.0004193495645485374,0.000980139636319152,0.0,0.0,0.0,0.0,0.0,0.0,0.0,0.0,0.0,0.0010886311698543136,0.00015863415360201818,0.0005564056463306182,0.0,0.0,0.0,0.0,0.0,0.0,0.0,0.0,0.0,0.005982095290879825,-0.5310682015243232,9.807897116060593,0.0,0.0,0.0,0.0,0.0,0.0,0.0,0.0,0.0
2025/04/09 10:24:46.655109589,1744187086,654032376,mA1/imu,0.7044178369802909,0.7097847284765428,0.0004287774821540335,0.0009830134076359797,0.0,0.0,0.0,0.0,0.0,0.0,0.0,0.0,0.0,-0.00032694194174668945,0.00019453663027918592,0.0005547405146759808,0.0,0.0,0.0,0.0,0.0,0.0,0.0,0.0,0.0,0.007473293450835384,0.6023751574817464,9.810221354052748,0.0,0.0,0.0,0.0,0.0,0.0,0.0,0.0,0.0
2025/04/09 10:24:46.706108436,1744187086,705009588,mA1/imu,0.704427653125831,0.7097749783612941,0.0004377571346193787,0.0009848718441861147,0.0,0.0,0.0,0.0,0.0,0.0,0.0,0.0,0.0,-0.0014486232916072934,0.00020303184372871979,0.0005530536503132169,0.0,0.0,0.0,0.0,0.0,0.0,0.0,0.0,0.0,0.007634305226449134,0.5023607059124163,9.809554322567402,0.0,0.0,0.0,0.0,0.0,0.0,0.0,0.0,0.0
2025/04/09 10:24:46.756627482,1744187086,754850841,mA1/imu,0.7044374659427775,0.7097652553183426,0.00043435345373854105,0.000974810793738717,0.0,0.0,0.0,0.0,0.0,0.0,0.0,0.0,0.0,0.0006235706958923476,0.00016041872131489256,0.0005530600606689523,0.0,0.0,0.0,0.0,0.0,0.0,0.0,0.0,0.0,0.00932657564377204,-0.6339470704808156,9.808465503220793,0.0,0.0,0.0,0.0,0.0,0.0,0.0,0.0,0.0
2025/04/09 10:24:46.806727709,1744187086,805768543,mA1/imu,0.7044468943098426,0.7097559309237162,0.00041893782527273473,0.0009571347475007428,0.0,0.0,0.0,0.0,0.0,0.0,0.0,0.0,0.0,0.002361262649742995,1.7408851523109233e-05,0.0005259546210940387,0.0,0.0,0.0,0.0,0.0,0.0,0.0,0.0,0.0,0.009222891435648133,-0.5381214668054656,9.80805007211672,0.0,0.0,0.0,0.0,0.0,0.0,0.0,0.0,0.0
2025/04/09 10:24:46.860675572,1744187086,855755489,mA1/imu,0.7044563917613033,0.7097465358337743,0.0004026219173721197,0.0009406775185967785,0.0,0.0,0.0,0.0,0.0,0.0,0.0,0.0,0.0,0.0009362585815694487,4.9319169440289266e-05,0.0005505813192863248,0.0,0.0,0.0,0.0,0.0,0.0,0.0,0.0,0.0,0.002834666556903608,0.5987973556937202,9.810434863147163,0.0,0.0,0.0,0.0,0.0,0.0,0.0,0.0,0.0
2025/04/09 10:24:46.897753269,1744187086,896613734,mA1/imu,0.7044665658463887,0.7097364687182753,0.0003886207969557084,0.0009227945515747286,0.0,0.0,0.0,0.0,0.0,0.0,0.0,0.0,0.0,-0.0002859086106507516,0.00013820405954942738,0.0005744248551777308,0.0,0.0,0.0,0.0,0.0,0.0,0.0,0.0,0.0,0.005678021446132223,0.5010105736496588,9.810149955272673,0.0,0.0,0.0,0.0,0.0,0.0,0.0,0.0,0.0
2025/04/09 10:24:46.947358986,1744187086,946453455,mA1/imu,0.7044767818154184,0.7097263763933256,0.0003660527489804255,0.0008947289957314312,0.0,0.0,0.0,0.0,0.0,0.0,0.0,0.0,0.0,0.0016081835762339746,0.00016120444284608456,0.0005735685686446166,0.0,0.0,0.0,0.0,0.0,0.0,0.0,0.0,0.0,0.007430713143831513,-0.6360122974940253,9.809125918726359,0.0,0.0,0.0,0.0,0.0,0.0,0.0,0.0,0.0
2025/04/09 10:24:46.999428095,1744187086,997408915,mA1/imu,0.7044869784488981,0.7097163138164299,0.0003351517731216048,0.0008595184988954657,0.0,0.0,0.0,0.0,0.0,0.0,0.0,0.0,0.0,0.0031898753586788345,0.00010389593749006178,0.0005717334641657928,0.0,0.0,0.0,0.0,0.0,0.0,0.0,0.0,0.0,0.007424665642255928,-0.5360284777835718,9.808949952766989,0.0,0.0,0.0,0.0,0.0,0.0,0.0,0.0,0.0
2025/04/09 10:24:47.48455738,1744187087,47255530,mA1/imu,0.7044971381757054,0.7097062760788783,0.0003082257231200782,0.000830056260622313,0.0,0.0,0.0,0.0,0.0,0.0,0.0,0.0,0.0,0.0014964353525370952,7.31929627450187e-05,0.00057032340682008,0.0,0.0,0.0,0.0,0.0,0.0,0.0,0.0,0.0,0.006260062991500734,0.6003566626810546,9.811411893593288,0.0,0.0,0.0,0.0,0.0,0.0,0.0,0.0,0.0
2025/04/09 10:24:47.99466022,1744187087,98234561,mA1/imu,0.7045072759137846,0.7096962495314107,0.0002865718768205499,0.0008058921439150211,0.0,0.0,0.0,0.0,0.0,0.0,0.0,0.0,0.0,-4.64269558381392e-06,7.771981228059667e-05,0.0005696165432420635,0.0,0.0,0.0,0.0,0.0,0.0,0.0,0.0,0.0,0.006391861039107502,0.5011248089332221,9.81114668629901,0.0,0.0,0.0,0.0,0.0,0.0,0.0,0.0,0.0
2025/04/09 10:24:47.149422270,1744187087,148529252,mA1/imu,0.7045174043263099,0.709686237258768,0.0002600539576343444,0.0007771864315888762,0.0,0.0,0.0,0.0,0.0,0.0,0.0,0.0,0.0,0.0016215339246411773,4.5022992923889055e-05,0.0005686200727519105,0.0,0.0,0.0,0.0,0.0,0.0,0.0,0.0,0.0,0.007587170922661463,-0.6346345763083026,9.810056429550725,0.0,0.0,0.0,0.0,0.0,0.0,0.0,0.0,0.0
2025/04/09 10:24:47.200457956,1744187087,199478378,mA1/imu,0.7045275078884912,0.7096762497861375,0.00022985841388581553,0.000747183394596811,0.0,0.0,0.0,0.0,0.0,0.0,0.0,0.0,0.0,0.0029054641273779697,-3.1010791794733094e-05,0.0005670357964314077,0.0,0.0,0.0,0.0,0.0,0.0,0.0,0.0,0.0,0.007518602742200625,-0.5355241931170107,9.809758169447965,0.0,0.0,0.0,0.0,0.0,0.0,0.0,0.0,0.0
2025/04/09 10:24:47.252277068,1744187087,250990277,mA1/imu,0.7045375799248286,0.709666277029999,0.00020846755913036933,0.000728190444296014,0.0,0.0,0.0,0.0,0.0,0.0,0.0,0.0,0.0,0.0009352319871615418,-6.934012148619771e-05,0.0005668887589492649,0.0,0.0,0.0,0.0,0.0,0.0,0.0,0.0,0.0,0.006081851412404155,0.60028237673764,9.812061627835204,0.0,0.0,0.0,0.0,0.0,0.0,0.0,0.0,0.0
2025/04/09 10:24:47.303896919,1744187087,301913078,mA1/imu,0.7045476706660819,0.7096562716732403,0.00019700036722471664,0.0007190442892123794,0.0,0.0,0.0,0.0,0.0,0.0,0.0,0.0,0.0,-0.0008131019679152215,-5.828925442642232e-05,0.0005689402395347001,0.0,0.0,0.0,0.0,0.0,0.0,0.0,0.0,0.0,0.006166581278427228,0.5010202417834408,9.81155403020143,0.0,0.0,0.0,0.0,0.0,0.0,0.0,0.0,0.0
2025/04/09 10:24:47.354377646,1744187087,353683385,mA1/imu,0.7045577968250663,0.709646231298432,0.00018457534253330882,0.0007094144656471235,0.0,0.0,0.0,0.0,0.0,0.0,0.0,0.0,0.0,0.0006038894710554294,-0.00013091223587875705,0.0005707893129343071,0.0,0.0,0.0,0.0,0.0,0.0,0.0,0.0,0.0,0.01124179137328416,-0.6346791561561115,9.810208417585091,0.0,0.0,0.0,0.0,0.0,0.0,0.0,0.0,0.0
2025/04/09 10:24:47.405258332,1744187087,404586114,mA1/imu,0.704567523427131,0.7096365836226634,0.00016930004115641096,0.0007038846568241963,0.0,0.0,0.0,0.0,0.0,0.0,0.0,0.0,0.0,0.0017343395381865735,-0.0003525580551179368,0.0005432671619239304,0.0,0.0,0.0,0.0,0.0,0.0,0.0,0.0,0.0,0.01091908854548327,-0.535411243114884,9.809630856757218,0.0,0.0,0.0,0.0,0.0,0.0,0.0,0.0,0.0
2025/04/09 10:24:47.458543305,1744187087,454488355,mA1/imu,0.7045771812655597,0.7096269865995228,0.00016327349737933668,0.0007133521741628868,0.0,0.0,0.0,0.0,0.0,0.0,0.0,0.0,0.0,-0.00034025142721869355,-0.0004798397864585011,0.0005448222440769207,0.0,0.0,0.0,0.0,0.0,0.0,0.0,0.0,0.0,0.009892579032561577,0.6003138879833674,9.811889511574659,0.0,0.0,0.0,0.0,0.0,0.0,0.0,0.0,0.0
2025/04/09 10:24:47.507920272,1744187087,505884438,mA1/imu,0.7045872775451073,0.7096169391726284,0.00016761292749773756,0.0007347562526899647,0.0,0.0,0.0,0.0,0.0,0.0,0.0,0.0,0.0,-0.002136296405780793,-0.0004995176386216166,0.0005749232427721919,0.0,0.0,0.0,0.0,0.0,0.0,0.0,0.0,0.0,0.009752045422448783,0.5012815649333079,9.811103964956208,0.0,0.0,0.0,0.0,0.0,0.0,0.0,0.0,0.0
2025/04/09 10:24:47.557072460,1744187087,555767052,mA1/imu,0.7045974744178947,0.7096067908605767,0.00017048847690040605,0.0007565329849793772,0.0,0.0,0.0,0.0,0.0,0.0,0.0,0.0,0.0,-0.0007047353478967821,-0.0005706814251468244,0.0005760578805671562,0.0,0.0,0.0,0.0,0.0,0.0,0.0,0.0,0.0,0.01055059161094683,-0.6343904571915466,9.809401780372957,0.0,0.0,0.0,0.0,0.0,0.0,0.0,0.0,0.0
2025/04/09 10:24:47.597993296,1744187087,597103433,mA1/imu,0.7046072765823507,0.7095970334776007,0.00017045165872587128,0.0007789821716825631,0.0,0.0,0.0,0.0,0.0,0.0,0.0,0.0,0.0,0.0005660472361446175,-0.0006644239930820383,0.0005487465844245224,0.0,0.0,0.0,0.0,0.0,0.0,0.0,0.0,0.0,0.01011015236329826,-0.5305422434900386,9.808778651945365,0.0,0.0,0.0,0.0,0.0,0.0,0.0,0.0,0.0
2025/04/09 10:24:47.649525983,1744187087,647376381,mA1/imu,0.7046170022088417,0.7095873364483845,0.00018033771719607134,0.0008121752398642232,0.0,0.0,0.0,0.0,0.0,0.0,0.0,0.0,0.0,-0.0014183951979217808,-0.0006437370708816784,0.0005490958463047156,0.0,0.0,0.0,0.0,0.0,0.0,0.0,0.0,0.0,0.008865651603562955,0.6023698768436415,9.810919275662975,0.0,0.0,0.0,0.0,0.0,0.0,0.0,0.0,0.0
2025/04/09 10:24:47.699837612,1744187087,698336601,mA1/imu,0.7046271186796267,0.7095772382260594,0.00020097437452572074,0.0008521866146059696,0.0,0.0,0.0,0.0,0.0,0.0,0.0,0.0,0.0,-0.0030536138040130434,-0.0005045270020451095,0.0005763183327467886,0.0,0.0,0.0,0.0,0.0,0.0,0.0,0.0,0.0,0.00876855792690217,0.502373680201851,9.810057899205281,0.0,0.0,0.0,0.0,0.0,0.0,0.0,0.0,0.0
2025/04/09 10:24:47.750036813,1744187087,748253916,mA1/imu,0.7046372878810475,0.7095670923454777,0.00021972573963154984,0.0008864020676109082,0.0,0.0,0.0,0.0,0.0,0.0,0.0,0.0,0.0,-0.001420250369985737,-0.0004147675682376638,0.0005743734877776198,0.0,0.0,0.0,0.0,0.0,0.0,0.0,0.0,0.0,0.010150023104894365,-0.634077578777395,9.80862861505469,0.0,0.0,0.0,0.0,0.0,0.0,0.0,0.0,0.0
2025/04/09 10:24:47.800186690,1744187087,799218568,mA1/imu,0.7046470068528397,0.7095573972884305,0.00023569462659144631,0.0009165885913245352,0.0,0.0,0.0,0.0,0.0,0.0,0.0,0.0,0.0,-8.54015120925437e-06,-0.00038573174130278966,0.0005437947960416975,0.0,0.0,0.0,0.0,0.0,0.0,0.0,0.0,0.0,0.009895024042091487,-0.537269885758846,9.807912446921195,0.0,0.0,0.0,0.0,0.0,0.0,0.0,0.0,0.0
2025/04/09 10:24:47.850114231,1744187087,849023669,mA1/imu,0.7046566096620575,0.7095478088407482,0.00025855445355865854,0.0009500412950657866,0.0,0.0,0.0,0.0,0.0,0.0,0.0,0.0,0.0,-0.0016654719447409098,-0.0002080257219070399,0.0005429838002681905,0.0,0.0,0.0,0.0,0.0,0.0,0.0,0.0,0.0,0.004812124983282388,0.5999425743356332,9.810339495482205,0.0,0.0,0.0,0.0,0.0,0.0,0.0,0.0,0.0
2025/04/09 10:24:47.901104530,1744187087,900002850,mA1/imu,0.704666629686052,0.7095378031542299,0.00029023965294425853,0.0009811538685233674,0.0,0.0,0.0,0.0,0.0,0.0,0.0,0.0,0.0,-0.0029968458637800403,0.00013961717740760608,0.0005720238272414927,0.0,0.0,0.0,0.0,0.0,0.0,0.0,0.0,0.0,0.005028327304670923,0.5015046507972465,9.809768567895999,0.0,0.0,0.0,0.0,0.0,0.0,0.0,0.0,0.0
2025/04/09 10:24:47.951667872,1744187087,949907937,mA1/imu,0.7046767337906921,0.7095277326464869,0.00031777433994864535,0.000998237990730859,0.0,0.0,0.0,0.0,0.0,0.0,0.0,0.0,0.0,-0.0010740838129868547,0.00034883209576816844,0.0005715688244161532,0.0,0.0,0.0,0.0,0.0,0.0,0.0,0.0,0.0,0.009943659974785763,-0.6343259330238543,9.808231064630874,0.0,0.0,0.0,0.0,0.0,0.0,0.0,0.0,0.0
2025/04/09 10:24:48.1900875,1744187088,902638,mA1/imu,0.7046864304753048,0.709518083586852,0.00033736853082503036,0.0010049625310131487,0.0,0.0,0.0,0.0,0.0,0.0,0.0,0.0,0.0,0.0006351114641220315,0.00038007909082071967,0.0005432716206722209,0.0,0.0,0.0,0.0,0.0,0.0,0.0,0.0,0.0,0.009948823094563946,-0.5348814433032287,9.807978514858618,0.0,0.0,0.0,0.0,0.0,0.0,0.0,0.0,0.0
2025/04/09 10:24:48.53832025,1744187088,50742420,mA1/imu,0.7046960513639905,0.7095085075893273,0.00035974048512601016,0.001011650705052168,0.0,0.0,0.0,0.0,0.0,0.0,0.0,0.0,0.0,-0.0008155964980652796,0.0005202187239507585,0.0005435885096447293,0.0,0.0,0.0,0.0,0.0,0.0,0.0,0.0,0.0,0.0046791179124237746,0.6010907800803833,9.810646638142922,0.0,0.0,0.0,0.0,0.0,0.0,0.0,0.0,0.0
2025/04/09 10:24:48.103463071,1744187088,102518892,mA1/imu,0.7047060906571552,0.7094985192655062,0.0003864599424696742,0.0010137058134678213,0.0,0.0,0.0,0.0,0.0,0.0,0.0,0.0,0.0,-0.0019686301273556654,0.0007901281532080009,0.0005722177610972163,0.0,0.0,0.0,0.0,0.0,0.0,0.0,0.0,0.0,0.005152242697682953,0.5018976726251928,9.810277553381924,0.0,0.0,0.0,0.0,0.0,0.0,0.0,0.0,0.0
2025/04/09 10:24:48.153312897,1744187088,152364044,mA1/imu,0.7047162056304375,0.7094884809650799,0.0004047786155498155,0.0010005268485979103,0.0,0.0,0.0,0.0,0.0,0.0,0.0,0.0,0.0,9.128885848203898e-05,0.0009323817556437336,0.000569374632377087,0.0,0.0,0.0,0.0,0.0,0.0,0.0,0.0,0.0,0.006743005847864888,-0.6342965628018254,9.809027922219613,0.0,0.0,0.0,0.0,0.0,0.0,0.0,0.0,0.0
2025/04/09 10:24:48.204689599,1744187088,203345900,mA1/imu,0.7047262523221801,0.7094785320006403,0.000413356494546188,0.0009752202622143139,0.0,0.0,0.0,0.0,0.0,0.0,0.0,0.0,0.0,0.0018780001841189806,0.0009680029796564742,0.0005643380449082375,0.0,0.0,0.0,0.0,0.0,0.0,0.0,0.0,0.0,0.007084052427120227,-0.5351273998280021,9.808952567390929,0.0,0.0,0.0,0.0,0.0,0.0,0.0,0.0,0.0
2025/04/09 10:24:48.254411087,1744187088,253547869,mA1/imu,0.70473621138663,0.7094686679579237,0.00042269922374908844,0.0009501956611998125,0.0,0.0,0.0,0.0,0.0,0.0,0.0,0.0,0.0,0.0004544175071610507,0.0009865368766655536,0.000559846107809353,0.0,0.0,0.0,0.0,0.0,0.0,0.0,0.0,0.0,0.005491365229240501,0.6008577901090814,9.811398747747551,0.0,0.0,0.0,0.0,0.0,0.0,0.0,0.0,0.0
2025/04/09 10:24:48.305669319,1744187088,304482530,mA1/imu,0.7047461025648103,0.7094588704085849,0.00043238474818173376,0.0009247495412107315,0.0,0.0,0.0,0.0,0.0,0.0,0.0,0.0,0.0,-0.0007262354371303305,0.0009934464699958526,0.0005562219151959854,0.0,0.0,0.0,0.0,0.0,0.0,0.0,0.0,0.0,0.0059875474669985156,0.5015359982769091,9.811089022410378,0.0,0.0,0.0,0.0,0.0,0.0,0.0,0.0,0.0
2025/04/09 10:24:48.348966883,1744187088,345943746,mA1/imu,0.7047559418440716,0.709449142701624,0.0004306264906264323,0.0008893347131102037,0.0,0.0,0.0,0.0,0.0,0.0,0.0,0.0,0.0,0.0012504609949676726,0.0009033131111581776,0.0005522429174742849,0.0,0.0,0.0,0.0,0.0,0.0,0.0,0.0,0.0,0.00778296491453365,-0.6343510274992451,9.810116469877357,0.0,0.0,0.0,0.0,0.0,0.0,0.0,0.0,0.0
2025/04/09 10:24:48.397885539,1744187088,397141750,mA1/imu,0.7047657121268326,0.7094394956875646,0.0004170433981583964,0.000847964466615476,0.0,0.0,0.0,0.0,0.0,0.0,0.0,0.0,0.0,0.0029016368943538735,0.0007079271176817177,0.0005476338542608723,0.0,0.0,0.0,0.0,0.0,0.0,0.0,0.0,0.0,0.007965466472904031,-0.5352443052485261,9.809852560252413,0.0,0.0,0.0,0.0,0.0,0.0,0.0,0.0,0.0
2025/04/09 10:24:48.447945973,1744187088,446973810,mA1/imu,0.7047754009907159,0.7094299182830685,0.00040346089391591386,0.0008138934583184637,0.0,0.0,0.0,0.0,0.0,0.0,0.0,0.0,0.0,0.001266891657476104,0.0005141422267922971,0.0005436225718368841,0.0,0.0,0.0,0.0,0.0,0.0,0.0,0.0,0.0,0.006284529520080878,0.5986237859922627,9.811883385807217,0.0,0.0,0.0,0.0,0.0,0.0,0.0,0.0,0.0
2025/04/09 10:24:48.498945222,1744187088,497939706,mA1/imu,0.7047850284614554,0.7094203919949564,0.0003904898274622935,0.0007865087427778132,0.0,0.0,0.0,0.0,0.0,0.0,0.0,0.0,0.0,-0.0001109885058407012,0.0003408854697314629,0.0005405268691061255,0.0,0.0,0.0,0.0,0.0,0.0,0.0,0.0,0.0,0.006507397292206934,0.5005406665199411,9.811446320822272,0.0,0.0,0.0,0.0,0.0,0.0,0.0,0.0,0.0
2025/04/09 10:24:48.549707444,1744187088,548214286,mA1/imu,0.7047946073430952,0.7094109212957233,0.000367122712788633,0.0007559281440030755,0.0,0.0,0.0,0.0,0.0,0.0,0.0,0.0,0.0,0.0016316468135766577,8.9712155313815e-05,0.0005368391013459656,0.0,0.0,0.0,0.0,0.0,0.0,0.0,0.0,0.0,0.009759699806493318,-0.6348468895532796,9.810339567752674,0.0,0.0,0.0,0.0,0.0,0.0,0.0,0.0,0.0
2025/04/09 10:24:48.600979294,1744187088,600030551,mA1/imu,0.7048041112999963,0.7094015260175836,0.00033381017191542225,0.000726738821835373,0.0,0.0,0.0,0.0,0.0,0.0,0.0,0.0,0.0,0.0029624130616584653,-0.00024529140634555727,0.0005321493704718797,0.0,0.0,0.0,0.0,0.0,0.0,0.0,0.0,0.0,0.009542881430251653,-0.5122299601571929,9.809790597259838,0.0,0.0,0.0,0.0,0.0,0.0,0.0,0.0,0.0
2025/04/09 10:24:48.652268393,1744187088,651029017,mA1/imu,0.7048135314186487,0.7093921959750094,0.00030353834541464795,0.0007113953898703026,0.0,0.0,0.0,0.0,0.0,0.0,0.0,0.0,0.0,0.001139764045697606,-0.0005013068426381133,0.0005284604835687867,0.0,0.0,0.0,0.0,0.0,0.0,0.0,0.0,0.0,0.006181442150616986,0.5988146806612926,9.811719774247624,0.0,0.0,0.0,0.0,0.0,0.0,0.0,0.0,0.0
2025/04/09 10:24:48.705561685,1744187088,703165805,mA1/imu,0.7048228992590431,0.7093829036819685,0.0002779345004148569,0.0007066797220007998,0.0,0.0,0.0,0.0,0.0,0.0,0.0,0.0,0.0,-0.0004923646402572013,-0.0006399369217654354,0.0005262060250286228,0.0,0.0,0.0,0.0,0.0,0.0,0.0,0.0,0.0,0.006026611259557878,0.5006294852157424,9.810999103544717,0.0,0.0,0.0,0.0,0.0,0.0,0.0,0.0,0.0
2025/04/09 10:24:48.754247714,1744187088,753235097,mA1/imu,0.7048322360135897,0.7093736428256746,0.0002472802763294459,0.0007019920088737371,0.0,0.0,0.0,0.0,0.0,0.0,0.0,0.0,0.0,0.0010167312294550805,-0.0008303566232834715,0.000524955167895522,0.0,0.0,0.0,0.0,0.0,0.0,0.0,0.0,0.0,0.011286667918552167,-0.6347788803927478,9.809474369682443,0.0,0.0,0.0,0.0,0.0,0.0,0.0,0.0,0.0
2025/04/09 10:24:48.806178184,1744187088,804250920,mA1/imu,0.7048411433614169,0.7093648044544362,0.0002107249673916501,0.0007017273532097734,0.0,0.0,0.0,0.0,0.0,0.0,0.0,0.0,0.0,0.002214371204539346,-0.001129601693912569,0.0004959448874843991,0.0,0.0,0.0,0.0,0.0,0.0,0.0,0.0,0.0,0.010657751688473237,-0.5353445810232819,9.808707546059482,0.0,0.0,0.0,0.0,0.0,0.0,0.0,0.0,0.0
2025/04/09 10:24:48.858675365,1744187088,855642677,mA1/imu,0.7048499540685418,0.7093560431682788,0.0001815817818717602,0.0007164483749393618,0.0,0.0,0.0,0.0,0.0,0.0,0.0,0.0,0.0,0.0001822628418442131,-0.001290108925249384,0.0004958415254099589,0.0,0.0,0.0,0.0,0.0,0.0,0.0,0.0,0.0,0.00956997603650489,0.6004866240190376,9.810933702676902,0.0,0.0,0.0,0.0,0.0,0.0,0.0,0.0,0.0
2025/04/09 10:24:48.898549520,1744187088,896732849,mA1/imu,0.7048591745589845,0.7093468591320192,0.00016202336224960528,0.000742447302035155,0.0,0.0,0.0,0.0,0.0,0.0,0.0,0.0,0.0,-0.0015270632777438383,-0.0012926165797723062,0.000524383994469796,0.0,0.0,0.0,0.0,0.0,0.0,0.0,0.0,0.0,0.009108104565713248,0.47633269885310914,9.810132313065557,0.0,0.0,0.0,0.0,0.0,0.0,0.0,0.0,0.0
2025/04/09 10:24:48.951012600,1744187088,946417473,mA1/imu,0.7048684644727423,0.7093376057947066,0.0001413818629628617,0.0007673385436859899,0.0,0.0,0.0,0.0,0.0,0.0,0.0,0.0,0.0,-0.00014455500183841618,-0.0012879169490852918,0.0005236318645373863,0.0,0.0,0.0,0.0,0.0,0.0,0.0,0.0,0.0,0.00987783817990153,-0.6321813912623637,9.808599314715408,0.0,0.0,0.0,0.0,0.0,0.0,0.0,0.0,0.0
2025/04/09 10:24:48.998939316,1744187088,997372775,mA1/imu,0.7048773232387417,0.7093287783160035,0.00012119040516300728,0.0007929371967790522,0.0,0.0,0.0,0.0,0.0,0.0,0.0,0.0,0.0,0.001007979193652588,-0.0012772298999825962,0.0004946149564152644,0.0,0.0,0.0,0.0,0.0,0.0,0.0,0.0,0.0,0.00927668727660276,-0.5341551148313869,9.808009860765122,0.0,0.0,0.0,0.0,0.0,0.0,0.0,0.0,0.0
2025/04/09 10:24:49.49019878,1744187089,47201963,mA1/imu,0.7048860856110639,0.7093200318957511,0.00011400378507770705,0.0008280497928950983,0.0,0.0,0.0,0.0,0.0,0.0,0.0,0.0,0.0,-0.0010023442918746356,-0.0011247429766311008,0.0004946574895886373,0.0,0.0,0.0,0.0,0.0,0.0,0.0,0.0,0.0,0.008252598937261357,0.6011016912088674,9.81026733524391,0.0,0.0,0.0,0.0,0.0,0.0,0.0,0.0,0.0
2025/04/09 10:24:49.101132377,1744187089,98224260,mA1/imu,0.70489525758146,0.7093108679064962,0.00012099357097817762,0.0008682565611080187,0.0,0.0,0.0,0.0,0.0,0.0,0.0,0.0,0.0,-0.002698822993151666,-0.0008304658477807131,0.00052332307387173,0.0,0.0,0.0,0.0,0.0,0.0,0.0,0.0,0.0,0.00804351567625603,0.5019361037409519,9.809697269527266,0.0,0.0,0.0,0.0,0.0,0.0,0.0,0.0,0.0
2025/04/09 10:24:49.149174682,1744187089,148036350,mA1/imu,0.7049044896705227,0.7093016520004755,0.00012965945354870745,0.0009000556441648639,0.0,0.0,0.0,0.0,0.0,0.0,0.0,0.0,0.0,-0.0009955253114870889,-0.0005398320239391576,0.0005199480207202659,0.0,0.0,0.0,0.0,0.0,0.0,0.0,0.0,0.0,0.007352105267539925,-0.5928780674284551,9.808421868235493,0.0,0.0,0.0,0.0,0.0,0.0,0.0,0.0,0.0
2025/04/09 10:24:49.200264484,1744187089,199023400,mA1/imu,0.7049133907766632,0.7092927844064641,0.0001366450425099467,0.0009158716094871875,0.0,0.0,0.0,0.0,0.0,0.0,0.0,0.0,0.0,0.0007510598869645636,-6.150707451679015e-05,0.0004913531319024065,0.0,0.0,0.0,0.0,0.0,0.0,0.0,0.0,0.0,0.002166115623027629,-0.49606365982171197,9.808018484586606,0.0,0.0,0.0,0.0,0.0,0.0,0.0,0.0,0.0
2025/04/09 10:24:49.252605150,1744187089,250845729,mA1/imu,0.7049221980053101,0.7092840220154086,0.00015090491642138788,0.0009209238372125457,0.0,0.0,0.0,0.0,0.0,0.0,0.0,0.0,0.0,-0.0004281399597910361,0.0004827787057387223,0.0005078347119029056,0.0,0.0,0.0,0.0,0.0,0.0,0.0,0.0,0.0,0.0004013052123323906,0.687007461239983,9.810528542298103,0.0,0.0,0.0,0.0,0.0,0.0,0.0,0.0,0.0
2025/04/09 10:24:49.302726876,1744187089,301763314,mA1/imu,0.7049307144505659,0.7092755695535422,0.00016506104392289037,0.000909402861573951,0.0,0.0,0.0,0.0,0.0,0.0,0.0,0.0,0.0,-0.0009078170732602686,0.0008139452945130174,0.00041657190827425986,0.0,0.0,0.0,0.0,0.0,0.0,0.0,0.0,0.0,0.020927935783012087,0.600566970726131,9.810705036877177,0.0,0.0,0.0,0.0,0.0,0.0,0.0,0.0,0.0
2025/04/09 10:24:49.353629740,1744187089,351598843,mA1/imu,0.7049359244287826,0.7092704328370825,0.00016422406574595927,0.0008766888225028966,0.0,0.0,0.0,0.0,0.0,0.0,0.0,0.0,0.0,0.0013955685892885533,0.0010152749007031534,0.00024058190223541598,0.0,0.0,0.0,0.0,0.0,0.0,0.0,0.0,0.0,0.00583561220599098,-0.5179930513068073,9.809524467921346,0.0,0.0,0.0,0.0,0.0,0.0,0.0,0.0,0.0
2025/04/09 10:24:49.403414102,1744187089,402554853,mA1/imu,0.7049417441688125,0.7092647295409129,0.00014509141767092624,0.0008122228567368664,0.0,0.0,0.0,0.0,0.0,0.0,0.0,0.0,0.0,0.004121939522973792,0.0015149814473742064,0.0004231037495225155,0.0,0.0,0.0,0.0,0.0,0.0,0.0,0.0,0.0,-0.009771007120039251,-0.4088961177813668,9.809345923564972,0.0,0.0,0.0,0.0,0.0,0.0,0.0,0.0,0.0
2025/04/09 10:24:49.453091570,1744187089,452364734,mA1/imu,0.7049530361541234,0.7092536090153214,0.00012109233757522591,0.0007212852909009833,0.0,0.0,0.0,0.0,0.0,0.0,0.0,0.0,0.0,0.0042609652395272325,0.00213812501498023,0.0007793065197146124,0.0,0.0,0.0,0.0,0.0,0.0,0.0,0.0,0.0,-0.009185260459737499,0.17348780028192107,9.811710327517867,0.0,0.0,0.0,0.0,0.0,0.0,0.0,0.0,0.0
2025/04/09 10:24:49.504628133,1744187089,503325334,mA1/imu,0.7049502554575887,0.7092564697253704,5.650998057831299e-05,0.0006279248419364457,0.0,0.0,0.0,0.0,0.0,0.0,0.0,0.0,0.0,0.004317536875767082,0.0005907839016211405,-0.0004143129415235903,0.0,0.0,0.0,0.0,0.0,0.0,0.0,0.0,0.0,0.017277375217595658,0.7318058451777375,9.811389449323812,0.0,0.0,0.0,0.0,0.0,0.0,0.0,0.0,0.0
2025/04/09 10:24:49.555228337,1744187089,553129300,mA1/imu,0.7049375952161936,0.7092691414793901,-3.959488486566547e-05,0.0005198347275456371,0.0,0.0,0.0,0.0,0.0,0.0,0.0,0.0,0.0,0.006228296267076918,0.00023313144167711003,-0.0009224405344179324,0.0,0.0,0.0,0.0,0.0,0.0,0.0,0.0,0.0,0.016781681845091705,0.7971097762587339,9.81218153574702,0.0,0.0,0.0,0.0,0.0,0.0,0.0,0.0,0.0
2025/04/09 10:24:49.605971044,1744187089,604149539,mA1/imu,0.7049227381860803,0.709283969577279,-0.00013171728068958374,0.000407847391010327,0.0,0.0,0.0,0.0,0.0,0.0,0.0,0.0,0.0,0.008327014740298639,0.000704839669347096,-0.0008511609868600327,0.0,0.0,0.0,0.0,0.0,0.0,0.0,0.0,0.0,-0.003925466390451667,-0.34757273597354155,9.809869773847982,0.0,0.0,0.0,0.0,0.0,0.0,0.0,0.0,0.0
2025/04/09 10:24:49.655023176,1744187089,654140182,mA1/imu,0.7049070153976675,0.7092996310626578,-0.00021535334938130763,0.00029434752398634745,0.0,0.0,0.0,0.0,0.0,0.0,0.0,0.0,0.0,0.007067515585640291,0.0009202731444271031,-0.0009099032450196957,0.0,0.0,0.0,0.0,0.0,0.0,0.0,0.0,0.0,-0.004684525492088887,-0.46297118337342075,9.8118462348805,0.0,0.0,0.0,0.0,0.0,0.0,0.0,0.0,0.0
2025/04/09 10:24:49.706378226,1744187089,705532033,mA1/imu,-0.704889753904583,-0.7093167906079788,0.00031774305125622084,-0.00015633709244884615,0.0,0.0,0.0,0.0,0.0,0.0,0.0,0.0,0.0,0.007673020621121505,0.0010891990224382157,-0.0010100513818477983,0.0,0.0,0.0,0.0,0.0,0.0,0.0,0.0,0.0,-0.0015350296573613063,-0.32920178962321106,9.810138158824865,0.0,0.0,0.0,0.0,0.0,0.0,0.0,0.0,0.0
2025/04/09 10:24:49.757265191,1744187089,755424926,mA1/imu,-0.7048758225563031,-0.709330613536316,0.0003934445445875618,-2.6022276624826292e-05,0.0,0.0,0.0,0.0,0.0,0.0,0.0,0.0,0.0,0.005866654296975341,0.0025118200739797794,-0.00019965013007780874,0.0,0.0,0.0,0.0,0.0,0.0,0.0,0.0,0.0,-0.10189759447173932,0.5495600056360161,9.812102170675379,0.0,0.0,0.0,0.0,0.0,0.0,0.0,0.0,0.0
2025/04/09 10:24:49.797542975,1744187089,796596155,mA1/imu,-0.704881940048059,-0.7093245052506438,0.00042685579389232077,0.00012099233435595346,0.0,0.0,0.0,0.0,0.0,0.0,0.0,0.0,0.0,0.0046871442202373005,0.0036562015811264256,0.0007125230997357903,0.0,0.0,0.0,0.0,0.0,0.0,0.0,0.0,0.0,-0.03585678330241776,-0.04122476061133726,9.810470965084217,0.0,0.0,0.0,0.0,0.0,0.0,0.0,0.0,0.0
2025/04/09 10:24:49.848625702,1744187089,846746914,mA1/imu,-0.7049022067047654,-0.7093043185008262,0.00043550267020927994,0.00027032620042340626,0.0,0.0,0.0,0.0,0.0,0.0,0.0,0.0,0.0,0.003960673543023388,0.003889623768185681,0.0012398757345313516,0.0,0.0,0.0,0.0,0.0,0.0,0.0,0.0,0.0,0.012756939307572135,0.10441278777597454,9.810710944361265,0.0,0.0,0.0,0.0,0.0,0.0,0.0,0.0,0.0
2025/04/09 10:24:49.898814470,1744187089,897703409,mA1/imu,-0.7049272559829163,-0.7092793703370794,0.00042792904861983696,0.000394288423944316,0.0,0.0,0.0,0.0,0.0,0.0,0.0,0.0,0.0,0.002638406905396088,0.0035865330270144326,0.001524441177166554,0.0,0.0,0.0,0.0,0.0,0.0,0.0,0.0,0.0,-0.0034653775409071116,0.09471663893286668,9.809565538236814,0.0,0.0,0.0,0.0,0.0,0.0,0.0,0.0,0.0
2025/04/09 10:24:49.948403585,1744187089,947577028,mA1/imu,-0.70495892264249,-0.7092478509964941,0.0004040441224654904,0.0004898897239192917,0.0,0.0,0.0,0.0,0.0,0.0,0.0,0.0,0.0,0.0016034958340896868,0.003412578366399976,0.0021096711446555202,0.0,0.0,0.0,0.0,0.0,0.0,0.0,0.0,0.0,-0.03364509671272807,0.47505944767606306,9.808408242134977,0.0,0.0,0.0,0.0,0.0,0.0,0.0,0.0,0.0
2025/04/09 10:24:50.884642,1744187090,76795,mA1/imu,-0.7049992392823504,-0.7092077599073782,0.00035611053493136296,0.0005468855023486971,0.0,0.0,0.0,0.0,0.0,0.0,0.0,0.0,0.0,0.00010062338402280435,0.0026011270478700143,0.002343296751117068,0.0,0.0,0.0,0.0,0.0,0.0,0.0,0.0,0.0,0.009144969572325069,0.12707455149581426,9.808397113143801,0.0,0.0,0.0,0.0,0.0,0.0,0.0,0.0,0.0
2025/04/09 10:24:50.51101119,1744187090,49984683,mA1/imu,-0.7050412060235434,-0.7091660535079342,0.0003039535269971674,0.0005603330282273599,0.0,0.0,0.0,0.0,0.0,0.0,0.0,0.0,0.0,-0.0008324048117391079,0.0013352750698992413,0.0023799542562846607,0.0,0.0,0.0,0.0,0.0,0.0,0.0,0.0,0.0,0.009890976408544784,0.25324819968615164,9.81072582474973,0.0,0.0,0.0,0.0,0.0,0.0,0.0,0.0,0.0
2025/04/09 10:24:50.101632785,1744187090,100982493,mA1/imu,-0.7050837844351825,-0.7091237725654799,0.0002449860038439408,0.0005216233512885524,0.0,0.0,0.0,0.0,0.0,0.0,0.0,0.0,0.0,-0.004104032535901377,4.048085791818162e-05,0.0024152437677790483,0.0,0.0,0.0,0.0,0.0,0.0,0.0,0.0,0.0,0.00932157041915968,0.6607558798730929,9.809692214167542,0.0,0.0,0.0,0.0,0.0,0.0,0.0,0.0,0.0
2025/04/09 10:24:50.152405659,1744187090,150768383,mA1/imu,-0.7051266137368132,-0.7090812552027359,0.00019234275914382796,0.00044172891083341434,0.0,0.0,0.0,0.0,0.0,0.0,0.0,0.0,0.0,-0.004243363727776568,-0.0013759047474952324,0.002371837724301985,0.0,0.0,0.0,0.0,0.0,0.0,0.0,0.0,0.0,0.018308904696863075,0.10587905438927797,9.80926013923563,0.0,0.0,0.0,0.0,0.0,0.0,0.0,0.0,0.0
2025/04/09 10:24:50.203063578,1744187090,201735026,mA1/imu,-0.7051688556282077,-0.7090393265319977,0.00013983712754200237,0.00031452922455156004,0.0,0.0,0.0,0.0,0.0,0.0,0.0,0.0,0.0,-0.003605943248427344,-0.002603519952871214,0.0023874670656554116,0.0,0.0,0.0,0.0,0.0,0.0,0.0,0.0,0.0,0.0072940320093354705,-0.4030238930357131,9.807122289041452,0.0,0.0,0.0,0.0,0.0,0.0,0.0,0.0,0.0
2025/04/09 10:24:50.252673376,1744187090,251589875,mA1/imu,-0.7052112747017455,-0.7089971986142896,8.912298799510242e-05,0.00014982563781280243,0.0,0.0,0.0,0.0,0.0,0.0,0.0,0.0,0.0,-0.006768749461281683,-0.0036446556348969025,0.0023936871733003973,0.0,0.0,0.0,0.0,0.0,0.0,0.0,0.0,0.0,0.00883668117841523,0.6882507079273202,9.80942515500493,0.0,0.0,0.0,0.0,0.0,0.0,0.0,0.0,0.0
2025/04/09 10:24:50.303496962,1744187090,302549665,mA1/imu,-0.7052537809337505,-0.7089549356625524,4.565221581882091e-05,-3.992782178851789e-05,0.0,0.0,0.0,0.0,0.0,0.0,0.0,0.0,0.0,-0.007383593147180434,-0.004431803754118782,0.0024028323786557415,0.0,0.0,0.0,0.0,0.0,0.0,0.0,0.0,0.0,0.0036711076335127074,0.6836214615724742,9.810343005456085,0.0,0.0,0.0,0.0,0.0,0.0,0.0,0.0,0.0
2025/04/09 10:24:50.353938645,1744187090,352830323,mA1/imu,0.7052958895977061,0.7089130023692487,-4.1343252672803525e-06,0.00025133902465486653,0.0,0.0,0.0,0.0,0.0,0.0,0.0,0.0,0.0,-0.005973511240814146,-0.0051041339954052845,0.0023579748706215415,0.0,0.0,0.0,0.0,0.0,0.0,0.0,0.0,0.0,0.012391966117822617,-0.4603817283474151,9.807519623732443,0.0,0.0,0.0,0.0,0.0,0.0,0.0,0.0,0.0
2025/04/09 10:24:50.405451150,1744187090,404386956,mA1/imu,0.7053386202368597,0.7088703763670837,3.098261626731578e-05,0.00046834990101092853,0.0,0.0,0.0,0.0,0.0,0.0,0.0,0.0,0.0,-0.006003119909539239,-0.005164236083574393,0.002509799093414988,0.0,0.0,0.0,0.0,0.0,0.0,0.0,0.0,0.0,-0.006107730342973977,-0.46941485582347037,9.807323438949611,0.0,0.0,0.0,0.0,0.0,0.0,0.0,0.0,0.0
2025/04/09 10:24:50.455210454,1744187090,454227013,mA1/imu,0.7053873645281747,0.708821705022646,6.14945126886592e-05,0.00067280844979819,0.0,0.0,0.0,0.0,0.0,0.0,0.0,0.0,0.0,-0.005872961449425925,-0.00478537556658536,0.002918028524887847,0.0,0.0,0.0,0.0,0.0,0.0,0.0,0.0,0.0,-0.0037165870762271205,0.09632704409957207,9.808596257063845,0.0,0.0,0.0,0.0,0.0,0.0,0.0,0.0,0.0
2025/04/09 10:24:50.506066909,1744187090,505153611,mA1/imu,0.705430287666263,0.7087787575326019,8.150578667514587e-05,0.000880607995074296,0.0,0.0,0.0,0.0,0.0,0.0,0.0,0.0,0.0,-0.005219756551108128,-0.005327151052188956,0.0023004650961665303,0.0,0.0,0.0,0.0,0.0,0.0,0.0,0.0,0.0,0.00836479969758435,-0.44098309209470476,9.808984954891924,0.0,0.0,0.0,0.0,0.0,0.0,0.0,0.0,0.0
2025/04/09 10:24:50.557111502,1744187090,555011950,mA1/imu,0.7054696091411499,0.7087393558693222,9.37415080119108e-05,0.0010710894926317075,0.0,0.0,0.0,0.0,0.0,0.0,0.0,0.0,0.0,-0.005042116550869238,-0.0048278791312863075,0.002205219747148639,0.0,0.0,0.0,0.0,0.0,0.0,0.0,0.0,0.0,0.006250624527487923,-0.5374366756194501,9.810139238688576,0.0,0.0,0.0,0.0,0.0,0.0,0.0,0.0,0.0
2025/04/09 10:24:50.607974986,1744187090,606060092,mA1/imu,0.7055201933047175,0.7086887817483165,0.00010862727794971525,0.0012065087963202814,0.0,0.0,0.0,0.0,0.0,0.0,0.0,0.0,0.0,-0.004258593923930645,-0.0025131084668076095,0.0033138507847665514,0.0,0.0,0.0,0.0,0.0,0.0,0.0,0.0,0.0,-0.03680598967759054,0.06227497252898158,9.812413648403405,0.0,0.0,0.0,0.0,0.0,0.0,0.0,0.0,0.0
2025/04/09 10:24:50.647500164,1744187090,646603861,mA1/imu,0.705580564805298,0.7086285109579448,0.00012761060305077631,0.0012975908818451997,0.0,0.0,0.0,0.0,0.0,0.0,0.0,0.0,0.0,-0.0019872559178507683,-0.002304042579889604,0.0030908766914443933,0.0,0.0,0.0,0.0,0.0,0.0,0.0,0.0,0.0,0.06720588343404452,-0.5234809417472818,9.812459120923254,0.0,0.0,0.0,0.0,0.0,0.0,0.0,0.0,0.0
2025/04/09 10:24:50.698825759,1744187090,697547402,mA1/imu,0.7056227805230157,0.7085863200818013,0.00011368738960973316,0.0013804619070117742,0.0,0.0,0.0,0.0,0.0,0.0,0.0,0.0,0.0,-0.0018611490539480059,-0.003045996340960624,0.001888058358949055,0.0,0.0,0.0,0.0,0.0,0.0,0.0,0.0,0.0,0.06160014412341018,0.02870430638002877,9.817245965129919,0.0,0.0,0.0,0.0,0.0,0.0,0.0,0.0,0.0
2025/04/09 10:24:50.749716885,1744187090,747381994,mA1/imu,0.7056442147854277,0.7085648413550013,6.964385340707177e-05,0.0014501328051748483,0.0,0.0,0.0,0.0,0.0,0.0,0.0,0.0,0.0,-0.0004486488418150236,-0.002958948371085553,0.0009620986821198166,0.0,0.0,0.0,0.0,0.0,0.0,0.0,0.0,0.0,0.008012664254263677,0.222706523999974,9.813868452411034,0.0,0.0,0.0,0.0,0.0,0.0,0.0,0.0,0.0
2025/04/09 10:24:50.800508285,1744187090,798398110,mA1/imu,0.7056598447059939,0.7085492365085141,1.7683055098963478e-05,0.0014706121256473693,0.0,0.0,0.0,0.0,0.0,0.0,0.0,0.0,0.0,0.001830983573003771,-0.0014188341598972757,0.0008260089132659324,0.0,0.0,0.0,0.0,0.0,0.0,0.0,0.0,0.0,-0.0001884247402904292,0.10673126779003868,9.811999609190725,0.0,0.0,0.0,0.0,0.0,0.0,0.0,0.0,0.0
2025/04/09 10:24:50.849941715,1744187090,848763193,mA1/imu,0.7056730958913271,0.7085361020684043,-2.938606037879046e-05,0.001439769884688959,0.0,0.0,0.0,0.0,0.0,0.0,0.0,0.0,0.0,0.0026907729525458292,0.0001922538837538934,0.0006848037102675006,0.0,0.0,0.0,0.0,0.0,0.0,0.0,0.0,0.0,-0.0004029317746349695,0.21059018593493428,9.812175544550094,0.0,0.0,0.0,0.0,0.0,0.0,0.0,0.0,0.0
2025/04/09 10:24:50.901251951,1744187090,900132095,mA1/imu,0.7056758079143756,0.7085335370044409,-8.099806453413323e-05,0.00136912515255035,0.0,0.0,0.0,0.0,0.0,0.0,0.0,0.0,0.0,0.004397732357240006,0.0011055276456135253,-1.0766203605757374e-05,0.0,0.0,0.0,0.0,0.0,0.0,0.0,0.0,0.0,-0.0027290068807256755,-0.22930722010135163,9.812078589397169,0.0,0.0,0.0,0.0,0.0,0.0,0.0,0.0,0.0
2025/04/09 10:24:50.951614805,1744187090,950599433,mA1/imu,0.7056736530856201,0.7085358933924788,-0.0001246935486483682,0.0012520250942280845,0.0,0.0,0.0,0.0,0.0,0.0,0.0,0.0,0.0,0.00445768950423669,0.002723952629551431,-0.0002058131808209386,0.0,0.0,0.0,0.0,0.0,0.0,0.0,0.0,0.0,-0.0011926537473685266,0.658482307000205,9.813227886373687,0.0,0.0,0.0,0.0,0.0,0.0,0.0,0.0,0.0
2025/04/09 10:24:51.2783157,1744187091,1563020,mA1/imu,0.7056761077476633,0.7085337221493536,-0.0001481043404691137,0.0010833265413466228,0.0,0.0,0.0,0.0,0.0,0.0,0.0,0.0,0.0,0.0052408243575794095,0.0047214125254597785,0.00015289191292808965,0.0,0.0,0.0,0.0,0.0,0.0,0.0,0.0,0.0,0.0038577576596001938,0.24596775642062318,9.812522473812479,0.0,0.0,0.0,0.0,0.0,0.0,0.0,0.0,0.0
2025/04/09 10:24:51.53474662,1744187091,51449418,mA1/imu,0.7056776918124475,0.7085324263657089,-0.00016653808825811185,0.0008765452884691953,0.0,0.0,0.0,0.0,0.0,0.0,0.0,0.0,0.0,0.005480350443090182,0.00572063263574609,3.6092521567158514e-05,0.0,0.0,0.0,0.0,0.0,0.0,0.0,0.0,0.0,0.004572423873037225,0.6344944081242938,9.81046478207077,0.0,0.0,0.0,0.0,0.0,0.0,0.0,0.0,0.0
2025/04/09 10:24:51.103082025,1744187091,102399207,mA1/imu,0.7056854157517745,0.7085249819267184,-0.0001633675741544344,0.0006459814427776121,0.0,0.0,0.0,0.0,0.0,0.0,0.0,0.0,0.0,0.00571602845082048,0.0068881029725739755,0.00048535142370827677,0.0,0.0,0.0,0.0,0.0,0.0,0.0,0.0,0.0,0.01047501332606158,0.634454150937028,9.810548581333627,0.0,0.0,0.0,0.0,0.0,0.0,0.0,0.0,0.0
2025/04/09 10:24:51.154682988,1744187091,152317910,mA1/imu,0.7056936235694597,0.7085169870336407,-0.00015875018187960484,0.00040439653464638864,0.0,0.0,0.0,0.0,0.0,0.0,0.0,0.0,0.0,0.0070474370925754405,0.006985818044841748,0.000437857473938225,0.0,0.0,0.0,0.0,0.0,0.0,0.0,0.0,0.0,0.010648082770803369,0.10418805342771806,9.811162835557468,0.0,0.0,0.0,0.0,0.0,0.0,0.0,0.0,0.0
2025/04/09 10:24:51.204667614,1744187091,203298724,mA1/imu,0.7057009288782254,0.7085098070356234,-0.00014930808769908274,0.0001732681402167919,0.0,0.0,0.0,0.0,0.0,0.0,0.0,0.0,0.0,0.007059572998316915,0.006648546758625659,0.00038881420463224184,0.0,0.0,0.0,0.0,0.0,0.0,0.0,0.0,0.0,0.01292630874117406,0.1319546781983542,9.81046614436841,0.0,0.0,0.0,0.0,0.0,0.0,0.0,0.0,0.0
2025/04/09 10:24:51.254156202,1744187091,253063720,mA1/imu,-0.7057073701845673,-0.7085034142023542,0.00013618597004660157,3.441178480752331e-05,0.0,0.0,0.0,0.0,0.0,0.0,0.0,0.0,0.0,0.0063433392333372834,0.005939897473588957,0.0003499633766082582,0.0,0.0,0.0,0.0,0.0,0.0,0.0,0.0,0.0,0.013914147320809776,0.12744137698223418,9.809484608620476,0.0,0.0,0.0,0.0,0.0,0.0,0.0,0.0,0.0
2025/04/09 10:24:51.305151787,1744187091,304045556,mA1/imu,-0.7057217603112091,-0.708489048819466,0.00011506283731916011,0.00022690676561236032,0.0,0.0,0.0,0.0,0.0,0.0,0.0,0.0,0.0,0.003720364947751959,0.005672099619514845,0.0009054520674426586,0.0,0.0,0.0,0.0,0.0,0.0,0.0,0.0,0.0,0.018904876816732478,0.6353971381694735,9.809051173815622,0.0,0.0,0.0,0.0,0.0,0.0,0.0,0.0,0.0
2025/04/09 10:24:51.354540155,1744187091,353903038,mA1/imu,-0.7057381036381848,-0.7084727040101609,0.00010160653759581649,0.0003826510434527624,0.0,0.0,0.0,0.0,0.0,0.0,0.0,0.0,0.0,0.003542700518740552,0.004172678810861218,0.0009399186916945798,0.0,0.0,0.0,0.0,0.0,0.0,0.0,0.0,0.0,0.01950000154450833,0.372740155346452,9.808385182007648,0.0,0.0,0.0,0.0,0.0,0.0,0.0,0.0,0.0
2025/04/09 10:24:51.405710405,1744187091,404860107,mA1/imu,-0.705762837079551,-0.7084479985091258,8.387054009308473e-05,0.0004941371970482787,0.0,0.0,0.0,0.0,0.0,0.0,0.0,0.0,0.0,0.002919803767539305,0.002985618877115617,0.0015183559793278095,0.0,0.0,0.0,0.0,0.0,0.0,0.0,0.0,0.0,0.02286293959230702,0.22338037583625706,9.808097242024322,0.0,0.0,0.0,0.0,0.0,0.0,0.0,0.0,0.0
2025/04/09 10:24:51.456362140,1744187091,455246672,mA1/imu,-0.7057907269270633,-0.7084201810064968,6.746732332435127e-05,0.0005407167929262853,0.0,0.0,0.0,0.0,0.0,0.0,0.0,0.0,0.0,0.0013580725525172497,0.0009622641385072376,0.0016091935097662963,0.0,0.0,0.0,0.0,0.0,0.0,0.0,0.0,0.0,0.02264092518165054,0.1120315741213916,9.807247826975813,0.0,0.0,0.0,0.0,0.0,0.0,0.0,0.0,0.0
2025/04/09 10:24:51.508678183,1744187091,506230320,mA1/imu,-0.7058110700354104,-0.7083999302329944,7.264769842402598e-05,0.0005167046249866859,0.0,0.0,0.0,0.0,0.0,0.0,0.0,0.0,0.0,-0.002310133174469237,-0.001692732955920165,0.0010712983393016847,0.0,0.0,0.0,0.0,0.0,0.0,0.0,0.0,0.0,0.018916544029743826,0.11848571435342727,9.807566964693123,0.0,0.0,0.0,0.0,0.0,0.0,0.0,0.0,0.0
2025/04/09 10:24:51.549144720,1744187091,546055393,mA1/imu,-0.7058303437725449,-0.7083807737953096,9.652567495969084e-05,0.0004425041057255178,0.0,0.0,0.0,0.0,0.0,0.0,0.0,0.0,0.0,-0.002456315224987667,-0.0034529802931689223,0.0010988205984433378,0.0,0.0,0.0,0.0,0.0,0.0,0.0,0.0,0.0,0.017177363594202664,0.6017728844992574,9.80852402533344,0.0,0.0,0.0,0.0,0.0,0.0,0.0,0.0,0.0
2025/04/09 10:24:51.598606827,1744187091,596995049,mA1/imu,-0.7058616721517373,-0.708349625609813,9.303216994651347e-05,0.00031469128762760834,0.0,0.0,0.0,0.0,0.0,0.0,0.0,0.0,0.0,-0.0033510342373115408,-0.003799616784028379,0.002081011440920519,0.0,0.0,0.0,0.0,0.0,0.0,0.0,0.0,0.0,0.02057502980347147,-0.5576459126343418,9.806345515347214,0.0,0.0,0.0,0.0,0.0,0.0,0.0,0.0,0.0
2025/04/09 10:24:51.647617687,1744187091,646873858,mA1/imu,-0.7058994667735016,-0.7083120110664208,0.00010656428235790998,0.00016257915824922128,0.0,0.0,0.0,0.0,0.0,0.0,0.0,0.0,0.0,-0.005083384104949597,-0.00524115960726426,0.0021656593319773474,0.0,0.0,0.0,0.0,0.0,0.0,0.0,0.0,0.0,0.018651411083663947,0.031538863686884924,9.808629181207083,0.0,0.0,0.0,0.0,0.0,0.0,0.0,0.0,0.0
2025/04/09 10:24:51.698927231,1744187091,697755459,mA1/imu,-0.7059294735570417,-0.7082821181880232,0.00013092237095590649,-4.772732684497263e-05,0.0,0.0,0.0,0.0,0.0,0.0,0.0,0.0,0.0,-0.006488825526150397,-0.007117851020358869,0.0016133430409476137,0.0,0.0,0.0,0.0,0.0,0.0,0.0,0.0,0.0,0.012197477330938079,0.6392253052078354,9.80822093576939,0.0,0.0,0.0,0.0,0.0,0.0,0.0,0.0,0.0
2025/04/09 10:24:51.748542876,1744187091,747665045,mA1/imu,0.7059582499874284,0.7082533737490461,-0.0001513063020692161,0.00029146901095085186,0.0,0.0,0.0,0.0,0.0,0.0,0.0,0.0,0.0,-0.006234993732037002,-0.007663584281551712,0.001636260179944262,0.0,0.0,0.0,0.0,0.0,0.0,0.0,0.0,0.0,0.011942355113022704,0.07488095740284545,9.809098319627836,0.0,0.0,0.0,0.0,0.0,0.0,0.0,0.0,0.0
2025/04/09 10:24:51.799249665,1744187091,798581228,mA1/imu,0.7059873097618421,0.7082242509177517,-0.00016799225386122395,0.0005483117993875487,0.0,0.0,0.0,0.0,0.0,0.0,0.0,0.0,0.0,-0.0050754796420565745,-0.007747530295257196,0.0016545610947234573,0.0,0.0,0.0,0.0,0.0,0.0,0.0,0.0,0.0,0.008493629973238168,-0.44664471052590143,9.80860109456328,0.0,0.0,0.0,0.0,0.0,0.0,0.0,0.0,0.0
2025/04/09 10:24:51.850027966,1744187091,848478159,mA1/imu,0.7060166216198961,0.7081947823402684,-0.0001775520410176644,0.0008054425622760232,0.0,0.0,0.0,0.0,0.0,0.0,0.0,0.0,0.0,-0.0058915930108432496,-0.007376302305712457,0.0016656409113805664,0.0,0.0,0.0,0.0,0.0,0.0,0.0,0.0,0.0,0.008518972288813223,-0.020284419611553042,9.81016070361397,0.0,0.0,0.0,0.0,0.0,0.0,0.0,0.0,0.0
2025/04/09 10:24:51.901425285,1744187091,899738189,mA1/imu,0.7060369109067419,0.708174211082385,-0.00018111640020912083,0.0010650783804742208,0.0,0.0,0.0,0.0,0.0,0.0,0.0,0.0,0.0,-0.005914879374412246,-0.007167537271252159,0.0010476001259732866,0.0,0.0,0.0,0.0,0.0,0.0,0.0,0.0,0.0,0.0023321518536968903,-0.5151634991584522,9.8102843080458,0.0,0.0,0.0,0.0,0.0,0.0,0.0,0.0,0.0
2025/04/09 10:24:51.950586305,1744187091,949606124,mA1/imu,0.7060546965296441,0.7081560980165988,-0.0001768255362850573,0.001294250001756638,0.0,0.0,0.0,0.0,0.0,0.0,0.0,0.0,0.0,-0.006244058839910891,-0.005788288534943473,0.0010024548024031865,0.0,0.0,0.0,0.0,0.0,0.0,0.0,0.0,0.0,0.001786515467511525,-0.512033964429028,9.810269261159624,0.0,0.0,0.0,0.0,0.0,0.0,0.0,0.0,0.0
2025/04/09 10:24:52.1424269,1744187092,566967,mA1/imu,0.7060797399582784,0.7081307873130996,-0.00014714565545854638,0.0014721507856131227,0.0,0.0,0.0,0.0,0.0,0.0,0.0,0.0,0.0,-0.006639928048424339,-0.003411524880038321,0.001518250382530235,0.0,0.0,0.0,0.0,0.0,0.0,0.0,0.0,0.0,0.004642799686147985,0.3670347549348859,9.812269253275348,0.0,0.0,0.0,0.0,0.0,0.0,0.0,0.0,0.0
2025/04/09 10:24:52.51663153,1744187092,50393973,mA1/imu,0.7061066466310627,0.7081036954699048,-0.00010677779847408314,0.0015964472435823823,0.0,0.0,0.0,0.0,0.0,0.0,0.0,0.0,0.0,-0.004567741169572132,-0.001666599310067472,0.0015329161584151216,0.0,0.0,0.0,0.0,0.0,0.0,0.0,0.0,0.0,0.003717189162902982,0.11057864291136855,9.813037196058922,0.0,0.0,0.0,0.0,0.0,0.0,0.0,0.0,0.0
2025/04/09 10:24:52.103580402,1744187092,101315620,mA1/imu,0.7061239557852922,0.7080862302487386,-6.0496122477352206e-05,0.0016869909544055266,0.0,0.0,0.0,0.0,0.0,0.0,0.0,0.0,0.0,-0.0036361598500926876,-0.0006024848517936891,0.0007955079544166943,0.0,0.0,0.0,0.0,0.0,0.0,0.0,0.0,0.0,-0.0018388542270383716,0.6445944000024505,9.814629098790544,0.0,0.0,0.0,0.0,0.0,0.0,0.0,0.0,0.0
2025/04/09 10:24:52.152824283,1744187092,151699738,mA1/imu,0.7061362958651144,0.7080738519088932,-6.554906810740083e-06,0.0017180983184141951,0.0,0.0,0.0,0.0,0.0,0.0,0.0,0.0,0.0,-0.001405646632953262,0.0014432148201689796,0.0006627987621674066,0.0,0.0,0.0,0.0,0.0,0.0,0.0,0.0,0.0,-0.0004130298279625827,0.07553939652985713,9.813954044319678,0.0,0.0,0.0,0.0,0.0,0.0,0.0,0.0,0.0
2025/04/09 10:24:52.205229727,1744187092,202698448,mA1/imu,0.706144168259515,0.7080660473446301,5.8602809198368515e-05,0.0016978800135371136,0.0,0.0,0.0,0.0,0.0,0.0,0.0,0.0,0.0,-0.001151842707386841,0.0031409532093179485,0.00036923806911125576,0.0,0.0,0.0,0.0,0.0,0.0,0.0,0.0,0.0,-0.00031926469859117415,0.1248244095035515,9.813695987184607,0.0,0.0,0.0,0.0,0.0,0.0,0.0,0.0,0.0
2025/04/09 10:24:52.254856943,1744187092,252551909,mA1/imu,0.7061493609730455,0.7080610538984425,0.0001250187240894922,0.0016150293821307088,0.0,0.0,0.0,0.0,0.0,0.0,0.0,0.0,0.0,0.0008502355870383474,0.00491328380699607,0.0002472308188063683,0.0,0.0,0.0,0.0,0.0,0.0,0.0,0.0,0.0,0.00022383057577987295,0.02910361847072322,9.812972436611602,0.0,0.0,0.0,0.0,0.0,0.0,0.0,0.0,0.0
2025/04/09 10:24:52.304450554,1744187092,303448179,mA1/imu,0.7061600335600692,0.7080507037837304,0.00020544649912813831,0.001471620039938771,0.0,0.0,0.0,0.0,0.0,0.0,0.0,0.0,0.0,0.002524675298458548,0.0069233733037744995,0.0006500735827044146,0.0,0.0,0.0,0.0,0.0,0.0,0.0,0.0,0.0,0.00626242357002213,-0.05985781705536816,9.81248689706442,0.0,0.0,0.0,0.0,0.0,0.0,0.0,0.0,0.0
2025/04/09 10:24:52.354562803,1744187092,353382788,mA1/imu,0.7061711004081371,0.7080400024780635,0.0002838653296945218,0.0012850135014572895,0.0,0.0,0.0,0.0,0.0,0.0,0.0,0.0,0.0,0.002895409230407505,0.007826755126037546,0.0006087592118058587,0.0,0.0,0.0,0.0,0.0,0.0,0.0,0.0,0.0,0.00723829243800553,0.3032824230261547,9.812733319640918,0.0,0.0,0.0,0.0,0.0,0.0,0.0,0.0,0.0
2025/04/09 10:24:52.405383273,1744187092,404319563,mA1/imu,0.7061894476595447,0.7080220428461895,0.00036173439633903045,0.0010583035681048653,0.0,0.0,0.0,0.0,0.0,0.0,0.0,0.0,0.0,0.0039893765019195886,0.00879184859424736,0.001120225665401234,0.0,0.0,0.0,0.0,0.0,0.0,0.0,0.0,0.0,0.014036180203532691,-0.020904379986791847,9.8122600532013,0.0,0.0,0.0,0.0,0.0,0.0,0.0,0.0,0.0
2025/04/09 10:24:52.447804116,1744187092,445793226,mA1/imu,0.7062095962342607,0.7080022441802213,0.00041867867429511147,0.0008081649462058291,0.0,0.0,0.0,0.0,0.0,0.0,0.0,0.0,0.0,0.006542654859451567,0.008548484500449047,0.0011458912580800107,0.0,0.0,0.0,0.0,0.0,0.0,0.0,0.0,0.0,0.014404434929401782,-0.5286658272361,9.810683367966135,0.0,0.0,0.0,0.0,0.0,0.0,0.0,0.0,0.0
2025/04/09 10:24:52.497984338,1744187092,497023918,mA1/imu,0.7062301532146134,0.7079819568335415,0.00045611740175799875,0.0005580730497652703,0.0,0.0,0.0,0.0,0.0,0.0,0.0,0.0,0.0,0.006781880203330368,0.007794534033312817,0.0011706210692803522,0.0,0.0,0.0,0.0,0.0,0.0,0.0,0.0,0.0,0.016539860315227382,0.1964283577694991,9.809667869273214,0.0,0.0,0.0,0.0,0.0,0.0,0.0,0.0,0.0
2025/04/09 10:24:52.549085990,1744187092,547909538,mA1/imu,0.7062510621083764,0.7079612338100209,0.00047304823133383035,0.0003239110280069918,0.0,0.0,0.0,0.0,0.0,0.0,0.0,0.0,0.0,0.007108516722814377,0.0065824448212072,0.0011874412425651655,0.0,0.0,0.0,0.0,0.0,0.0,0.0,0.0,0.0,0.017867194272984298,0.08021021848856719,9.807876673199349,0.0,0.0,0.0,0.0,0.0,0.0,0.0,0.0,0.0
2025/04/09 10:24:52.599759250,1744187092,598904718,mA1/imu,0.7062706089401938,0.7079418078600542,0.0004600337815604919,0.00010954453682549014,0.0,0.0,0.0,0.0,0.0,0.0,0.0,0.0,0.0,0.007095441677626545,0.005059933527803382,0.0010775508263856674,0.0,0.0,0.0,0.0,0.0,0.0,0.0,0.0,0.0,0.017266107711202593,0.020556127500194032,9.80773838816067,0.0,0.0,0.0,0.0,0.0,0.0,0.0,0.0,0.0
2025/04/09 10:24:52.649768159,1744187092,648686588,mA1/imu,0.7062893685036215,0.7079231189799413,0.00042561926077414205,-6.633786521966685e-05,0.0,0.0,0.0,0.0,0.0,0.0,0.0,0.0,0.0,0.004823612958463344,0.0032788417269672596,0.0010470698048713747,0.0,0.0,0.0,0.0,0.0,0.0,0.0,0.0,0.0,0.01745175642952715,0.5764817308470217,9.80853654435482,0.0,0.0,0.0,0.0,0.0,0.0,0.0,0.0,0.0
2025/04/09 10:24:52.701757100,1744187092,699679513,mA1/imu,0.7062982139002724,0.7079143138193901,0.00034604140071337584,-0.00019387175250826523,0.0,0.0,0.0,0.0,0.0,0.0,0.0,0.0,0.0,0.006515908537844153,0.0005112309580567596,0.0003709986316747164,0.0,0.0,0.0,0.0,0.0,0.0,0.0,0.0,0.0,0.013856277608337821,-0.5181514511886713,9.806326998999412,0.0,0.0,0.0,0.0,0.0,0.0,0.0,0.0,0.0
2025/04/09 10:24:52.751231928,1744187092,749507035,mA1/imu,-0.7063037478822608,-0.7079088083657418,-0.00025022358949456817,0.0002686146355531522,0.0,0.0,0.0,0.0,0.0,0.0,0.0,0.0,0.0,0.004891989340530092,-0.0013105393282144733,0.00027956610418354517,0.0,0.0,0.0,0.0,0.0,0.0,0.0,0.0,0.0,0.01341944677080691,0.06359978993013614,9.807521976947982,0.0,0.0,0.0,0.0,0.0,0.0,0.0,0.0,0.0
2025/04/09 10:24:52.801319699,1744187092,800431037,mA1/imu,-0.7063090506010893,-0.7079035380578125,-0.00014293548711613726,0.00029225616456820045,0.0,0.0,0.0,0.0,0.0,0.0,0.0,0.0,0.0,0.004104826345097251,-0.0030597969501214013,0.00029370959239954887,0.0,0.0,0.0,0.0,0.0,0.0,0.0,0.0,0.0,0.013962691223768121,-0.56589044331579,9.80596916990492,0.0,0.0,0.0,0.0,0.0,0.0,0.0,0.0,0.0
2025/04/09 10:24:52.851126045,1744187092,850333842,mA1/imu,-0.7063137036232702,-0.707898915382072,-1.5004167615428448e-05,0.0002782979346131897,0.0,0.0,0.0,0.0,0.0,0.0,0.0,0.0,0.0,0.001625377371434856,-0.004608928330899652,0.00024412644901704788,0.0,0.0,0.0,0.0,0.0,0.0,0.0,0.0,0.0,0.01317322943092918,-0.027113113134648405,9.805752740917875,0.0,0.0,0.0,0.0,0.0,0.0,0.0,0.0,0.0
2025/04/09 10:24:52.902948508,1744187092,901826532,mA1/imu,-0.7063174852575377,-0.7078951534549061,0.00011697549490126633,0.0002192059683268709,0.0,0.0,0.0,0.0,0.0,0.0,0.0,0.0,0.0,0.0015833618255296656,-0.005869222697663583,0.00019620600039861583,0.0,0.0,0.0,0.0,0.0,0.0,0.0,0.0,0.0,0.010466534441381388,0.09280633608097567,9.806524380367092,0.0,0.0,0.0,0.0,0.0,0.0,0.0,0.0,0.0
2025/04/09 10:24:52.953135911,1744187092,951811899,mA1/imu,-0.7063204413167075,-0.7078922018921329,0.00023157758295532172,0.00010512041886897958,0.0,0.0,0.0,0.0,0.0,0.0,0.0,0.0,0.0,0.0011972090472198444,-0.006828412892756566,0.00014918167549804885,0.0,0.0,0.0,0.0,0.0,0.0,0.0,0.0,0.0,0.010481051732131633,-0.5098608578739932,9.808607725124402,0.0,0.0,0.0,0.0,0.0,0.0,0.0,0.0,0.0
2025/04/09 10:24:53.5364511,1744187093,4530755,mA1/imu,-0.7063225376084822,-0.7078900726016635,0.00034148532355622824,-3.696078253772182e-05,0.0,0.0,0.0,0.0,0.0,0.0,0.0,0.0,0.0,-0.0019957767783597637,-0.007284232014613942,0.0001032505974390402,0.0,0.0,0.0,0.0,0.0,0.0,0.0,0.0,0.0,0.007819184486161885,-0.01101246227452566,9.809170707486638,0.0,0.0,0.0,0.0,0.0,0.0,0.0,0.0,0.0
2025/04/09 10:24:53.57711882,1744187093,54442870,mA1/imu,-0.7063211630272634,-0.7078913620217432,0.0004365110184778426,-0.00020902857683171043,0.0,0.0,0.0,0.0,0.0,0.0,0.0,0.0,0.0,-0.003635171373322654,-0.00800135071591939,-0.0004403505239249881,0.0,0.0,0.0,0.0,0.0,0.0,0.0,0.0,0.0,0.05850058847163802,-0.04731003842898834,9.805051189648353,0.0,0.0,0.0,0.0,0.0,0.0,0.0,0.0,0.0
2025/04/09 10:24:53.106247413,1744187093,105392421,mA1/imu,-0.7063045132366638,-0.7079078229438883,0.0005227149419522886,-0.00041900531402113236,0.0,0.0,0.0,0.0,0.0,0.0,0.0,0.0,0.0,-0.005037395436822519,-0.008175816165472553,-0.0010244725821889282,0.0,0.0,0.0,0.0,0.0,0.0,0.0,0.0,0.0,-8.459563104744848e-05,0.5856638390942873,9.810063959721521,0.0,0.0,0.0,0.0,0.0,0.0,0.0,0.0,0.0
2025/04/09 10:24:53.155960626,1744187093,155257767,mA1/imu,0.7062851095937007,0.7079269807641997,-0.0005740241567771769,0.0006358998082165477,0.0,0.0,0.0,0.0,0.0,0.0,0.0,0.0,0.0,-0.006154814136258649,-0.00712629953058425,-0.0011265765429121846,0.0,0.0,0.0,0.0,0.0,0.0,0.0,0.0,0.0,-0.0010051606543636411,0.3965155156380468,9.811253991195823,0.0,0.0,0.0,0.0,0.0,0.0,0.0,0.0,0.0
2025/04/09 10:24:53.202274798,1744187093,200121798,mA1/imu,0.7062671611297988,0.707944665357933,-0.0005845129652453471,0.0008403841339094731,0.0,0.0,0.0,0.0,0.0,0.0,0.0,0.0,0.0,-0.0057454862968492285,-0.0054562212297237685,-0.0009967142558476973,0.0,0.0,0.0,0.0,0.0,0.0,0.0,0.0,0.0,-8.023131331545696e-06,-0.602413512941802,9.81146562497363,0.0,0.0,0.0,0.0,0.0,0.0,0.0,0.0,0.0
2025/04/09 10:24:53.249126797,1744187093,248114403,mA1/imu,0.7062486259545516,0.7079629338409201,-0.0005574290935958523,0.0010256302795768855,0.0,0.0,0.0,0.0,0.0,0.0,0.0,0.0,0.0,-0.00669800055563385,-0.003790323738297826,-0.0010618803007519224,0.0,0.0,0.0,0.0,0.0,0.0,0.0,0.0,0.0,-0.0005282610443692916,-0.0031884533531379516,9.813218042557486,0.0,0.0,0.0,0.0,0.0,0.0,0.0,0.0,0.0
2025/04/09 10:24:53.302757498,1744187093,299055085,mA1/imu,0.7062289458591824,0.7079823641407841,-0.0004910132365801652,0.0011861712589142678,0.0,0.0,0.0,0.0,0.0,0.0,0.0,0.0,0.0,-0.006839468949664257,-0.0019055806057917438,-0.0011256984415409742,0.0,0.0,0.0,0.0,0.0,0.0,0.0,0.0,0.0,-0.0007908642425048518,-0.3003807684459595,9.814170711534532,0.0,0.0,0.0,0.0,0.0,0.0,0.0,0.0,0.0
2025/04/09 10:24:53.350256007,1744187093,349379743,mA1/imu,0.7062081921497599,0.7080029114488356,-0.00039473302814294596,0.001308016198826865,0.0,0.0,0.0,0.0,0.0,0.0,0.0,0.0,0.0,-0.007125786360860794,8.715327067423518e-05,-0.0011781604251609949,0.0,0.0,0.0,0.0,0.0,0.0,0.0,0.0,0.0,-0.0016441271814123457,0.6058057043499485,9.812131535356666,0.0,0.0,0.0,0.0,0.0,0.0,0.0,0.0,0.0
2025/04/09 10:24:53.401017466,1744187093,400303961,mA1/imu,0.7061946291268705,0.7080163604732265,-0.00025647318427047107,0.0013832267037203316,0.0,0.0,0.0,0.0,0.0,0.0,0.0,0.0,0.0,-0.005914748901882334,0.0026060620045678337,-0.0006732481841933719,0.0,0.0,0.0,0.0,0.0,0.0,0.0,0.0,0.0,0.0025321155734684096,0.6618143048416977,9.81419013917518,0.0,0.0,0.0,0.0,0.0,0.0,0.0,0.0,0.0
2025/04/09 10:24:53.453274046,1744187093,451056150,mA1/imu,0.7061826848553682,0.7080282312578005,-8.634037351307633e-05,0.0014254465105436067,0.0,0.0,0.0,0.0,0.0,0.0,0.0,0.0,0.0,-0.006017096277451253,0.004243637936820783,-0.0006595979861885083,0.0,0.0,0.0,0.0,0.0,0.0,0.0,0.0,0.0,0.004645126565409118,0.6095227528116259,9.81323784192056,0.0,0.0,0.0,0.0,0.0,0.0,0.0,0.0,0.0
2025/04/09 10:24:53.504296810,1744187093,502029704,mA1/imu,0.7061708995713967,0.7080399930989276,8.897963555605244e-05,0.0014215673109064116,0.0,0.0,0.0,0.0,0.0,0.0,0.0,0.0,0.0,-0.005236599551965136,0.005578178668360582,-0.0006536569940570347,0.0,0.0,0.0,0.0,0.0,0.0,0.0,0.0,0.0,0.0066192614057308564,0.6042334305722261,9.812220865326408,0.0,0.0,0.0,0.0,0.0,0.0,0.0,0.0,0.0
2025/04/09 10:24:53.553999570,1744187093,551840249,mA1/imu,0.7061591821209006,0.7080517150902607,0.00026818657554399073,0.0013807027347289393,0.0,0.0,0.0,0.0,0.0,0.0,0.0,0.0,0.0,-0.004252711871429627,0.006607292198282479,-0.0006556345241624158,0.0,0.0,0.0,0.0,0.0,0.0,0.0,0.0,0.0,0.006462678328239359,0.5978481890530846,9.813751731468324,0.0,0.0,0.0,0.0,0.0,0.0,0.0,0.0,0.0
2025/04/09 10:24:53.604106855,1744187093,602868319,mA1/imu,0.7061386090817683,0.7080722568871688,0.00043571294009156334,0.0013243658900704528,0.0,0.0,0.0,0.0,0.0,0.0,0.0,0.0,0.0,-0.003126348182164994,0.006471629746567903,-0.0012632880315801085,0.0,0.0,0.0,0.0,0.0,0.0,0.0,0.0,0.0,0.005979436494705151,0.38297557694335654,9.811842677898154,0.0,0.0,0.0,0.0,0.0,0.0,0.0,0.0,0.0
2025/04/09 10:24:53.654426469,1744187093,652715993,mA1/imu,0.7061154529817962,0.708095410517053,0.000582039971570024,0.001232028599583671,0.0,0.0,0.0,0.0,0.0,0.0,0.0,0.0,0.0,-0.00039942394376993605,0.006889686897968148,-0.0013171206161684851,0.0,0.0,0.0,0.0,0.0,0.0,0.0,0.0,0.0,0.005017526827100126,-0.5585012246868827,9.809851526873201,0.0,0.0,0.0,0.0,0.0,0.0,0.0,0.0,0.0
2025/04/09 10:24:53.704557066,1744187093,703606991,mA1/imu,0.7061035095632845,0.7081074043978904,0.0007266393946312845,0.0010998247520279704,0.0,0.0,0.0,0.0,0.0,0.0,0.0,0.0,0.0,-0.0005003038613782156,0.00835742193971444,-0.00022008808406216715,0.0,0.0,0.0,0.0,0.0,0.0,0.0,0.0,0.0,-0.036630211041987604,0.59857000420158,9.812020726893323,0.0,0.0,0.0,0.0,0.0,0.0,0.0,0.0,0.0
2025/04/09 10:24:53.754329329,1744187093,753515910,mA1/imu,0.7061042227011165,0.7081067985062567,0.0008499518081861562,0.0009306851214600577,0.0,0.0,0.0,0.0,0.0,0.0,0.0,0.0,0.0,0.0022831633411435383,0.007913585252594516,8.724601050707402e-05,0.0,0.0,0.0,0.0,0.0,0.0,0.0,0.0,0.0,0.01776847512347147,-0.3149311621448273,9.808637937417581,0.0,0.0,0.0,0.0,0.0,0.0,0.0,0.0,0.0
2025/04/09 10:24:53.806043071,1744187093,804961997,mA1/imu,0.7061144147368198,0.7080967261102662,0.0009455233263810098,0.0007521691568167349,0.0,0.0,0.0,0.0,0.0,0.0,0.0,0.0,0.0,0.0018156407425842156,0.0072676574494133835,0.0007201080235903412,0.0,0.0,0.0,0.0,0.0,0.0,0.0,0.0,0.0,0.023974474917668468,0.5633656567366915,9.8092050769375,0.0,0.0,0.0,0.0,0.0,0.0,0.0,0.0,0.0
2025/04/09 10:24:53.855819679,1744187093,854758595,mA1/imu,0.706128730391151,0.7080825600073503,0.000986974339316782,0.0005746401237388966,0.0,0.0,0.0,0.0,0.0,0.0,0.0,0.0,0.0,0.004372320080486871,0.005440840627215576,0.0008754390230379379,0.0,0.0,0.0,0.0,0.0,0.0,0.0,0.0,0.0,0.023761593667505423,0.036434603260026635,9.809387849512778,0.0,0.0,0.0,0.0,0.0,0.0,0.0,0.0,0.0
2025/04/09 10:24:53.907691982,1744187093,905688895,mA1/imu,0.7061457875389944,0.7080656711142717,0.0009782249738181004,0.00041857655245770766,0.0,0.0,0.0,0.0,0.0,0.0,0.0,0.0,0.0,0.006704614794933196,0.00329111359460602,0.0010264893484337818,0.0,0.0,0.0,0.0,0.0,0.0,0.0,0.0,0.0,0.024153409265628287,-0.41183824784036643,9.807412150338289,0.0,0.0,0.0,0.0,0.0,0.0,0.0,0.0,0.0
2025/04/09 10:24:53.957303349,1744187093,955505438,mA1/imu,0.7061654757613873,0.7080461746682275,0.0009213949053157304,0.000293958860608753,0.0,0.0,0.0,0.0,0.0,0.0,0.0,0.0,0.0,0.006679227595883413,0.0009792002640561942,0.0011648549402443278,0.0,0.0,0.0,0.0,0.0,0.0,0.0,0.0,0.0,0.024568172499373417,-0.2149736374940084,9.806635711127031,0.0,0.0,0.0,0.0,0.0,0.0,0.0,0.0,0.0
2025/04/09 10:24:53.998392961,1744187093,996415910,mA1/imu,0.706178617206953,0.7080332461448959,0.0008002402589911774,0.0002063218959958212,0.0,0.0,0.0,0.0,0.0,0.0,0.0,0.0,0.0,0.0060300363395016324,-0.0019171892785615785,0.0006759975422089782,0.0,0.0,0.0,0.0,0.0,0.0,0.0,0.0,0.0,0.01936352281451577,0.24750573823556865,9.807178258413549,0.0,0.0,0.0,0.0,0.0,0.0,0.0,0.0,0.0
2025/04/09 10:24:54.48762715,1744187094,47747456,mA1/imu,0.7061913725738667,0.7080207017959109,0.0006378645626911664,0.00015575449785329082,0.0,0.0,0.0,0.0,0.0,0.0,0.0,0.0,0.0,0.005156200910203327,-0.003935481708033635,0.0007401473013102011,0.0,0.0,0.0,0.0,0.0,0.0,0.0,0.0,0.0,0.017961147263024245,0.37868527023952386,9.807257889318391,0.0,0.0,0.0,0.0,0.0,0.0,0.0,0.0,0.0
2025/04/09 10:24:54.100901770,1744187094,98710109,mA1/imu,0.7062035469719198,0.7080087148511073,0.00043824395930115007,0.00013372133446677386,0.0,0.0,0.0,0.0,0.0,0.0,0.0,0.0,0.0,0.00709607126412824,-0.005665322471308872,0.000678478607081568,0.0,0.0,0.0,0.0,0.0,0.0,0.0,0.0,0.0,0.014366189033837021,-0.09441045153546897,9.808811378213393,0.0,0.0,0.0,0.0,0.0,0.0,0.0,0.0,0.0
2025/04/09 10:24:54.150490836,1744187094,148515862,mA1/imu,0.7062158776747915,0.7079965111035597,0.00022633883800462996,0.00015217076328594262,0.0,0.0,0.0,0.0,0.0,0.0,0.0,0.0,0.0,0.004602483690591876,-0.0070206511434327675,0.0006943588410875949,0.0,0.0,0.0,0.0,0.0,0.0,0.0,0.0,0.0,0.014498585589900798,0.5434583989536094,9.808128848828877,0.0,0.0,0.0,0.0,0.0,0.0,0.0,0.0,0.0
2025/04/09 10:24:54.200542746,1744187094,199472950,mA1/imu,0.7062172931819154,0.7079951203332769,-1.4909322116991679e-05,0.00021017323657493165,0.0,0.0,0.0,0.0,0.0,0.0,0.0,0.0,0.0,0.0047603222564896585,-0.009109932024121485,-0.00019031961607483646,0.0,0.0,0.0,0.0,0.0,0.0,0.0,0.0,0.0,0.02657799219034416,-0.2723741255296885,9.808181100454652,0.0,0.0,0.0,0.0,0.0,0.0,0.0,0.0,0.0
2025/04/09 10:24:54.251271894,1744187094,249410803,mA1/imu,0.7062117448487486,0.708000575400885,-0.00025503689137805697,0.0003026976803397765,0.0,0.0,0.0,0.0,0.0,0.0,0.0,0.0,0.0,0.003969725285159749,-0.009433715615902488,-0.0003396051847640229,0.0,0.0,0.0,0.0,0.0,0.0,0.0,0.0,0.0,0.004842734154562826,-0.24167505815230325,9.809037451714008,0.0,0.0,0.0,0.0,0.0,0.0,0.0,0.0,0.0
2025/04/09 10:24:54.302472947,1744187094,300421442,mA1/imu,-0.7062128055228172,-0.70799936299712,0.0004671409499993629,-0.00039634656181396005,0.0,0.0,0.0,0.0,0.0,0.0,0.0,0.0,0.0,0.002104484272953156,-0.008365769051467657,0.00014161612293015676,0.0,0.0,0.0,0.0,0.0,0.0,0.0,0.0,0.0,0.005259670414256116,-0.04153581607392507,9.810051358144397,0.0,0.0,0.0,0.0,0.0,0.0,0.0,0.0,0.0
2025/04/09 10:24:54.352388639,1744187094,350300444,mA1/imu,-0.7062152815138797,-0.7079966883180054,0.0006438464922807616,-0.0005009478048969,0.0,0.0,0.0,0.0,0.0,0.0,0.0,0.0,0.0,0.001199830181166821,-0.007613124915437119,0.00014988584114882444,0.0,0.0,0.0,0.0,0.0,0.0,0.0,0.0,0.0,0.004140165929125455,-0.37060084654834685,9.80932157027673,0.0,0.0,0.0,0.0,0.0,0.0,0.0,0.0,0.0
2025/04/09 10:24:54.402948293,1744187094,401283678,mA1/imu,-0.706221040063093,-0.7079907272140058,0.0007844847843856481,-0.000597774881921133,0.0,0.0,0.0,0.0,0.0,0.0,0.0,0.0,0.0,0.0013888245971818325,-0.006169778985630855,0.00038343522559028723,0.0,0.0,0.0,0.0,0.0,0.0,0.0,0.0,0.0,0.0036290290412440505,-0.5520230537854921,9.809709089674504,0.0,0.0,0.0,0.0,0.0,0.0,0.0,0.0,0.0
2025/04/09 10:24:54.451970950,1744187094,451134244,mA1/imu,-0.7062281704181892,-0.7079834208325804,0.0008728030434679502,-0.0006966698083619721,0.0,0.0,0.0,0.0,0.0,0.0,0.0,0.0,0.0,-0.0013596862240345287,-0.004672542498033913,0.00042198448454363664,0.0,0.0,0.0,0.0,0.0,0.0,0.0,0.0,0.0,0.003041755510501308,-0.02559480782592084,9.81228788948003,0.0,0.0,0.0,0.0,0.0,0.0,0.0,0.0,0.0
2025/04/09 10:24:54.504217677,1744187094,502094077,mA1/imu,-0.706227138714923,-0.7079842785471165,0.0009234350174178804,-0.0007982107617818852,0.0,0.0,0.0,0.0,0.0,0.0,0.0,0.0,0.0,-0.0014166761029461882,-0.003672351536464369,-0.0001490882628670165,0.0,0.0,0.0,0.0,0.0,0.0,0.0,0.0,0.0,-0.0014359097628619255,-0.5668210033040022,9.811252376046388,0.0,0.0,0.0,0.0,0.0,0.0,0.0,0.0,0.0
2025/04/09 10:24:54.555431215,1744187094,553399539,mA1/imu,-0.7062240640563265,-0.7079872432650132,0.0009177481875621893,-0.0008902022448935807,0.0,0.0,0.0,0.0,0.0,0.0,0.0,0.0,0.0,-0.003113391994244712,-0.0016045972491413295,-0.00018052565298140534,0.0,0.0,0.0,0.0,0.0,0.0,0.0,0.0,0.0,-0.0009588103712769372,0.02421047150381918,9.811981592909708,0.0,0.0,0.0,0.0,0.0,0.0,0.0,0.0,0.0
2025/04/09 10:24:54.606561876,1744187094,604336042,mA1/imu,0.7062203939693477,0.7079908869204556,-0.0008609744785089499,0.0009580721859729456,0.0,0.0,0.0,0.0,0.0,0.0,0.0,0.0,0.0,-0.0041604216997824925,0.0005483568782939214,-0.0002171240066943304,0.0,0.0,0.0,0.0,0.0,0.0,0.0,0.0,0.0,-0.0011095956451187723,0.6469629920751064,9.81332858295529,0.0,0.0,0.0,0.0,0.0,0.0,0.0,0.0,0.0
2025/04/09 10:24:54.655831631,1744187094,654132646,mA1/imu,0.706216039549507,0.707995290373751,-0.000746512682901918,0.00100846934091311,0.0,0.0,0.0,0.0,0.0,0.0,0.0,0.0,0.0,-0.004865453364854087,0.002630114907274355,-0.00026276891447189255,0.0,0.0,0.0,0.0,0.0,0.0,0.0,0.0,0.0,-0.0005062272381843903,0.6495180688927341,9.81274797702738,0.0,0.0,0.0,0.0,0.0,0.0,0.0,0.0,0.0
2025/04/09 10:24:54.707293935,1744187094,705248603,mA1/imu,0.7062020141364698,0.7080093657999578,-0.0005927864377422581,0.0010496539305918427,0.0,0.0,0.0,0.0,0.0,0.0,0.0,0.0,0.0,-0.005544614101310016,0.003846894710043025,-0.0009255515423254531,0.0,0.0,0.0,0.0,0.0,0.0,0.0,0.0,0.0,-0.0024120044683842226,0.1127884987206156,9.811569463049235,0.0,0.0,0.0,0.0,0.0,0.0,0.0,0.0,0.0
2025/04/09 10:24:54.755806929,1744187094,754972278,mA1/imu,0.7061843030108157,0.7080271435374395,-0.00040395977878065136,0.0010634904041509148,0.0,0.0,0.0,0.0,0.0,0.0,0.0,0.0,0.0,-0.005791543740852699,0.005642671863739344,-0.001043788195159454,0.0,0.0,0.0,0.0,0.0,0.0,0.0,0.0,0.0,-0.0019426009681548784,0.6549502751865294,9.813438335151647,0.0,0.0,0.0,0.0,0.0,0.0,0.0,0.0,0.0
2025/04/09 10:24:54.807975209,1744187094,805987897,mA1/imu,0.7061629655563775,0.7080485283071786,-0.0001789645323793259,0.0010562245770926746,0.0,0.0,0.0,0.0,0.0,0.0,0.0,0.0,0.0,-0.0056063665719155,0.007119405191130825,-0.001277140491556326,0.0,0.0,0.0,0.0,0.0,0.0,0.0,0.0,0.0,-0.0008593940323488938,0.04686860083569664,9.811511477907993,0.0,0.0,0.0,0.0,0.0,0.0,0.0,0.0,0.0
2025/04/09 10:24:54.859863296,1744187094,855776557,mA1/imu,0.7061412506989961,0.7080702551261799,6.864587008651189e-05,0.0010213493763701958,0.0,0.0,0.0,0.0,0.0,0.0,0.0,0.0,0.0,-0.004782793690827935,0.0087658750459837,-0.0009285443198746704,0.0,0.0,0.0,0.0,0.0,0.0,0.0,0.0,0.0,-0.049955881760218465,-0.5364174400388759,9.806320333469873,0.0,0.0,0.0,0.0,0.0,0.0,0.0,0.0,0.0
2025/04/09 10:24:54.898542072,1744187094,896597438,mA1/imu,0.7061357234120538,0.7080757987757204,0.00034420498402441054,0.0009406552981053818,0.0,0.0,0.0,0.0,0.0,0.0,0.0,0.0,0.0,-0.004296674135704815,0.010758821478229761,0.00011105330548462507,0.0,0.0,0.0,0.0,0.0,0.0,0.0,0.0,0.0,-0.033221481264672836,-0.13466412266846664,9.808979703556028,0.0,0.0,0.0,0.0,0.0,0.0,0.0,0.0,0.0
2025/04/09 10:24:54.947071102,1744187094,946448555,mA1/imu,0.7061408548129764,0.708070611747179,0.0006285441471683419,0.0008407593174703823,0.0,0.0,0.0,0.0,0.0,0.0,0.0,0.0,0.0,-0.004858787003570274,0.01063707583000359,0.0003066735175245022,0.0,0.0,0.0,0.0,0.0,0.0,0.0,0.0,0.0,0.014463681590538697,-0.0062067051565141244,9.811581309120024,0.0,0.0,0.0,0.0,0.0,0.0,0.0,0.0,0.0
2025/04/09 10:24:54.999570646,1744187094,997784151,mA1/imu,0.706154168449158,0.7080571871049365,0.0008863966752700426,0.0007242042924765763,0.0,0.0,0.0,0.0,0.0,0.0,0.0,0.0,0.0,-0.00407963277807312,0.010165973046728364,0.0008724838329478507,0.0,0.0,0.0,0.0,0.0,0.0,0.0,0.0,0.0,0.020924886178273143,0.6150999560927489,9.810779619594424,0.0,0.0,0.0,0.0,0.0,0.0,0.0,0.0,0.0
2025/04/09 10:24:55.49354019,1744187095,47293841,mA1/imu,0.7061700473964092,0.7080411382818133,0.0011068971077790742,0.0006208377730048248,0.0,0.0,0.0,0.0,0.0,0.0,0.0,0.0,0.0,-0.003116732707498943,0.008397009296030216,0.0009405204481953194,0.0,0.0,0.0,0.0,0.0,0.0,0.0,0.0,0.0,0.0217662580397902,-0.021413314592782434,9.809236174077785,0.0,0.0,0.0,0.0,0.0,0.0,0.0,0.0,0.0
2025/04/09 10:24:55.99424539,1744187095,98302888,mA1/imu,0.7061871885359708,0.7080238520235368,0.0012650602757638785,0.0005285223861952544,0.0,0.0,0.0,0.0,0.0,0.0,0.0,0.0,0.0,-0.0019072987158830343,0.006155204288723435,0.0010086921294395965,0.0,0.0,0.0,0.0,0.0,0.0,0.0,0.0,0.0,0.023622728123669914,-0.019467392756760328,9.808684410416856,0.0,0.0,0.0,0.0,0.0,0.0,0.0,0.0,0.0
2025/04/09 10:24:55.148833267,1744187095,148057270,mA1/imu,0.7062055321120909,0.7080054235282038,0.001361663646597146,0.00046102173567557026,0.0,0.0,0.0,0.0,0.0,0.0,0.0,0.0,0.0,-0.000775854838093926,0.0035814296586473768,0.0010621009435077522,0.0,0.0,0.0,0.0,0.0,0.0,0.0,0.0,0.0,0.023754559543803275,-0.26174778903328055,9.808658334566854,0.0,0.0,0.0,0.0,0.0,0.0,0.0,0.0,0.0
2025/04/09 10:24:55.202941627,1744187095,199095462,mA1/imu,0.7062109284815594,0.7080000447897098,0.0013675932680664773,0.0004367603870431721,0.0,0.0,0.0,0.0,0.0,0.0,0.0,0.0,0.0,-0.00014155211558278139,-0.0008216389580392226,-0.00019007948921242207,0.0,0.0,0.0,0.0,0.0,0.0,0.0,0.0,0.0,0.0683299419344377,0.5551736219106431,9.809514375186305,0.0,0.0,0.0,0.0,0.0,0.0,0.0,0.0,0.0
2025/04/09 10:24:55.249659131,1744187095,248880357,mA1/imu,0.7062026514025012,0.7080084310471955,0.0012927926626104516,0.0004532166120603595,0.0,0.0,0.0,0.0,0.0,0.0,0.0,0.0,0.0,0.0018273328818479255,-0.0035089834809606756,-0.0005012697417528405,0.0,0.0,0.0,0.0,0.0,0.0,0.0,0.0,0.0,0.014323423920707085,0.24625081074201258,9.809651251502409,0.0,0.0,0.0,0.0,0.0,0.0,0.0,0.0,0.0
2025/04/09 10:24:55.302668395,1744187095,299970778,mA1/imu,0.7062013405397293,0.7080099364842566,0.0011688439489768933,0.00047985755342933625,0.0,0.0,0.0,0.0,0.0,0.0,0.0,0.0,0.0,0.0036946266089835215,-0.0050308617797024625,8.101562358232551e-07,0.0,0.0,0.0,0.0,0.0,0.0,0.0,0.0,0.0,0.015544112081451837,-0.19234763444719272,9.809712515773448,0.0,0.0,0.0,0.0,0.0,0.0,0.0,0.0,0.0
2025/04/09 10:24:55.350776143,1744187095,349765754,mA1/imu,0.706201538047794,0.708009978835833,0.000991741306365868,0.0005234281181278252,0.0,0.0,0.0,0.0,0.0,0.0,0.0,0.0,0.0,0.005104302604141228,-0.007007582776250708,-2.924218327483013e-06,0.0,0.0,0.0,0.0,0.0,0.0,0.0,0.0,0.0,0.015524656358565345,-0.5624773921551297,9.807484833277897,0.0,0.0,0.0,0.0,0.0,0.0,0.0,0.0,0.0
2025/04/09 10:24:55.403902687,1744187095,400750626,mA1/imu,0.7062016389807391,0.7080101094154726,0.0007691743979359495,0.0005817535164869483,0.0,0.0,0.0,0.0,0.0,0.0,0.0,0.0,0.0,0.005565658851147208,-0.008512311602223441,-1.0182445201903309e-05,0.0,0.0,0.0,0.0,0.0,0.0,0.0,0.0,0.0,0.012059922696567133,-0.5863219043645133,9.808172669097416,0.0,0.0,0.0,0.0,0.0,0.0,0.0,0.0,0.0
2025/04/09 10:24:55.451745150,1744187095,450539269,mA1/imu,0.7062016355443631,0.7080102861638242,0.0005129691225669934,0.0006492329053794453,0.0,0.0,0.0,0.0,0.0,0.0,0.0,0.0,0.0,0.004171515323803058,-0.009496326872580748,-1.4132092961893482e-05,0.0,0.0,0.0,0.0,0.0,0.0,0.0,0.0,0.0,0.010658785570902595,-0.0905623937854508,9.811217715003481,0.0,0.0,0.0,0.0,0.0,0.0,0.0,0.0,0.0
2025/04/09 10:24:55.503860862,1744187095,502950705,mA1/imu,0.7062016026271642,0.7080104030417327,0.00023235168168304668,0.0007152930896519848,0.0,0.0,0.0,0.0,0.0,0.0,0.0,0.0,0.0,0.004180152521665541,-0.009896769991140999,-1.2414152605046543e-05,0.0,0.0,0.0,0.0,0.0,0.0,0.0,0.0,0.0,0.007347059480202487,0.5158044643488411,9.811584958304557,0.0,0.0,0.0,0.0,0.0,0.0,0.0,0.0,0.0
2025/04/09 10:24:55.554965641,1744187095,553086764,mA1/imu,0.706201518859746,0.7080104551814215,-5.258371103023261e-05,0.0007793259507489247,0.0,0.0,0.0,0.0,0.0,0.0,0.0,0.0,0.0,0.005641684583343032,-0.009735850345143106,-1.9087075746618012e-05,0.0,0.0,0.0,0.0,0.0,0.0,0.0,0.0,0.0,0.005229688074201195,0.617686590566509,9.810328460619953,0.0,0.0,0.0,0.0,0.0,0.0,0.0,0.0,0.0
2025/04/09 10:24:55.606332804,1744187095,604341844,mA1/imu,0.7061921924173243,0.7080195961107888,-0.0003302732560373308,0.0008542900587698131,0.0,0.0,0.0,0.0,0.0,0.0,0.0,0.0,0.0,0.006974884297956358,-0.00970783891582179,-0.0006567155457550959,0.0,0.0,0.0,0.0,0.0,0.0,0.0,0.0,0.0,-0.0021416735663321446,0.10616978859832649,9.810484731036832,0.0,0.0,0.0,0.0,0.0,0.0,0.0,0.0,0.0
2025/04/09 10:24:55.655034672,1744187095,654159513,mA1/imu,0.7061797427426326,0.7080317707858208,-0.0005766055130133813,0.0009219674215400424,0.0,0.0,0.0,0.0,0.0,0.0,0.0,0.0,0.0,0.0068678117977394905,-0.00827515377663619,-0.000737413149221061,0.0,0.0,0.0,0.0,0.0,0.0,0.0,0.0,0.0,-0.0015262718511975734,-0.4968764098885701,9.810483684316232,0.0,0.0,0.0,0.0,0.0,0.0,0.0,0.0,0.0
2025/04/09 10:24:55.708919891,1744187095,705226402,mA1/imu,0.7061639225179136,0.7080472936148852,-0.0007772480949503188,0.0009697546852376428,0.0,0.0,0.0,0.0,0.0,0.0,0.0,0.0,0.0,0.004581283334103257,-0.0061960278083268054,-0.0009587290530422731,0.0,0.0,0.0,0.0,0.0,0.0,0.0,0.0,0.0,-0.0049856465680508215,-0.6012101262514336,9.811038758143647,0.0,0.0,0.0,0.0,0.0,0.0,0.0,0.0,0.0
2025/04/09 10:24:55.755808124,1744187095,754994135,mA1/imu,0.7061458036083703,0.7080651551500998,-0.0009290318236777302,0.000988437364981747,0.0,0.0,0.0,0.0,0.0,0.0,0.0,0.0,0.0,0.0033031797862961305,-0.003852336192128614,-0.0010569469914443316,0.0,0.0,0.0,0.0,0.0,0.0,0.0,0.0,0.0,-0.0059825327914786106,-0.3762655517465683,9.812464825720339,0.0,0.0,0.0,0.0,0.0,0.0,0.0,0.0,0.0
2025/04/09 10:24:55.810723216,1744187095,806028964,mA1/imu,-0.7061383596343552,-0.7080725100633681,0.001008864037384002,-0.0009590301441501441,0.0,0.0,0.0,0.0,0.0,0.0,0.0,0.0,0.0,0.0029799922078696723,0.00016842619434053648,2.8029145398569594e-05,0.0,0.0,0.0,0.0,0.0,0.0,0.0,0.0,0.0,-0.047947265810034445,-0.5670303042126092,9.810734524768169,0.0,0.0,0.0,0.0,0.0,0.0,0.0,0.0,0.0
2025/04/09 10:24:55.847184791,1744187095,845961442,mA1/imu,-0.7061435304188501,-0.7080674355600471,0.0010072560771096665,-0.0008980992240433457,0.0,0.0,0.0,0.0,0.0,0.0,0.0,0.0,0.0,0.0012891516598584583,0.002627855520290509,0.00030952808997152616,0.0,0.0,0.0,0.0,0.0,0.0,0.0,0.0,0.0,0.003469094793596573,0.012121931382808811,9.812246497291161,0.0,0.0,0.0,0.0,0.0,0.0,0.0,0.0,0.0
2025/04/09 10:24:55.897863924,1744187095,896910107,mA1/imu,-0.7061496922944461,-0.7080614652779941,0.0009491490288741116,-0.000820107895334431,0.0,0.0,0.0,0.0,0.0,0.0,0.0,0.0,0.0,3.464849018457199e-05,0.004630608805400522,0.0003633575610938714,0.0,0.0,0.0,0.0,0.0,0.0,0.0,0.0,0.0,0.004933265298911228,0.010055097643439408,9.81218709322688,0.0,0.0,0.0,0.0,0.0,0.0,0.0,0.0,0.0
2025/04/09 10:24:55.948916739,1744187095,946771021,mA1/imu,-0.7061567176841554,-0.7080546975791928,0.0008346177644341187,-0.0007339746352823596,0.0,0.0,0.0,0.0,0.0,0.0,0.0,0.0,0.0,-0.0020653862322044065,0.006308333620866749,0.00040251838172292474,0.0,0.0,0.0,0.0,0.0,0.0,0.0,0.0,0.0,0.008145873038658848,0.5772448325642455,9.812284756679476,0.0,0.0,0.0,0.0,0.0,0.0,0.0,0.0,0.0
2025/04/09 10:24:55.998417117,1744187095,997663378,mA1/imu,-0.7061505807428408,-0.7080610415129243,0.0006923100974183643,-0.0006629592073989948,0.0,0.0,0.0,0.0,0.0,0.0,0.0,0.0,0.0,-0.0029432266308616712,0.00584077763022181,-0.000869716271717369,0.0,0.0,0.0,0.0,0.0,0.0,0.0,0.0,0.0,0.06368233589331977,-0.03623754353369818,9.80657412153427,0.0,0.0,0.0,0.0,0.0,0.0,0.0,0.0,0.0
2025/04/09 10:24:56.50531313,1744187096,47680081,mA1/imu,0.7061239036017777,0.7080878241800418,-0.0005336805064749354,0.0006174101381617521,0.0,0.0,0.0,0.0,0.0,0.0,0.0,0.0,0.0,-0.0026451756267327066,0.00605040005199369,-0.0016977587856807394,0.0,0.0,0.0,0.0,0.0,0.0,0.0,0.0,0.0,0.0003764081664351434,-0.5421455134816352,9.808660494009985,0.0,0.0,0.0,0.0,0.0,0.0,0.0,0.0,0.0
2025/04/09 10:24:56.101326787,1744187096,98593967,mA1/imu,0.7060907654072499,0.708121024133907,-0.00033893480808289107,0.0005755947762978225,0.0,0.0,0.0,0.0,0.0,0.0,0.0,0.0,0.0,-0.005482663310376064,0.007032258852789367,-0.0019574985249198765,0.0,0.0,0.0,0.0,0.0,0.0,0.0,0.0,0.0,0.0013983353983310735,0.5844594946591597,9.809470017350453,0.0,0.0,0.0,0.0,0.0,0.0,0.0,0.0,0.0
2025/04/09 10:24:56.149579405,1744187096,148480218,mA1/imu,0.7060543893884083,0.7081573984193277,-0.00012015806523838675,0.0005327770366352674,0.0,0.0,0.0,0.0,0.0,0.0,0.0,0.0,0.0,-0.006332373426076941,0.007579250042686969,-0.0021102439194315465,0.0,0.0,0.0,0.0,0.0,0.0,0.0,0.0,0.0,0.002507572403076268,0.5726939835086008,9.809102415873621,0.0,0.0,0.0,0.0,0.0,0.0,0.0,0.0,0.0
2025/04/09 10:24:56.202075940,1744187096,199652265,mA1/imu,0.7060244401798994,0.7081872920304595,0.00012076620726262562,0.0004844489110165768,0.0,0.0,0.0,0.0,0.0,0.0,0.0,0.0,0.0,-0.005819102567313274,0.008211382165453394,-0.001631644616697458,0.0,0.0,0.0,0.0,0.0,0.0,0.0,0.0,0.0,0.008597740279361681,0.6419609770571126,9.809253581426168,0.0,0.0,0.0,0.0,0.0,0.0,0.0,0.0,0.0
2025/04/09 10:24:56.251042658,1744187096,249315970,mA1/imu,0.7059946706981074,0.7082169029255664,0.00037088089540421646,0.0004536559831076501,0.0,0.0,0.0,0.0,0.0,0.0,0.0,0.0,0.0,-0.006689888804784075,0.007679083170660043,-0.0016974200934637865,0.0,0.0,0.0,0.0,0.0,0.0,0.0,0.0,0.0,0.010752924299521027,0.5904178169506152,9.808391089367039,0.0,0.0,0.0,0.0,0.0,0.0,0.0,0.0,0.0
2025/04/09 10:24:56.303781631,1744187096,301183959,mA1/imu,0.7059718664138848,0.7082394846762289,0.0006121845400592273,0.0004259198689354717,0.0,0.0,0.0,0.0,0.0,0.0,0.0,0.0,0.0,-0.0071856631616029785,0.007201866069640313,-0.0011976618549597573,0.0,0.0,0.0,0.0,0.0,0.0,0.0,0.0,0.0,0.016718531872557882,0.5502906449175181,9.808751946492855,0.0,0.0,0.0,0.0,0.0,0.0,0.0,0.0,0.0
2025/04/09 10:24:56.351585661,1744187096,350934930,mA1/imu,0.7059506083615399,0.7082604664754909,0.0008237192538373974,0.0004143289544328919,0.0,0.0,0.0,0.0,0.0,0.0,0.0,0.0,0.0,-0.00510123610540348,0.005655599098503929,-0.0011861793626043924,0.0,0.0,0.0,0.0,0.0,0.0,0.0,0.0,0.0,0.015838487972959933,-0.5879252021943702,9.807062798530591,0.0,0.0,0.0,0.0,0.0,0.0,0.0,0.0,0.0
2025/04/09 10:24:56.403781707,1744187096,401941285,mA1/imu,0.7059295797908696,0.7082812083335285,0.000990798280565466,0.0004202578379192055,0.0,0.0,0.0,0.0,0.0,0.0,0.0,0.0,0.0,-0.0046532492893630135,0.0037834058309232817,-0.0011741960909076733,0.0,0.0,0.0,0.0,0.0,0.0,0.0,0.0,0.0,0.017157074008393565,0.37625695257535474,9.808854204322332,0.0,0.0,0.0,0.0,0.0,0.0,0.0,0.0,0.0
2025/04/09 10:24:56.452833419,1744187096,451708181,mA1/imu,0.7059088431828798,0.7083016636984611,0.001117908784258121,0.0004567254651399031,0.0,0.0,0.0,0.0,0.0,0.0,0.0,0.0,0.0,-0.0056108742973392705,0.0017337209780919009,-0.001151509339497101,0.0,0.0,0.0,0.0,0.0,0.0,0.0,0.0,0.0,0.017366638775279254,0.5314105989256828,9.807821110843681,0.0,0.0,0.0,0.0,0.0,0.0,0.0,0.0,0.0
2025/04/09 10:24:56.504842635,1744187096,502679761,mA1/imu,0.7058976559010561,0.7083126497639466,0.001198254162077147,0.0005037506665579005,0.0,0.0,0.0,0.0,0.0,0.0,0.0,0.0,0.0,-0.0047917837213882035,0.0001347798715911878,-0.0005025297766811434,0.0,0.0,0.0,0.0,0.0,0.0,0.0,0.0,0.0,0.021761294166753237,0.5129747648881139,9.80969904162453,0.0,0.0,0.0,0.0,0.0,0.0,0.0,0.0,0.0
2025/04/09 10:24:56.553537539,1744187096,552712471,mA1/imu,0.7058898698497855,0.7083203472553177,0.0012101879480249757,0.0005592429609861221,0.0,0.0,0.0,0.0,0.0,0.0,0.0,0.0,0.0,-0.0021406187646944245,-0.0021246657053223656,-0.00039489850278307155,0.0,0.0,0.0,0.0,0.0,0.0,0.0,0.0,0.0,0.02082023240768343,-0.014126662990412837,9.809769233460882,0.0,0.0,0.0,0.0,0.0,0.0,0.0,0.0,0.0
2025/04/09 10:24:56.607671448,1744187096,603815549,mA1/imu,0.7058921084889757,0.7083181184127895,0.0011753345325798388,0.0006268092934218612,0.0,0.0,0.0,0.0,0.0,0.0,0.0,0.0,0.0,-3.1379084476306435e-05,-0.0036889463825675725,0.000269432916784905,0.0,0.0,0.0,0.0,0.0,0.0,0.0,0.0,0.0,0.023000919621856433,0.039808222364155446,9.810122487198171,0.0,0.0,0.0,0.0,0.0,0.0,0.0,0.0,0.0
2025/04/09 10:24:56.654681696,1744187096,653562843,mA1/imu,0.7058988512447311,0.7083114506490069,0.0010900036628093725,0.000715948939316264,0.0,0.0,0.0,0.0,0.0,0.0,0.0,0.0,0.0,0.0006814905892446319,-0.00574104715993932,0.000434282896143376,0.0,0.0,0.0,0.0,0.0,0.0,0.0,0.0,0.0,0.022624573256282622,-0.1605003104554818,9.81241349184728,0.0,0.0,0.0,0.0,0.0,0.0,0.0,0.0,0.0
2025/04/09 10:24:56.706939743,1744187096,705322948,mA1/imu,0.7058982184153959,0.7083122002919519,0.0009296019411570501,0.0008173100848830792,0.0,0.0,0.0,0.0,0.0,0.0,0.0,0.0,0.0,0.0012387359379987016,-0.008075859419873708,-0.00020148544333727894,0.0,0.0,0.0,0.0,0.0,0.0,0.0,0.0,0.0,0.013501884933923843,-0.04938676078991269,9.812680559777249,0.0,0.0,0.0,0.0,0.0,0.0,0.0,0.0,0.0
2025/04/09 10:24:56.755600780,1744187096,754371746,mA1/imu,0.7058946813169978,0.7083158277057321,0.0007294457235430939,0.0009246722955171001,0.0,0.0,0.0,0.0,0.0,0.0,0.0,0.0,0.0,0.001769215790759079,-0.00900999151298991,-0.0001903812014029813,0.0,0.0,0.0,0.0,0.0,0.0,0.0,0.0,0.0,0.011941452892162974,0.4347800339282251,9.811125760208135,0.0,0.0,0.0,0.0,0.0,0.0,0.0,0.0,0.0
2025/04/09 10:24:56.807285722,1744187096,806175863,mA1/imu,0.7058935380422409,0.708317031360017,0.0004979063308297742,0.001023779676437949,0.0,0.0,0.0,0.0,0.0,0.0,0.0,0.0,0.0,0.003473839886571901,-0.00946703188022326,-2.6831769232147897e-05,0.0,0.0,0.0,0.0,0.0,0.0,0.0,0.0,0.0,0.010316536128567026,0.47380652114186134,9.81197687762368,0.0,0.0,0.0,0.0,0.0,0.0,0.0,0.0,0.0
2025/04/09 10:24:56.856423209,1744187096,855353489,mA1/imu,0.7058942553828355,0.7083163279919134,0.00024435634802548846,0.0011045395147385416,0.0,0.0,0.0,0.0,0.0,0.0,0.0,0.0,0.0,0.005603713733853758,-0.009350360176469747,5.942711432247576e-05,0.0,0.0,0.0,0.0,0.0,0.0,0.0,0.0,0.0,0.008377286673146947,0.05683488513852131,9.813435090371948,0.0,0.0,0.0,0.0,0.0,0.0,0.0,0.0,0.0
2025/04/09 10:24:56.909388491,1744187096,907058779,mA1/imu,0.7058871537426389,0.7083233119224698,-1.1028423128026815e-05,0.001188211544069874,0.0,0.0,0.0,0.0,0.0,0.0,0.0,0.0,0.0,0.007158725882722652,-0.009358541421685396,-0.000502227036557463,0.0,0.0,0.0,0.0,0.0,0.0,0.0,0.0,0.0,0.0012139924674878493,-0.49673408968575644,9.812376483015491,0.0,0.0,0.0,0.0,0.0,0.0,0.0,0.0,0.0
2025/04/09 10:24:56.947565248,1744187096,946768260,mA1/imu,0.7058785006015643,0.7083317885126644,-0.0002557850943752278,0.0012467337015747127,0.0,0.0,0.0,0.0,0.0,0.0,0.0,0.0,0.0,0.005970889943951168,-0.008004020524429783,-0.0004947781192270295,0.0,0.0,0.0,0.0,0.0,0.0,0.0,0.0,0.0,0.0019340893292410163,-0.6020036741474664,9.81218807345485,0.0,0.0,0.0,0.0,0.0,0.0,0.0,0.0,0.0
2025/04/09 10:24:56.998592670,1744187096,997683048,mA1/imu,0.7058682336153946,0.7083418672175756,-0.0004784611312532056,0.0012676728075781546,0.0,0.0,0.0,0.0,0.0,0.0,0.0,0.0,0.0,0.004487130186064088,-0.006081003959613405,-0.0006187861727947137,0.0,0.0,0.0,0.0,0.0,0.0,0.0,0.0,0.0,-0.0012906030019233274,-0.16808200617575356,9.81335505655149,0.0,0.0,0.0,0.0,0.0,0.0,0.0,0.0,0.0
2025/04/09 10:24:57.48752683,1744187097,47664933,mA1/imu,0.7058570990380443,0.7083528460298407,-0.0006692502864353749,0.0012463398715709653,0.0,0.0,0.0,0.0,0.0,0.0,0.0,0.0,0.0,0.003885776253050176,-0.003849220720607156,-0.0006405125817720242,0.0,0.0,0.0,0.0,0.0,0.0,0.0,0.0,0.0,-0.0024416078597380396,0.5265409111347567,9.811202318069995,0.0,0.0,0.0,0.0,0.0,0.0,0.0,0.0,0.0
2025/04/09 10:24:57.99509937,1744187097,98519485,mA1/imu,0.7058549438092713,0.7083549635482074,-0.0007976288098146646,0.001186467407920002,0.0,0.0,0.0,0.0,0.0,0.0,0.0,0.0,0.0,0.004903201808604496,-0.0009050588445274433,-2.0324675505341998e-05,0.0,0.0,0.0,0.0,0.0,0.0,0.0,0.0,0.0,0.0015640746006002383,0.04782052694848989,9.81224787523456,0.0,0.0,0.0,0.0,0.0,0.0,0.0,0.0,0.0
2025/04/09 10:24:57.149403549,1744187097,148417965,mA1/imu,0.7058553138668546,0.7083546525054079,-0.0008739810684149335,0.0010946766458691454,0.0,0.0,0.0,0.0,0.0,0.0,0.0,0.0,0.0,0.004887445037903436,0.0013553144797481375,2.7432770430338156e-05,0.0,0.0,0.0,0.0,0.0,0.0,0.0,0.0,0.0,0.0010244579899850066,0.06545967587912394,9.811917814859882,0.0,0.0,0.0,0.0,0.0,0.0,0.0,0.0,0.0
2025/04/09 10:24:57.200801623,1744187097,199320779,mA1/imu,0.7058475586172279,0.708362495130948,-0.0009044106841078068,0.0009907205817925803,0.0,0.0,0.0,0.0,0.0,0.0,0.0,0.0,0.0,0.00490555667747828,0.002856155528088978,-0.0005518342352052992,0.0,0.0,0.0,0.0,0.0,0.0,0.0,0.0,0.0,-0.0012218335091476705,-0.5223382444271033,9.810734753343528,0.0,0.0,0.0,0.0,0.0,0.0,0.0,0.0,0.0
2025/04/09 10:24:57.249938436,1744187097,249165538,mA1/imu,-0.7058375200119055,-0.7083726895394776,0.0008838681826959599,-0.0008641962076009224,0.0,0.0,0.0,0.0,0.0,0.0,0.0,0.0,0.0,0.002170723799065862,0.005004540883560268,-0.0005981373918043725,0.0,0.0,0.0,0.0,0.0,0.0,0.0,0.0,0.0,-0.0002781444175733311,0.615000329662521,9.810884906433671,0.0,0.0,0.0,0.0,0.0,0.0,0.0,0.0,0.0
2025/04/09 10:24:57.302700053,1744187097,301407825,mA1/imu,-0.7058177016486183,-0.7083926599913377,0.0008183199429212272,-0.0007359771259769313,0.0,0.0,0.0,0.0,0.0,0.0,0.0,0.0,0.0,0.0014188957324398164,0.006123159912789306,-0.0012666899395912647,0.0,0.0,0.0,0.0,0.0,0.0,0.0,0.0,0.0,-0.0022030700025632358,0.3866318240113729,9.80918699253936,0.0,0.0,0.0,0.0,0.0,0.0,0.0,0.0,0.0
2025/04/09 10:24:57.352206393,1744187097,351256296,mA1/imu,-0.705794122246319,-0.7084164054190073,0.0007012899531258105,-0.0006014384112013291,0.0,0.0,0.0,0.0,0.0,0.0,0.0,0.0,0.0,-0.0002939723018253023,0.007730968142554141,-0.0013809563572800443,0.0,0.0,0.0,0.0,0.0,0.0,0.0,0.0,0.0,-0.0013540765613731034,-0.011234414735182103,9.808689166262834,0.0,0.0,0.0,0.0,0.0,0.0,0.0,0.0,0.0
2025/04/09 10:24:57.404408499,1744187097,403200628,mA1/imu,-0.7057790113850709,-0.7084317210124301,0.0005318699775136578,-0.00044818077292314233,0.0,0.0,0.0,0.0,0.0,0.0,0.0,0.0,0.0,5.574401219514046e-05,0.009816597989206723,-0.0006223363170561164,0.0,0.0,0.0,0.0,0.0,0.0,0.0,0.0,0.0,-0.014528841953535206,-0.19267420760460144,9.810823465906617,0.0,0.0,0.0,0.0,0.0,0.0,0.0,0.0,0.0
2025/04/09 10:24:57.454269790,1744187097,452989793,mA1/imu,-0.7057696232678335,-0.7084412800128412,0.0003101748308133895,-0.000308929962853738,0.0,0.0,0.0,0.0,0.0,0.0,0.0,0.0,0.0,-0.0031261345447919668,0.010258800475826425,-0.0005413582652821327,0.0,0.0,0.0,0.0,0.0,0.0,0.0,0.0,0.0,0.01042257972154573,-0.05081556883537676,9.808115988406426,0.0,0.0,0.0,0.0,0.0,0.0,0.0,0.0,0.0
2025/04/09 10:24:57.507504508,1744187097,503939909,mA1/imu,0.7057506055861776,0.7084603291432864,-0.00010072913316736146,0.0001860069123252815,0.0,0.0,0.0,0.0,0.0,0.0,0.0,0.0,0.0,-0.004047402465704738,0.009158709678953644,-0.0012047221659431807,0.0,0.0,0.0,0.0,0.0,0.0,0.0,0.0,0.0,0.0092434444114869,0.5957708509420212,9.80779684500493,0.0,0.0,0.0,0.0,0.0,0.0,0.0,0.0,0.0
2025/04/09 10:24:57.556345351,1744187097,555167810,mA1/imu,0.7057283585390461,0.7084825019076064,0.00013068888927897406,0.00010660645484839265,0.0,0.0,0.0,0.0,0.0,0.0,0.0,0.0,0.0,-0.004772545141959852,0.008461764185807602,-0.0012809565923750292,0.0,0.0,0.0,0.0,0.0,0.0,0.0,0.0,0.0,0.010252658416787096,-0.24584389219755023,9.807607944585133,0.0,0.0,0.0,0.0,0.0,0.0,0.0,0.0,0.0
2025/04/09 10:24:57.606660802,1744187097,606064402,mA1/imu,0.7057129398700297,0.7084977901086578,0.00035560979101551416,3.811593691542396e-05,0.0,0.0,0.0,0.0,0.0,0.0,0.0,0.0,0.0,-0.005518591723141791,0.007816086509411247,-0.0007875646327341545,0.0,0.0,0.0,0.0,0.0,0.0,0.0,0.0,0.0,0.017464557267001503,-0.03120741321966087,9.807629714535624,0.0,0.0,0.0,0.0,0.0,0.0,0.0,0.0,0.0
2025/04/09 10:24:57.647520953,1744187097,645964762,mA1/imu,0.7056984677395628,0.7085120670931612,0.0005685833447587369,1.1242293921765465e-05,0.0,0.0,0.0,0.0,0.0,0.0,0.0,0.0,0.0,-0.006646859838185083,0.006058967321594964,-0.0008733559387144875,0.0,0.0,0.0,0.0,0.0,0.0,0.0,0.0,0.0,0.014752523940345177,0.5460526474671363,9.806273414256815,0.0,0.0,0.0,0.0,0.0,0.0,0.0,0.0,0.0
2025/04/09 10:24:57.697684225,1744187097,696942637,mA1/imu,0.7056809382491604,0.7085293582218009,0.0007493076310136832,2.162548081244823e-05,0.0,0.0,0.0,0.0,0.0,0.0,0.0,0.0,0.0,-0.004944116986698661,0.0039588888213829615,-0.0010141086854914452,0.0,0.0,0.0,0.0,0.0,0.0,0.0,0.0,0.0,0.016707443363532467,-0.5344065744681334,9.808440174208762,0.0,0.0,0.0,0.0,0.0,0.0,0.0,0.0,0.0
2025/04/09 10:24:57.748437783,1744187097,746869447,mA1/imu,0.7056624318684317,0.7085476184108909,0.000894011493133141,7.373761344223043e-05,0.0,0.0,0.0,0.0,0.0,0.0,0.0,0.0,0.0,-0.005967154206778793,0.0016843728355208744,-0.001054340683288164,0.0,0.0,0.0,0.0,0.0,0.0,0.0,0.0,0.0,0.01824489220650129,0.6074594533525813,9.810066908150759,0.0,0.0,0.0,0.0,0.0,0.0,0.0,0.0,0.0
2025/04/09 10:24:57.798718853,1744187097,797945524,mA1/imu,0.7056512910591987,0.7085585541648549,0.0010033601731470288,0.000154966639141377,0.0,0.0,0.0,0.0,0.0,0.0,0.0,0.0,0.0,-0.005948597173785619,-0.00010307010427764059,-0.0005340706776353696,0.0,0.0,0.0,0.0,0.0,0.0,0.0,0.0,0.0,0.020962805082927086,0.5402522999809812,9.810051883752672,0.0,0.0,0.0,0.0,0.0,0.0,0.0,0.0,0.0
2025/04/09 10:24:57.849771928,1744187097,848798137,mA1/imu,0.7056422762862479,0.7085674225233348,0.0010564784733182965,0.0002636464222436691,0.0,0.0,0.0,0.0,0.0,0.0,0.0,0.0,0.0,-0.0037203507963355586,-0.0025508006552741372,-0.0004936842680967462,0.0,0.0,0.0,0.0,0.0,0.0,0.0,0.0,0.0,0.019444326718459817,-0.5598725749331042,9.808799512728532,0.0,0.0,0.0,0.0,0.0,0.0,0.0,0.0,0.0
2025/04/09 10:24:57.900845127,1744187097,899878936,mA1/imu,0.7056340356027754,0.7085755544954107,0.0010611101110612157,0.00040671340598301235,0.0,0.0,0.0,0.0,0.0,0.0,0.0,0.0,0.0,-0.0044544557436684545,-0.004803947341858984,-0.0004526147336125982,0.0,0.0,0.0,0.0,0.0,0.0,0.0,0.0,0.0,0.01820997306306052,0.5875379550452323,9.811528852740897,0.0,0.0,0.0,0.0,0.0,0.0,0.0,0.0,0.0
2025/04/09 10:24:57.951320352,1744187097,950134726,mA1/imu,0.7056265567403907,0.7085829726418995,0.0010071463552758426,0.0005647662247145247,0.0,0.0,0.0,0.0,0.0,0.0,0.0,0.0,0.0,-0.0018935515426244294,-0.006746214498673635,-0.00041764023993784015,0.0,0.0,0.0,0.0,0.0,0.0,0.0,0.0,0.0,0.015108899357564251,-0.5592692760572818,9.8102531541848,0.0,0.0,0.0,0.0,0.0,0.0,0.0,0.0,0.0
2025/04/09 10:24:58.2982137,1744187098,1110273,mA1/imu,0.705610690679008,0.7085987414017261,0.0009023985786507375,0.0007500401243818143,0.0,0.0,0.0,0.0,0.0,0.0,0.0,0.0,0.0,-0.002481639301618665,-0.008798969137729847,-0.0010084979290195643,0.0,0.0,0.0,0.0,0.0,0.0,0.0,0.0,0.0,0.008811885437167603,0.5835091346588872,9.812905452441141,0.0,0.0,0.0,0.0,0.0,0.0,0.0,0.0,0.0
2025/04/09 10:24:58.53546427,1744187098,51040626,mA1/imu,0.7055926440992495,0.7086166724765542,0.0007528568343621495,0.0009302085102610721,0.0,0.0,0.0,0.0,0.0,0.0,0.0,0.0,0.0,0.0002526954501677745,-0.009607798409735323,-0.0010361501343775783,0.0,0.0,0.0,0.0,0.0,0.0,0.0,0.0,0.0,0.008136961128585364,-0.5606843078452294,9.811533085394188,0.0,0.0,0.0,0.0,0.0,0.0,0.0,0.0,0.0
2025/04/09 10:24:58.104142939,1744187098,101972077,mA1/imu,0.7055824291137685,0.708626767583979,0.000589561667610332,0.0010919736423594209,0.0,0.0,0.0,0.0,0.0,0.0,0.0,0.0,0.0,-0.00011948448487554137,-0.00918254336687214,-0.0004839367063960961,0.0,0.0,0.0,0.0,0.0,0.0,0.0,0.0,0.0,0.00924050827420429,0.584804086407203,9.81378323822764,0.0,0.0,0.0,0.0,0.0,0.0,0.0,0.0,0.0
2025/04/09 10:24:58.152657104,1744187098,151727517,mA1/imu,0.7055745911413263,0.708634482231224,0.00040131321094507893,0.00122714153304147,0.0,0.0,0.0,0.0,0.0,0.0,0.0,0.0,0.0,0.0027091314041544083,-0.009042741883388349,-0.00043231172636939877,0.0,0.0,0.0,0.0,0.0,0.0,0.0,0.0,0.0,0.00701731811855226,-0.5534557627997649,9.812084183724432,0.0,0.0,0.0,0.0,0.0,0.0,0.0,0.0,0.0
2025/04/09 10:24:58.204453102,1744187098,202761608,mA1/imu,0.7055658789759279,0.708643036705363,0.00020890173526719657,0.001339146740682456,0.0,0.0,0.0,0.0,0.0,0.0,0.0,0.0,0.0,0.0026175678828142335,-0.008262592867794885,-0.0005123385482553387,0.0,0.0,0.0,0.0,0.0,0.0,0.0,0.0,0.0,0.003241644709878118,0.1074938657008433,9.812916584236884,0.0,0.0,0.0,0.0,0.0,0.0,0.0,0.0,0.0
2025/04/09 10:24:58.253596256,1744187098,252954463,mA1/imu,0.7055570025047306,0.7086517571068558,1.67148077386284e-05,0.0014153043914739783,0.0,0.0,0.0,0.0,0.0,0.0,0.0,0.0,0.0,0.003079356126340695,-0.007065110960037509,-0.0005133949620053638,0.0,0.0,0.0,0.0,0.0,0.0,0.0,0.0,0.0,0.002085329563377196,0.20555279066103588,9.812756407027932,0.0,0.0,0.0,0.0,0.0,0.0,0.0,0.0,0.0
2025/04/09 10:24:58.305194229,1744187098,303957496,mA1/imu,0.7055389047903388,0.7086696569210374,-0.00017603335820540525,0.0014629418734790282,0.0,0.0,0.0,0.0,0.0,0.0,0.0,0.0,0.0,0.00419859617794103,-0.006185536857779497,-0.0011519310500377243,0.0,0.0,0.0,0.0,0.0,0.0,0.0,0.0,0.0,-0.0038370808450005206,-0.040719971327452656,9.81225453048962,0.0,0.0,0.0,0.0,0.0,0.0,0.0,0.0,0.0
2025/04/09 10:24:58.356658808,1744187098,353818810,mA1/imu,0.705517806783003,0.7086905839631144,-0.00034380772723258417,0.0014704796387230248,0.0,0.0,0.0,0.0,0.0,0.0,0.0,0.0,0.0,0.0046415027232644505,-0.004093567296054301,-0.001223266473399514,0.0,0.0,0.0,0.0,0.0,0.0,0.0,0.0,0.0,-0.0025253259942763194,0.0008724575827208508,9.812443455445637,0.0,0.0,0.0,0.0,0.0,0.0,0.0,0.0,0.0
2025/04/09 10:24:58.406030437,1744187098,404783977,mA1/imu,0.7055036789161854,0.7087046718110397,-0.00046817749793655843,0.001424078215904949,0.0,0.0,0.0,0.0,0.0,0.0,0.0,0.0,0.0,0.0052225846494855874,-0.0012365041805489378,-0.0007233348375437662,0.0,0.0,0.0,0.0,0.0,0.0,0.0,0.0,0.0,0.001332951135944855,-0.6100792261998075,9.812302388357779,0.0,0.0,0.0,0.0,0.0,0.0,0.0,0.0,0.0
2025/04/09 10:24:58.455659765,1744187098,454600174,mA1/imu,0.705491139984689,0.7087172675100021,-0.0005575417575536749,0.0013323976315747445,0.0,0.0,0.0,0.0,0.0,0.0,0.0,0.0,0.0,0.00359669705955334,0.0009719086751040782,-0.0007191239544525782,0.0,0.0,0.0,0.0,0.0,0.0,0.0,0.0,0.0,-1.71402302213651e-05,0.4671730146698509,9.811380192966515,0.0,0.0,0.0,0.0,0.0,0.0,0.0,0.0,0.0
2025/04/09 10:24:58.508025513,1744187098,505584025,mA1/imu,0.7054685976956324,0.7087398644345172,-0.0006220872846833801,0.0012145921579965028,0.0,0.0,0.0,0.0,0.0,0.0,0.0,0.0,0.0,0.003680269507452241,0.0023136182263124453,-0.001409789075270708,0.0,0.0,0.0,0.0,0.0,0.0,0.0,0.0,0.0,-0.0024322231636232997,0.23759995528548178,9.809571688175673,0.0,0.0,0.0,0.0,0.0,0.0,0.0,0.0,0.0
2025/04/09 10:24:58.556133550,1744187098,555356109,mA1/imu,0.7054438358097926,0.7087647336195863,-0.0006428496324220238,0.0010647250694638892,0.0,0.0,0.0,0.0,0.0,0.0,0.0,0.0,0.0,0.004808738720455068,0.004655228965953319,-0.0013308434784618966,0.0,0.0,0.0,0.0,0.0,0.0,0.0,0.0,0.0,-0.019324808613691947,0.036844812001500506,9.809018446713056,0.0,0.0,0.0,0.0,0.0,0.0,0.0,0.0,0.0
2025/04/09 10:24:58.598845304,1744187098,596504194,mA1/imu,0.7054224045118379,0.7087863371197013,-0.0006127953540434419,0.0008854417135929717,0.0,0.0,0.0,0.0,0.0,0.0,0.0,0.0,0.0,0.005800474385978678,0.0066075932808337245,-0.0012187502454301888,0.0,0.0,0.0,0.0,0.0,0.0,0.0,0.0,0.0,0.0022359553685960057,-0.48199793012321784,9.806849903229015,0.0,0.0,0.0,0.0,0.0,0.0,0.0,0.0,0.0
2025/04/09 10:24:58.647342754,1744187098,646370310,mA1/imu,0.7054005852906053,0.7088083226420607,-0.0005365028461908765,0.0006987057434769915,0.0,0.0,0.0,0.0,0.0,0.0,0.0,0.0,0.0,0.003473840400486297,0.007924387924318627,-0.001263036279722187,0.0,0.0,0.0,0.0,0.0,0.0,0.0,0.0,0.0,0.00475643103214223,0.03502245627110511,9.809541936053138,0.0,0.0,0.0,0.0,0.0,0.0,0.0,0.0,0.0
2025/04/09 10:24:58.699705177,1744187098,697300983,mA1/imu,0.7053750175700826,0.708833998370447,-0.0004335719139274952,0.0005092716037039707,0.0,0.0,0.0,0.0,0.0,0.0,0.0,0.0,0.0,0.0018606737424948499,0.008545726274307865,-0.001513663598737026,0.0,0.0,0.0,0.0,0.0,0.0,0.0,0.0,0.0,0.005958418037698932,-0.2606125633230244,9.808042642851328,0.0,0.0,0.0,0.0,0.0,0.0,0.0,0.0,0.0
2025/04/09 10:24:58.747752687,1744187098,747154991,mA1/imu,0.7053473729681636,0.7088616821447792,-0.0003072038149986888,0.0003235113605970588,0.0,0.0,0.0,0.0,0.0,0.0,0.0,0.0,0.0,0.000642567111286059,0.008948440871150912,-0.0015916367004808355,0.0,0.0,0.0,0.0,0.0,0.0,0.0,0.0,0.0,0.007413589089451989,-0.02501909688298015,9.805409243851269,0.0,0.0,0.0,0.0,0.0,0.0,0.0,0.0,0.0
2025/04/09 10:24:58.799363510,1744187098,798138288,mA1/imu,0.7053270624131367,0.7088820008323604,-0.00014768300794653738,0.00014870539267855366,0.0,0.0,0.0,0.0,0.0,0.0,0.0,0.0,0.0,-0.0009727934001141465,0.0093918650186344,-0.0010660903477516593,0.0,0.0,0.0,0.0,0.0,0.0,0.0,0.0,0.0,0.015090665335658195,-0.06496844116569366,9.806211662131188,0.0,0.0,0.0,0.0,0.0,0.0,0.0,0.0,0.0
2025/04/09 10:24:58.848854607,1744187098,847948211,mA1/imu,0.7053082097624855,0.7089007891580207,1.9303165269864903e-05,4.0112573700753345e-07,0.0,0.0,0.0,0.0,0.0,0.0,0.0,0.0,0.0,-0.0021880258360832995,0.00853933520371422,-0.0010692319793045894,0.0,0.0,0.0,0.0,0.0,0.0,0.0,0.0,0.0,0.014521411523817786,-0.07364391457109107,9.806693765132161,0.0,0.0,0.0,0.0,0.0,0.0,0.0,0.0,0.0
2025/04/09 10:24:58.901113178,1744187098,899076731,mA1/imu,0.7052858238125664,0.708923031466332,0.00017527877216631481,-0.00010706524950709281,0.0,0.0,0.0,0.0,0.0,0.0,0.0,0.0,0.0,-0.001946167160991995,0.006846281536160483,-0.001314434310268912,0.0,0.0,0.0,0.0,0.0,0.0,0.0,0.0,0.0,0.015143428975454561,0.019237118106070053,9.806416915914829,0.0,0.0,0.0,0.0,0.0,0.0,0.0,0.0,0.0
2025/04/09 10:24:58.949507323,1744187098,948821791,mA1/imu,0.7052619417683107,0.7089467263184036,0.000324604471131038,-0.00016543139796219064,0.0,0.0,0.0,0.0,0.0,0.0,0.0,0.0,0.0,-0.0029292849291643656,0.005184031058431674,-0.0013679205839583779,0.0,0.0,0.0,0.0,0.0,0.0,0.0,0.0,0.0,0.014827559702008029,0.6412608655148966,9.808320446282854,0.0,0.0,0.0,0.0,0.0,0.0,0.0,0.0,0.0
2025/04/09 10:24:59.799209,1744187098,999791423,mA1/imu,0.7052341992490445,0.7089742492168295,0.0004589862264483493,-0.00016579697208013084,0.0,0.0,0.0,0.0,0.0,0.0,0.0,0.0,0.0,-0.0016566661668187082,0.0029548030593293095,-0.0016333066226760465,0.0,0.0,0.0,0.0,0.0,0.0,0.0,0.0,0.0,0.012906265209682934,-0.4614693937463479,9.806449384765335,0.0,0.0,0.0,0.0,0.0,0.0,0.0,0.0,0.0
2025/04/09 10:24:59.52265992,1744187099,50136640,mA1/imu,0.7052043164759331,0.7090038966640924,0.0005785052378792623,-0.00010895198467123025,0.0,0.0,0.0,0.0,0.0,0.0,0.0,0.0,0.0,-0.0037967443867612145,0.0009015817774765049,-0.0017192455208428212,0.0,0.0,0.0,0.0,0.0,0.0,0.0,0.0,0.0,0.015756090527465523,-0.5718226115297336,9.807764444075998,0.0,0.0,0.0,0.0,0.0,0.0,0.0,0.0,0.0
2025/04/09 10:24:59.102963822,1744187099,101047983,mA1/imu,0.7051726450907466,0.7090353328641253,0.0006612273134312022,-1.2017449960796775e-05,0.0,0.0,0.0,0.0,0.0,0.0,0.0,0.0,0.0,-0.004729742908910358,-0.0012563648897563507,-0.0018244219422695344,0.0,0.0,0.0,0.0,0.0,0.0,0.0,0.0,0.0,0.013635403959294818,-0.5948795822470813,9.808529162861698,0.0,0.0,0.0,0.0,0.0,0.0,0.0,0.0,0.0
2025/04/09 10:24:59.151847329,1744187099,150837703,mA1/imu,0.7051394817671784,0.7090682515085815,0.0007141018392447382,0.00012654738779354003,0.0,0.0,0.0,0.0,0.0,0.0,0.0,0.0,0.0,-0.004383273428249201,-0.003226903439396798,-0.0019038568065756609,0.0,0.0,0.0,0.0,0.0,0.0,0.0,0.0,0.0,0.014071019485170706,-0.5578025410860498,9.809987136719588,0.0,0.0,0.0,0.0,0.0,0.0,0.0,0.0,0.0
2025/04/09 10:24:59.206187253,1744187099,201818151,mA1/imu,0.7051046972405677,0.7091027586671512,0.0007407852566170987,0.0003079238978475791,0.0,0.0,0.0,0.0,0.0,0.0,0.0,0.0,0.0,-0.00580730848432678,-0.005098079569602633,-0.0019967142568288344,0.0,0.0,0.0,0.0,0.0,0.0,0.0,0.0,0.0,0.010919326427421168,0.19639027506041443,9.812240017758853,0.0,0.0,0.0,0.0,0.0,0.0,0.0,0.0,0.0
2025/04/09 10:24:59.252733471,1744187099,251620435,mA1/imu,0.7050686185099878,0.7091385178609514,0.0007359409908549533,0.0005138766858352067,0.0,0.0,0.0,0.0,0.0,0.0,0.0,0.0,0.0,-0.004402767331138529,-0.006527688696709149,-0.0020652039862069332,0.0,0.0,0.0,0.0,0.0,0.0,0.0,0.0,0.0,0.010622780656077718,-0.5644267844902813,9.811824507375647,0.0,0.0,0.0,0.0,0.0,0.0,0.0,0.0,0.0
2025/04/09 10:24:59.305369521,1744187099,304392695,mA1/imu,0.7050311218495613,0.7091756312999316,0.0007041760756173125,0.0007384645876371547,0.0,0.0,0.0,0.0,0.0,0.0,0.0,0.0,0.0,-0.005363694775200649,-0.007656077721100559,-0.0021447864551253294,0.0,0.0,0.0,0.0,0.0,0.0,0.0,0.0,0.0,0.006898823986176835,0.607538850734576,9.813396903229465,0.0,0.0,0.0,0.0,0.0,0.0,0.0,0.0,0.0
2025/04/09 10:24:59.355949516,1744187099,355185739,mA1/imu,0.7049924748136867,0.7092138067396798,0.000658526053109364,0.0009762834234119664,0.0,0.0,0.0,0.0,0.0,0.0,0.0,0.0,0.0,-0.0045755165672282634,-0.008225293441052235,-0.0022085489675363807,0.0,0.0,0.0,0.0,0.0,0.0,0.0,0.0,0.0,0.007170717821737815,-0.00990628195479134,9.811838498691273,0.0,0.0,0.0,0.0,0.0,0.0,0.0,0.0,0.0
2025/04/09 10:24:59.408069875,1744187099,406173066,mA1/imu,0.7049479467506592,0.7092577653784556,0.0005884683912249296,0.0012117455763652996,0.0,0.0,0.0,0.0,0.0,0.0,0.0,0.0,0.0,-0.00453825678326678,-0.008861119596251927,-0.00271145522402745,0.0,0.0,0.0,0.0,0.0,0.0,0.0,0.0,0.0,0.021950569357978955,-0.05800553497943503,9.815839504959712,0.0,0.0,0.0,0.0,0.0,0.0,0.0,0.0,0.0
2025/04/09 10:24:59.447478193,1744187099,445903373,mA1/imu,0.7048952653822208,0.709309775199925,0.0004980399318843167,0.0014351319754207642,0.0,0.0,0.0,0.0,0.0,0.0,0.0,0.0,0.0,-0.002424642640469406,-0.008779473015130572,-0.0030735356570423204,0.0,0.0,0.0,0.0,0.0,0.0,0.0,0.0,0.0,0.009618340768941868,-0.595925346686386,9.81389653783067,0.0,0.0,0.0,0.0,0.0,0.0,0.0,0.0,0.0
2025/04/09 10:24:59.498060655,1744187099,496870461,mA1/imu,0.7048405191817496,0.7093638104964356,0.00040684352838604677,0.0016313662746927828,0.0,0.0,0.0,0.0,0.0,0.0,0.0,0.0,0.0,-0.002227893769971138,-0.007660329367791457,-0.0031218510840619555,0.0,0.0,0.0,0.0,0.0,0.0,0.0,0.0,0.0,-0.0031390021867812,-0.015323437742797439,9.812337011964273,0.0,0.0,0.0,0.0,0.0,0.0,0.0,0.0,0.0
2025/04/09 10:24:59.547756858,1744187099,546712862,mA1/imu,0.7047840681741914,0.7094195560644594,0.0003258763058071807,0.0017901189278088868,0.0,0.0,0.0,0.0,0.0,0.0,0.0,0.0,0.0,-0.0019069668628006985,-0.006135271646662715,-0.0032159824587931255,0.0,0.0,0.0,0.0,0.0,0.0,0.0,0.0,0.0,-0.00374123390066855,-0.06649716673527224,9.81160234545931,0.0,0.0,0.0,0.0,0.0,0.0,0.0,0.0,0.0
2025/04/09 10:24:59.598583109,1744187099,597690806,mA1/imu,0.7047278872076884,0.7094751197868444,0.0002534041752778176,0.0018960963990048841,0.0,0.0,0.0,0.0,0.0,0.0,0.0,0.0,0.0,-5.6592446911445605e-05,-0.004294911133664308,-0.003127277173525796,0.0,0.0,0.0,0.0,0.0,0.0,0.0,0.0,0.0,-0.0008177147704529555,-0.523588418348367,9.812854397737246,0.0,0.0,0.0,0.0,0.0,0.0,0.0,0.0,0.0
2025/04/09 10:24:59.649491336,1744187099,647518769,mA1/imu,0.7046726558402691,0.7095298502571246,0.00019618715014367463,0.001949670671175008,0.0,0.0,0.0,0.0,0.0,0.0,0.0,0.0,0.0,0.0012234474455922362,-0.002332594681498203,-0.003127794587144672,0.0,0.0,0.0,0.0,0.0,0.0,0.0,0.0,0.0,-0.00013387040752276327,-0.006441807014693473,9.812776799899751,0.0,0.0,0.0,0.0,0.0,0.0,0.0,0.0,0.0
2025/04/09 10:24:59.700934420,1744187099,698568127,mA1/imu,0.7046128548005651,0.7095892247861201,0.00015448929195170517,0.001957817736522226,0.0,0.0,0.0,0.0,0.0,0.0,0.0,0.0,0.0,0.0006554727506942561,-0.0007684699090750067,-0.003543699719591278,0.0,0.0,0.0,0.0,0.0,0.0,0.0,0.0,0.0,0.015201215074412203,0.5173247314477786,9.81016050199353,0.0,0.0,0.0,0.0,0.0,0.0,0.0,0.0,0.0
2025/04/09 10:24:59.749950957,1744187099,748324874,mA1/imu,0.7045479455725971,0.7096537961077317,0.00012662471973779756,0.0019146867887677567,0.0,0.0,0.0,0.0,0.0,0.0,0.0,0.0,0.0,0.0030286754384981924,0.0013215954646308057,-0.003693475863338939,0.0,0.0,0.0,0.0,0.0,0.0,0.0,0.0,0.0,-0.0034467835253110257,-0.6383239097065859,9.808891238712206,0.0,0.0,0.0,0.0,0.0,0.0,0.0,0.0,0.0
2025/04/09 10:24:59.801539163,1744187099,799297575,mA1/imu,0.7044829658416191,0.7097185598333134,0.00011949494207659885,0.0018172473917170719,0.0,0.0,0.0,0.0,0.0,0.0,0.0,0.0,0.0,0.004064893636720119,0.00336788278978981,-0.003674103350758557,0.0,0.0,0.0,0.0,0.0,0.0,0.0,0.0,0.0,-0.0007914880753343081,-0.0929733894255943,9.807937711166057,0.0,0.0,0.0,0.0,0.0,0.0,0.0,0.0,0.0
2025/04/09 10:24:59.851004905,1744187099,849099801,mA1/imu,0.704417438297278,0.7097839205045395,0.00014484712590530488,0.0016845875507639804,0.0,0.0,0.0,0.0,0.0,0.0,0.0,0.0,0.0,0.00323555089305739,0.005176299815698585,-0.0037183138991955323,0.0,0.0,0.0,0.0,0.0,0.0,0.0,0.0,0.0,0.0012547625275297937,-0.09687201083471772,9.809829090657459,0.0,0.0,0.0,0.0,0.0,0.0,0.0,0.0,0.0
2025/04/09 10:24:59.901111393,1744187099,900044095,mA1/imu,0.7043466592622164,0.7098545360753452,0.000174583154447473,0.0015135125152931825,0.0,0.0,0.0,0.0,0.0,0.0,0.0,0.0,0.0,0.003977455224144481,0.0060395631559141535,-0.004180858162910933,0.0,0.0,0.0,0.0,0.0,0.0,0.0,0.0,0.0,0.02139006948812075,-0.41709737807388025,9.808843954563846,0.0,0.0,0.0,0.0,0.0,0.0,0.0,0.0,0.0
2025/04/09 10:24:59.951112969,1744187099,950034632,mA1/imu,0.7042703367318482,0.7099306283838006,0.00021821399335415163,0.0013221440330715465,0.0,0.0,0.0,0.0,0.0,0.0,0.0,0.0,0.0,0.003334811097813302,0.007141027744606481,-0.004337020377437257,0.0,0.0,0.0,0.0,0.0,0.0,0.0,0.0,0.0,0.00018083863490361667,-0.1260454298295287,9.806364173016334,0.0,0.0,0.0,0.0,0.0,0.0,0.0,0.0,0.0
2025/04/09 10:25:00.2920961,1744187100,1005657,mA1/imu,0.7042046963785433,0.7099960974303086,0.0002917746741965712,0.0010964030622609394,0.0,0.0,0.0,0.0,0.0,0.0,0.0,0.0,0.0,0.0033880882853806167,0.009315203578735966,-0.0032595748810564057,0.0,0.0,0.0,0.0,0.0,0.0,0.0,0.0,0.0,-0.0441653130398041,-0.12157697919782248,9.801273683431956,0.0,0.0,0.0,0.0,0.0,0.0,0.0,0.0,0.0
2025/04/09 10:25:00.61341910,1744187100,56357223,mA1/imu,0.7041524057726103,0.710048248652676,0.00038658609814908203,0.000851223297089594,0.0,0.0,0.0,0.0,0.0,0.0,0.0,0.0,0.0,0.002830546949893642,0.009584965778913334,-0.002879476920006138,0.0,0.0,0.0,0.0,0.0,0.0,0.0,0.0,0.0,0.01281699401375627,0.4824281058612802,9.806205358585503,0.0,0.0,0.0,0.0,0.0,0.0,0.0,0.0,0.0
2025/04/09 10:25:00.98993069,1744187100,97952593,mA1/imu,0.7040971395127622,0.7101032344997704,0.0004721553299230206,0.0006257413638918516,0.0,0.0,0.0,0.0,0.0,0.0,0.0,0.0,0.0,0.0038303882266675425,0.008283991601802546,-0.0032731567985293366,0.0,0.0,0.0,0.0,0.0,0.0,0.0,0.0,0.0,0.03598137638196954,-0.05319482777891672,9.80370041259938,0.0,0.0,0.0,0.0,0.0,0.0,0.0,0.0,0.0
2025/04/09 10:25:00.151730412,1744187100,147786853,mA1/imu,0.704034416243801,0.7101655130027796,0.0005418552139421793,0.00043735417716768833,0.0,0.0,0.0,0.0,0.0,0.0,0.0,0.0,0.0,0.004957858853185914,0.006592000108604575,-0.003702690461508031,0.0,0.0,0.0,0.0,0.0,0.0,0.0,0.0,0.0,0.03549059664362445,-0.5688620269560802,9.804952880096156,0.0,0.0,0.0,0.0,0.0,0.0,0.0,0.0,0.0
2025/04/09 10:25:00.200110544,1744187100,199054584,mA1/imu,0.7039566327273856,0.7102426464008301,0.0005902024726064458,0.00030681216968182214,0.0,0.0,0.0,0.0,0.0,0.0,0.0,0.0,0.0,0.0026831314640126344,0.004134985454708708,-0.0046752787154249725,0.0,0.0,0.0,0.0,0.0,0.0,0.0,0.0,0.0,0.03113428069790741,-0.034780780997107436,9.80949039441802,0.0,0.0,0.0,0.0,0.0,0.0,0.0,0.0,0.0
2025/04/09 10:25:00.249830525,1744187100,248992863,mA1/imu,0.7038707882010172,0.7103277260927098,0.0006198576419899472,0.00022547226653738136,0.0,0.0,0.0,0.0,0.0,0.0,0.0,0.0,0.0,0.0008575188645224311,0.00256429617720065,-0.004876780255716898,0.0,0.0,0.0,0.0,0.0,0.0,0.0,0.0,0.0,0.009833907686591453,-0.04413194642478108,9.808225966455536,0.0,0.0,0.0,0.0,0.0,0.0,0.0,0.0,0.0
2025/04/09 10:25:00.302400304,1744187100,300015217,mA1/imu,0.7037847401366137,0.7104129831686659,0.0006325027942265376,0.00018120830876348202,0.0,0.0,0.0,0.0,0.0,0.0,0.0,0.0,0.0,0.0004535322154283055,0.0009710345261382887,-0.004812560140764964,0.0,0.0,0.0,0.0,0.0,0.0,0.0,0.0,0.0,0.012269652330636774,-0.06473837561351514,9.807477627628103,0.0,0.0,0.0,0.0,0.0,0.0,0.0,0.0,0.0
2025/04/09 10:25:00.350446547,1744187100,349776012,mA1/imu,0.7036993555536174,0.7104975585636896,0.0006343410742306846,0.00018406483013725373,0.0,0.0,0.0,0.0,0.0,0.0,0.0,0.0,0.0,0.0006534802178466982,-0.0006996498014714646,-0.0048201081643926115,0.0,0.0,0.0,0.0,0.0,0.0,0.0,0.0,0.0,0.012822279024321585,-0.2198652074740696,9.810096968472866,0.0,0.0,0.0,0.0,0.0,0.0,0.0,0.0,0.0
2025/04/09 10:25:00.401787170,1744187100,400726842,mA1/imu,0.7036221378156134,0.710574016883356,0.0006361056269230578,0.0002215302900290476,0.0,0.0,0.0,0.0,0.0,0.0,0.0,0.0,0.0,-0.0019477377954675603,-0.0015420971099534928,-0.004207611201185911,0.0,0.0,0.0,0.0,0.0,0.0,0.0,0.0,0.0,0.01478334164826365,0.1320627471541797,9.811593593147132,0.0,0.0,0.0,0.0,0.0,0.0,0.0,0.0,0.0
2025/04/09 10:25:00.451759518,1744187100,450562067,mA1/imu,0.7035480885785822,0.7106473154574499,0.0006247693858918315,0.0002995893151936519,0.0,0.0,0.0,0.0,0.0,0.0,0.0,0.0,0.0,-0.002378068177215468,-0.003190624554060695,-0.004157867816545065,0.0,0.0,0.0,0.0,0.0,0.0,0.0,0.0,0.0,0.01593938138582167,0.14082776616647283,9.812681847288072,0.0,0.0,0.0,0.0,0.0,0.0,0.0,0.0,0.0
2025/04/09 10:25:00.502194197,1744187100,501494792,mA1/imu,0.7034706997855517,0.710723884522647,0.0005950204818099207,0.00042480924143069987,0.0,0.0,0.0,0.0,0.0,0.0,0.0,0.0,0.0,-0.002961443710611575,-0.005146329767517846,-0.0044951317960172255,0.0,0.0,0.0,0.0,0.0,0.0,0.0,0.0,0.0,0.02907934362328037,-0.07374606238771017,9.812453904205018,0.0,0.0,0.0,0.0,0.0,0.0,0.0,0.0,0.0
2025/04/09 10:25:00.553894869,1744187100,552769164,mA1/imu,0.7033870884279967,0.7108065503159477,0.0005472979068939478,0.0005935703232656689,0.0,0.0,0.0,0.0,0.0,0.0,0.0,0.0,0.0,-0.0033435974772486137,-0.0067373627546528,-0.004850674304541387,0.0,0.0,0.0,0.0,0.0,0.0,0.0,0.0,0.0,0.02710293132680857,-0.056937986085147704,9.813265494321557,0.0,0.0,0.0,0.0,0.0,0.0,0.0,0.0,0.0
2025/04/09 10:25:00.604826520,1744187100,603750697,mA1/imu,0.7032999019598197,0.7108926578686733,0.0004939076120537099,0.0007955796579196051,0.0,0.0,0.0,0.0,0.0,0.0,0.0,0.0,0.0,-0.004856546476194678,-0.0074893261793848595,-0.004945945087767263,0.0,0.0,0.0,0.0,0.0,0.0,0.0,0.0,0.0,0.006223518200059292,0.1616751353849894,9.813801359610695,0.0,0.0,0.0,0.0,0.0,0.0,0.0,0.0,0.0
2025/04/09 10:25:00.656154719,1744187100,653690812,mA1/imu,0.7032118909455081,0.7109794768982934,0.0004424113059505262,0.0010119953104876355,0.0,0.0,0.0,0.0,0.0,0.0,0.0,0.0,0.0,-0.004241728852707404,-0.00761233901600638,-0.00495221431028788,0.0,0.0,0.0,0.0,0.0,0.0,0.0,0.0,0.0,0.00514903000282652,-0.6860981923213466,9.81261134972362,0.0,0.0,0.0,0.0,0.0,0.0,0.0,0.0,0.0
2025/04/09 10:25:00.705675512,1744187100,704626175,mA1/imu,0.703124792808615,0.7110653114677429,0.000391307264764484,0.0012228833748984958,0.0,0.0,0.0,0.0,0.0,0.0,0.0,0.0,0.0,-0.004004272678034231,-0.007256593318924303,-0.004880140585356792,0.0,0.0,0.0,0.0,0.0,0.0,0.0,0.0,0.0,0.003095908724997345,-0.21879738071060162,9.812586441716556,0.0,0.0,0.0,0.0,0.0,0.0,0.0,0.0,0.0
2025/04/09 10:25:00.755427018,1744187100,754452872,mA1/imu,0.7030381332787332,0.7111506298501228,0.0003550095503776252,0.001427861319189995,0.0,0.0,0.0,0.0,0.0,0.0,0.0,0.0,0.0,-0.005454500015646875,-0.006512377433018271,-0.004860971432473527,0.0,0.0,0.0,0.0,0.0,0.0,0.0,0.0,0.0,0.003490891815818284,0.4913823556105092,9.81246123928181,0.0,0.0,0.0,0.0,0.0,0.0,0.0,0.0,0.0
2025/04/09 10:25:00.806559730,1744187100,805402037,mA1/imu,0.7029516195788058,0.7112357557192255,0.00033089530040203354,0.0016158051664924042,0.0,0.0,0.0,0.0,0.0,0.0,0.0,0.0,0.0,-0.0046498101883799955,-0.005568766091345057,-0.004851695792137098,0.0,0.0,0.0,0.0,0.0,0.0,0.0,0.0,0.0,0.001393085402042634,0.39502302061398503,9.811698634452071,0.0,0.0,0.0,0.0,0.0,0.0,0.0,0.0,0.0
2025/04/09 10:25:00.856594113,1744187100,855224669,mA1/imu,0.7028654770586878,0.7113205105929519,0.00032263616802199503,0.0017743378338678046,0.0,0.0,0.0,0.0,0.0,0.0,0.0,0.0,0.0,-0.003446300639758194,-0.004149788934039413,-0.004825232142871715,0.0,0.0,0.0,0.0,0.0,0.0,0.0,0.0,0.0,0.001223591315915068,-0.31233742790424335,9.811342575720243,0.0,0.0,0.0,0.0,0.0,0.0,0.0,0.0,0.0
2025/04/09 10:25:00.907779122,1744187100,906199987,mA1/imu,0.7027787188390362,0.7114059143837039,0.0003249511655921668,0.0018951869535526774,0.0,0.0,0.0,0.0,0.0,0.0,0.0,0.0,0.0,-0.0018964934763740424,-0.0028714641278416446,-0.004957300593053211,0.0,0.0,0.0,0.0,0.0,0.0,0.0,0.0,0.0,0.017724362179559427,-0.3276605192346904,9.809415487374931,0.0,0.0,0.0,0.0,0.0,0.0,0.0,0.0,0.0
2025/04/09 10:25:00.947397326,1744187100,946509650,mA1/imu,0.7026878762436175,0.7114953736157804,0.000348994493178089,0.0019900016128530694,0.0,0.0,0.0,0.0,0.0,0.0,0.0,0.0,0.0,-0.0027602345009715337,-0.0015542799775735596,-0.005278232489865687,0.0,0.0,0.0,0.0,0.0,0.0,0.0,0.0,0.0,0.02586624359558376,-0.1176300124614868,9.811950793494281,0.0,0.0,0.0,0.0,0.0,0.0,0.0,0.0,0.0
2025/04/09 10:25:00.998004733,1744187100,997105127,mA1/imu,0.702585355614463,0.7115964239193244,0.0003723151741038919,0.002051565923664193,0.0,0.0,0.0,0.0,0.0,0.0,0.0,0.0,0.0,-0.0023231739684635975,-0.000982163114331859,-0.006219558082589302,0.0,0.0,0.0,0.0,0.0,0.0,0.0,0.0,0.0,0.05294988582811982,-0.12640435049507398,9.81495137712571,0.0,0.0,0.0,0.0,0.0,0.0,0.0,0.0,0.0
2025/04/09 10:25:01.47584292,1744187101,46922359,mA1/imu,0.7024699276366563,0.7117102663807204,0.00039959885350678665,0.0020827422286237482,0.0,0.0,0.0,0.0,0.0,0.0,0.0,0.0,0.0,-0.0012270716545337969,0.0007012967715790626,-0.006493543093615466,0.0,0.0,0.0,0.0,0.0,0.0,0.0,0.0,0.0,-0.002244756038728632,-0.09066124849114932,9.807057927226042,0.0,0.0,0.0,0.0,0.0,0.0,0.0,0.0,0.0
2025/04/09 10:25:01.99589667,1744187101,97872173,mA1/imu,0.7023598032941044,0.711818991866313,0.00045216988044298456,0.002055499329104924,0.0,0.0,0.0,0.0,0.0,0.0,0.0,0.0,0.0,-0.00037981962434998875,0.0033727760055898013,-0.005907085665416597,0.0,0.0,0.0,0.0,0.0,0.0,0.0,0.0,0.0,-0.04652324195014394,-0.09706523319521843,9.805491541399128,0.0,0.0,0.0,0.0,0.0,0.0,0.0,0.0,0.0
2025/04/09 10:25:01.149717278,1744187101,147747801,mA1/imu,0.7022647708571194,0.7119129764062749,0.0005338410405229443,0.001954648587296489,0.0,0.0,0.0,0.0,0.0,0.0,0.0,0.0,0.0,0.000937047093112785,0.006009655174192302,-0.00514492901266299,0.0,0.0,0.0,0.0,0.0,0.0,0.0,0.0,0.0,0.003418271340515769,-0.08578064997695335,9.805708711910306,0.0,0.0,0.0,0.0,0.0,0.0,0.0,0.0,0.0
