time,header_stamp_secs,header_stamp_nsecs,header_frame_id,orientation_x,orientation_y,orientation_z,orientation_w,orientation_covariance_0,orientation_covariance_1,orientation_covariance_2,orientation_covariance_3,orientation_covariance_4,orientation_covariance_5,orientation_covariance_6,orientation_covariance_7,orientation_covariance_8,angular_velocity_x,angular_velocity_y,angular_velocity_z,angular_velocity_covariance_0,angular_velocity_covariance_1,angular_velocity_covariance_2,angular_velocity_covariance_3,angular_velocity_covariance_4,angular_velocity_covariance_5,angular_velocity_covariance_6,angular_velocity_covariance_7,angular_velocity_covariance_8,linear_acceleration_x,linear_acceleration_y,linear_acceleration_z,linear_acceleration_covariance_0,linear_acceleration_covariance_1,linear_acceleration_covariance_2,linear_acceleration_covariance_3,linear_acceleration_covariance_4,linear_acceleration_covariance_5,linear_acceleration_covariance_6,linear_acceleration_covariance_7,linear_acceleration_covariance_8
2025/05/07 10:32:22.848424571,1746606742,848076963,mti/imu_base_body,0.9759229873049262,0.21637585110625374,0.024212560412088618,0.013021744359499713,0.017453292519943295,0.0,0.0,0.0,0.017453292519943295,0.0,0.0,0.0,0.15707963267948966,0.014978007413446903,-0.004596593324095011,0.07556414604187012,0.0004363323129985824,0.0,0.0,0.0,0.0004363323129985824,0.0,0.0,0.0,0.0004363323129985824,-0.2773306667804718,-0.22924576699733734,9.821927070617676,0.0004,0.0,0.0,0.0,0.0004,0.0,0.0,0.0,0.0004
2025/05/07 10:32:22.898996561,1746606742,898739881,mti/imu_base_body,0.9760225627265582,0.21593675394224393,0.024143153591173368,0.012976266036185626,0.017453292519943295,0.0,0.0,0.0,0.017453292519943295,0.0,0.0,0.0,0.15707963267948966,0.016490286216139793,-0.008476708084344864,0.08202099055051804,0.0004363323129985824,0.0,0.0,0.0,0.0004363323129985824,0.0,0.0,0.0,0.0004363323129985824,-0.27113083004951477,-0.22705775499343872,9.796971321105957,0.0004,0.0,0.0,0.0,0.0004,0.0,0.0,0.0,0.0004
2025/05/07 10:32:22.948308957,1746606742,947962593,mti/imu_base_body,0.9761179969928184,0.21550945980330066,0.024114654594004963,0.012954231580046468,0.017453292519943295,0.0,0.0,0.0,0.017453292519943295,0.0,0.0,0.0,0.15707963267948966,0.012211136519908905,-0.002531335921958089,0.07901579886674881,0.0004363323129985824,0.0,0.0,0.0,0.0004363323129985824,0.0,0.0,0.0,0.0004363323129985824,-0.2678220868110657,-0.2453327625989914,9.791322708129883,0.0004,0.0,0.0,0.0,0.0004,0.0,0.0,0.0,0.0004
2025/05/07 10:32:22.998744067,1746606742,998083623,mti/imu_base_body,0.9762096284318116,0.21509657340955912,0.024068611168927508,0.012997208195975093,0.017453292519943295,0.0,0.0,0.0,0.017453292519943295,0.0,0.0,0.0,0.15707963267948966,-0.0007797626894898713,-8.418354263994843e-05,0.07407141476869583,0.0004363323129985824,0.0,0.0,0.0,0.0004363323129985824,0.0,0.0,0.0,0.0004363323129985824,-0.2580811083316803,-0.2323927879333496,9.79599380493164,0.0004,0.0,0.0,0.0,0.0004,0.0,0.0,0.0,0.0004
2025/05/07 10:32:23.48582115,1746606743,48082190,mti/imu_base_body,0.9762965198180844,0.21469722486640008,0.02407919526060518,0.013053711401924128,0.017453292519943295,0.0,0.0,0.0,0.017453292519943295,0.0,0.0,0.0,0.15707963267948966,-0.0002962703292723745,-0.0018295360496267676,0.07115550339221954,0.0004363323129985824,0.0,0.0,0.0,0.0004363323129985824,0.0,0.0,0.0,0.0004363323129985824,-0.2652549743652344,-0.22704137861728668,9.809195518493652,0.0004,0.0,0.0,0.0,0.0004,0.0,0.0,0.0,0.0004
2025/05/07 10:32:23.98172622,1746606743,97885049,mti/imu_base_body,0.9763878348081059,0.2142814404550178,0.02409200511183766,0.013032099023290344,0.017453292519943295,0.0,0.0,0.0,0.017453292519943295,0.0,0.0,0.0,0.15707963267948966,0.008407260291278362,0.006575733423233032,0.07350782305002213,0.0004363323129985824,0.0,0.0,0.0,0.0004363323129985824,0.0,0.0,0.0,0.0004363323129985824,-0.2586861252784729,-0.23421570658683777,9.794905662536621,0.0004,0.0,0.0,0.0,0.0004,0.0,0.0,0.0,0.0004
2025/05/07 10:32:23.148522199,1746606743,148251660,mti/imu_base_body,0.9764826720713268,0.21384798517555537,0.024098936298870197,0.013033481885505984,0.017453292519943295,0.0,0.0,0.0,0.017453292519943295,0.0,0.0,0.0,0.15707963267948966,0.00885090883821249,0.0013846878428012133,0.07263806462287903,0.0004363323129985824,0.0,0.0,0.0,0.0004363323129985824,0.0,0.0,0.0,0.0004363323129985824,-0.27634933590888977,-0.2314719408750534,9.811127662658691,0.0004,0.0,0.0,0.0,0.0004,0.0,0.0,0.0,0.0004
2025/05/07 10:32:23.197995745,1746606743,197736308,mti/imu_base_body,0.9765644525023947,0.21347546755829988,0.024089327061685643,0.013030701484514372,0.017453292519943295,0.0,0.0,0.0,0.017453292519943295,0.0,0.0,0.0,0.15707963267948966,0.004355798941105604,0.00725963432341814,0.07302897423505783,0.0004363323129985824,0.0,0.0,0.0,0.0004363323129985824,0.0,0.0,0.0,0.0004363323129985824,-0.27303454279899597,-0.2245102822780609,9.813048362731934,0.0004,0.0,0.0,0.0,0.0004,0.0,0.0,0.0,0.0004
2025/05/07 10:32:23.249647805,1746606743,249400409,mti/imu_base_body,0.9766602322090192,0.21303568478472973,0.024082432669927302,0.013062322397821067,0.017453292519943295,0.0,0.0,0.0,0.017453292519943295,0.0,0.0,0.0,0.15707963267948966,0.0038755626883357763,-0.0060326349921524525,0.08053739368915558,0.0004363323129985824,0.0,0.0,0.0,0.0004363323129985824,0.0,0.0,0.0,0.0004363323129985824,-0.2677535116672516,-0.24908863008022308,9.810524940490723,0.0004,0.0,0.0,0.0,0.0004,0.0,0.0,0.0,0.0004
2025/05/07 10:32:23.298624734,1746606743,298051275,mti/imu_base_body,0.9767590960474177,0.21258344659139922,0.02405573853236823,0.013086938817591712,0.017453292519943295,0.0,0.0,0.0,0.017453292519943295,0.0,0.0,0.0,0.15707963267948966,0.0017267612274736166,0.002709747990593314,0.07906892895698547,0.0004363323129985824,0.0,0.0,0.0,0.0004363323129985824,0.0,0.0,0.0,0.0004363323129985824,-0.25124591588974,-0.2507675588130951,9.789251327514648,0.0004,0.0,0.0,0.0,0.0004,0.0,0.0,0.0,0.0004
2025/05/07 10:32:23.348616232,1746606743,347945033,mti/imu_base_body,0.9768511604099671,0.21215989711150962,0.02405646666742372,0.013087202711566132,0.017453292519943295,0.0,0.0,0.0,0.017453292519943295,0.0,0.0,0.0,0.15707963267948966,0.0089542455971241,0.0044560800306499004,0.07845213264226913,0.0004363323129985824,0.0,0.0,0.0,0.0004363323129985824,0.0,0.0,0.0,0.0004363323129985824,-0.26308906078338623,-0.22983741760253906,9.812089920043945,0.0004,0.0,0.0,0.0,0.0004,0.0,0.0,0.0,0.0004
2025/05/07 10:32:23.398638754,1746606743,397853851,mti/imu_base_body,0.976947304585098,0.21171850189201397,0.024044879963032045,0.013079899390906997,0.017453292519943295,0.0,0.0,0.0,0.017453292519943295,0.0,0.0,0.0,0.15707963267948966,0.01210201159119606,-0.0038069647271186113,0.08370259404182434,0.0004363323129985824,0.0,0.0,0.0,0.0004363323129985824,0.0,0.0,0.0,0.0004363323129985824,-0.26190102100372314,-0.22102345526218414,9.82409381866455,0.0004,0.0,0.0,0.0,0.0004,0.0,0.0,0.0,0.0004
2025/05/07 10:32:23.448389512,1746606743,448013023,mti/imu_base_body,0.9770437894316075,0.21127498084021568,0.02401767791420509,0.013094546639741075,0.017453292519943295,0.0,0.0,0.0,0.017453292519943295,0.0,0.0,0.0,0.15707963267948966,0.007041925564408302,-0.0015057374257594347,0.08084020763635635,0.0004363323129985824,0.0,0.0,0.0,0.0004363323129985824,0.0,0.0,0.0,0.0004363323129985824,-0.25983819365501404,-0.24190185964107513,9.809679985046387,0.0004,0.0,0.0,0.0,0.0004,0.0,0.0,0.0,0.0004
2025/05/07 10:32:23.498447256,1746606743,498055481,mti/imu_base_body,0.9771401781526705,0.2108261022597256,0.024045043255681367,0.013086739111472394,0.017453292519943295,0.0,0.0,0.0,0.017453292519943295,0.0,0.0,0.0,0.15707963267948966,0.008875853382050991,0.00964755192399025,0.0764225497841835,0.0004363323129985824,0.0,0.0,0.0,0.0004363323129985824,0.0,0.0,0.0,0.0004363323129985824,-0.2549237608909607,-0.2331065684556961,9.802457809448242,0.0004,0.0,0.0,0.0,0.0004,0.0,0.0,0.0,0.0004
2025/05/07 10:32:23.548722640,1746606743,548065519,mti/imu_base_body,0.977230246308733,0.21040807291872382,0.024050400764325148,0.013079249713842531,0.017453292519943295,0.0,0.0,0.0,0.017453292519943295,0.0,0.0,0.0,0.15707963267948966,0.0067476676777005196,0.0015727212885394692,0.08079499751329422,0.0004363323129985824,0.0,0.0,0.0,0.0004363323129985824,0.0,0.0,0.0,0.0004363323129985824,-0.2731257677078247,-0.2204645425081253,9.816645622253418,0.0004,0.0,0.0,0.0,0.0004,0.0,0.0,0.0,0.0004
2025/05/07 10:32:23.598234694,1746606743,597937687,mti/imu_base_body,0.9773204137446324,0.2099969243939549,0.024008889156709224,0.013025892083112948,0.017453292519943295,0.0,0.0,0.0,0.017453292519943295,0.0,0.0,0.0,0.15707963267948966,0.018797913566231728,-0.0014115928206592798,0.07393816858530045,0.0004363323129985824,0.0,0.0,0.0,0.0004363323129985824,0.0,0.0,0.0,0.0004363323129985824,-0.2727506160736084,-0.21584273874759674,9.813552856445312,0.0004,0.0,0.0,0.0,0.0004,0.0,0.0,0.0,0.0004
2025/05/07 10:32:23.648084748,1746606743,647789480,mti/imu_base_body,0.9774110783488548,0.2095809032825704,0.02394165848788163,0.013047064384000268,0.017453292519943295,0.0,0.0,0.0,0.017453292519943295,0.0,0.0,0.0,0.15707963267948966,0.009204789064824581,-0.013229790143668652,0.0736360102891922,0.0004363323129985824,0.0,0.0,0.0,0.0004363323129985824,0.0,0.0,0.0,0.0004363323129985824,-0.26834753155708313,-0.21644370257854462,9.814393043518066,0.0004,0.0,0.0,0.0,0.0004,0.0,0.0,0.0,0.0004
2025/05/07 10:32:23.698729942,1746606743,698028374,mti/imu_base_body,0.9775008708929878,0.20916604429219898,0.023912997264898594,0.013030037621323624,0.017453292519943295,0.0,0.0,0.0,0.017453292519943295,0.0,0.0,0.0,0.15707963267948966,0.010632341727614403,0.0007830259273760021,0.07350562512874603,0.0004363323129985824,0.0,0.0,0.0,0.0004363323129985824,0.0,0.0,0.0,0.0004363323129985824,-0.2520938217639923,-0.24416111409664154,9.803794860839844,0.0004,0.0,0.0,0.0,0.0004,0.0,0.0,0.0,0.0004
2025/05/07 10:32:23.748066581,1746606743,747777441,mti/imu_base_body,0.9775954386696999,0.20872602532556567,0.02389175628693031,0.013030296447680213,0.017453292519943295,0.0,0.0,0.0,0.017453292519943295,0.0,0.0,0.0,0.15707963267948966,0.010464931838214397,-0.004523945041000843,0.08366112411022186,0.0004363323129985824,0.0,0.0,0.0,0.0004363323129985824,0.0,0.0,0.0,0.0004363323129985824,-0.25159233808517456,-0.23185469210147858,9.816991806030273,0.0004,0.0,0.0,0.0,0.0004,0.0,0.0,0.0,0.0004
2025/05/07 10:32:23.798069828,1746606743,797824941,mti/imu_base_body,0.9776840957370729,0.20831486114269443,0.023849756392369036,0.013035209622659572,0.017453292519943295,0.0,0.0,0.0,0.017453292519943295,0.0,0.0,0.0,0.15707963267948966,0.007162156980484724,0.0014168443158268929,0.07219976931810379,0.0004363323129985824,0.0,0.0,0.0,0.0004363323129985824,0.0,0.0,0.0,0.0004363323129985824,-0.26282188296318054,-0.22960355877876282,9.814366340637207,0.0004,0.0,0.0,0.0,0.0004,0.0,0.0,0.0,0.0004
2025/05/07 10:32:23.848796600,1746606743,847934298,mti/imu_base_body,0.9777763183747972,0.2078843924536875,0.023829475644546315,0.01302715203314179,0.017453292519943295,0.0,0.0,0.0,0.017453292519943295,0.0,0.0,0.0,0.15707963267948966,0.00772096449509263,-0.005162710789591074,0.07710188627243042,0.0004363323129985824,0.0,0.0,0.0,0.0004363323129985824,0.0,0.0,0.0,0.0004363323129985824,-0.2573363184928894,-0.22612769901752472,9.802603721618652,0.0004,0.0,0.0,0.0,0.0004,0.0,0.0,0.0,0.0004
2025/05/07 10:32:23.901979255,1746606743,901610064,mti/imu_base_body,0.9778671104575658,0.20745832901843392,0.023799306508480736,0.013059441640641628,0.017453292519943295,0.0,0.0,0.0,0.017453292519943295,0.0,0.0,0.0,0.15707963267948966,0.006418790202587843,0.0013583269901573658,0.08015624433755875,0.0004363323129985824,0.0,0.0,0.0,0.0004363323129985824,0.0,0.0,0.0,0.0004363323129985824,-0.26188886165618896,-0.22318053245544434,9.805596351623535,0.0004,0.0,0.0,0.0,0.0004,0.0,0.0,0.0,0.0004
2025/05/07 10:32:23.948553998,1746606743,948095075,mti/imu_base_body,0.9779694430407193,0.2069807245863391,0.023769823952063725,0.013028568517957497,0.017453292519943295,0.0,0.0,0.0,0.017453292519943295,0.0,0.0,0.0,0.15707963267948966,0.015633272007107735,-0.003765263594686985,0.08848902583122253,0.0004363323129985824,0.0,0.0,0.0,0.0004363323129985824,0.0,0.0,0.0,0.0004363323129985824,-0.2533755898475647,-0.24057114124298096,9.817493438720703,0.0004,0.0,0.0,0.0,0.0004,0.0,0.0,0.0,0.0004
2025/05/07 10:32:23.998177050,1746606743,997846737,mti/imu_base_body,0.9780607383144352,0.20654763963436873,0.02376140778974401,0.013063698907362404,0.017453292519943295,0.0,0.0,0.0,0.017453292519943295,0.0,0.0,0.0,0.15707963267948966,-0.0032786668743938208,-0.004183677025139332,0.0793694332242012,0.0004363323129985824,0.0,0.0,0.0,0.0004363323129985824,0.0,0.0,0.0,0.0004363323129985824,-0.2612017095088959,-0.22849072515964508,9.804624557495117,0.0004,0.0,0.0,0.0,0.0004,0.0,0.0,0.0,0.0004
2025/05/07 10:32:24.48077273,1746606744,47769667,mti/imu_base_body,0.9781530040001404,0.20611397861429082,0.023737697569385176,0.013047999823476684,0.017453292519943295,0.0,0.0,0.0,0.017453292519943295,0.0,0.0,0.0,0.15707963267948966,0.00999930128455162,0.0006790404440835118,0.07670798152685165,0.0004363323129985824,0.0,0.0,0.0,0.0004363323129985824,0.0,0.0,0.0,0.0004363323129985824,-0.2495279759168625,-0.2363768219947815,9.819635391235352,0.0004,0.0,0.0,0.0,0.0004,0.0,0.0,0.0,0.0004
2025/05/07 10:32:24.98070753,1746606744,97762570,mti/imu_base_body,0.9782426391801573,0.2056906975611963,0.023716865997983345,0.013045539232341358,0.017453292519943295,0.0,0.0,0.0,0.017453292519943295,0.0,0.0,0.0,0.15707963267948966,0.013699015602469444,0.0023073654156178236,0.07871860265731812,0.0004363323129985824,0.0,0.0,0.0,0.0004363323129985824,0.0,0.0,0.0,0.0004363323129985824,-0.2591191232204437,-0.24086090922355652,9.81292724609375,0.0004,0.0,0.0,0.0,0.0004,0.0,0.0,0.0,0.0004
2025/05/07 10:32:24.147989071,1746606744,147763106,mti/imu_base_body,0.9783368069543272,0.20524807838545195,0.02365822913972261,0.013061648879946883,0.017453292519943295,0.0,0.0,0.0,0.017453292519943295,0.0,0.0,0.0,0.15707963267948966,0.005343799479305744,-0.010324814356863499,0.07752876728773117,0.0004363323129985824,0.0,0.0,0.0,0.0004363323129985824,0.0,0.0,0.0,0.0004363323129985824,-0.26756754517555237,-0.23476725816726685,9.817264556884766,0.0004,0.0,0.0,0.0,0.0004,0.0,0.0,0.0,0.0004
2025/05/07 10:32:24.198164694,1746606744,197863511,mti/imu_base_body,0.9784224306474923,0.20483855586295785,0.02367289214015595,0.013050188333944827,0.017453292519943295,0.0,0.0,0.0,0.017453292519943295,0.0,0.0,0.0,0.15707963267948966,0.010537858121097088,0.00825432687997818,0.07250728458166122,0.0004363323129985824,0.0,0.0,0.0,0.0004363323129985824,0.0,0.0,0.0,0.0004363323129985824,-0.26491057872772217,-0.2262302041053772,9.81291675567627,0.0004,0.0,0.0,0.0,0.0004,0.0,0.0,0.0,0.0004
2025/05/07 10:32:24.248075736,1746606744,247781713,mti/imu_base_body,0.9785167977378904,0.20439057072120898,0.023662777357961025,0.013017070052454886,0.017453292519943295,0.0,0.0,0.0,0.017453292519943295,0.0,0.0,0.0,0.15707963267948966,0.009959514252841473,0.0018345260759815574,0.0854206383228302,0.0004363323129985824,0.0,0.0,0.0,0.0004363323129985824,0.0,0.0,0.0,0.0004363323129985824,-0.2592954635620117,-0.23428690433502197,9.811481475830078,0.0004,0.0,0.0,0.0,0.0004,0.0,0.0,0.0,0.0004
2025/05/07 10:32:24.298194233,1746606744,297883535,mti/imu_base_body,0.9786000462274472,0.203993305476052,0.02364017489529013,0.013031614462996183,0.017453292519943295,0.0,0.0,0.0,0.017453292519943295,0.0,0.0,0.0,0.15707963267948966,0.005790658760815859,-0.0007077370537444949,0.0670357421040535,0.0004363323129985824,0.0,0.0,0.0,0.0004363323129985824,0.0,0.0,0.0,0.0004363323129985824,-0.2629433274269104,-0.22423043847084045,9.80920696258545,0.0004,0.0,0.0,0.0,0.0004,0.0,0.0,0.0,0.0004
2025/05/07 10:32:24.350325186,1746606744,348836950,mti/imu_base_body,0.9786858837211205,0.20357991421406768,0.023632727790925952,0.013063449420503356,0.017453292519943295,0.0,0.0,0.0,0.017453292519943295,0.0,0.0,0.0,0.15707963267948966,0.00440153107047081,0.000759269401896745,0.07807011157274246,0.0004363323129985824,0.0,0.0,0.0,0.0004363323129985824,0.0,0.0,0.0,0.0004363323129985824,-0.2602265477180481,-0.22987127304077148,9.806316375732422,0.0004,0.0,0.0,0.0,0.0004,0.0,0.0,0.0,0.0004
2025/05/07 10:32:24.399109014,1746606744,398020889,mti/imu_base_body,0.9787771925643869,0.20314349855408004,0.023603785636444448,0.013068573549323607,0.017453292519943295,0.0,0.0,0.0,0.017453292519943295,0.0,0.0,0.0,0.15707963267948966,0.00581142446026206,-0.0037883282639086246,0.08267030864953995,0.0004363323129985824,0.0,0.0,0.0,0.0004363323129985824,0.0,0.0,0.0,0.0004363323129985824,-0.25177615880966187,-0.24911393225193024,9.802352905273438,0.0004,0.0,0.0,0.0,0.0004,0.0,0.0,0.0,0.0004
2025/05/07 10:32:24.449531247,1746606744,448499785,mti/imu_base_body,0.9788625554133996,0.20273383708547138,0.023587258644779764,0.01306637439288235,0.017453292519943295,0.0,0.0,0.0,0.017453292519943295,0.0,0.0,0.0,0.15707963267948966,0.012112610042095184,-0.0014795586466789246,0.07130009680986404,0.0004363323129985824,0.0,0.0,0.0,0.0004363323129985824,0.0,0.0,0.0,0.0004363323129985824,-0.2540763020515442,-0.22018899023532867,9.8048734664917,0.0004,0.0,0.0,0.0,0.0004,0.0,0.0,0.0,0.0004
2025/05/07 10:32:24.498162969,1746606744,497843845,mti/imu_base_body,0.9789591367393367,0.20227105838244347,0.02354198770972128,0.013084431592318809,0.017453292519943295,0.0,0.0,0.0,0.017453292519943295,0.0,0.0,0.0,0.15707963267948966,0.005557812284678221,-0.008998794481158257,0.08223658055067062,0.0004363323129985824,0.0,0.0,0.0,0.0004363323129985824,0.0,0.0,0.0,0.0004363323129985824,-0.25885987281799316,-0.2342018336057663,9.819774627685547,0.0004,0.0,0.0,0.0,0.0004,0.0,0.0,0.0,0.0004
2025/05/07 10:32:24.548099474,1746606744,547788683,mti/imu_base_body,0.9790524676077733,0.20182536827263242,0.02350570525479323,0.013048686264176483,0.017453292519943295,0.0,0.0,0.0,0.017453292519943295,0.0,0.0,0.0,0.15707963267948966,0.01775713637471199,0.003129736753180623,0.0822739526629448,0.0004363323129985824,0.0,0.0,0.0,0.0004363323129985824,0.0,0.0,0.0,0.0004363323129985824,-0.24554049968719482,-0.2369306981563568,9.817947387695312,0.0004,0.0,0.0,0.0,0.0004,0.0,0.0,0.0,0.0004
2025/05/07 10:32:24.598073241,1746606744,597787511,mti/imu_base_body,0.9791374839576665,0.2014127444252361,0.023501422247343445,0.013052855798519426,0.017453292519943295,0.0,0.0,0.0,0.017453292519943295,0.0,0.0,0.0,0.15707963267948966,0.0049253408797085285,-0.0038824533112347126,0.07625970989465714,0.0004363323129985824,0.0,0.0,0.0,0.0004363323129985824,0.0,0.0,0.0,0.0004363323129985824,-0.25445932149887085,-0.2235124409198761,9.816757202148438,0.0004,0.0,0.0,0.0,0.0004,0.0,0.0,0.0,0.0004
2025/05/07 10:32:24.648026047,1746606744,647787962,mti/imu_base_body,0.9792234201256894,0.20099594436917212,0.023482920837266393,0.013064312207030191,0.017453292519943295,0.0,0.0,0.0,0.017453292519943295,0.0,0.0,0.0,0.15707963267948966,0.004827193450182676,0.00494202459231019,0.07290463149547577,0.0004363323129985824,0.0,0.0,0.0,0.0004363323129985824,0.0,0.0,0.0,0.0004363323129985824,-0.2573217451572418,-0.22488252818584442,9.82155704498291,0.0004,0.0,0.0,0.0,0.0004,0.0,0.0,0.0,0.0004
2025/05/07 10:32:24.698054218,1746606744,697818708,mti/imu_base_body,0.9793147499944646,0.2005498097523461,0.0234873523310265,0.013066695529290061,0.017453292519943295,0.0,0.0,0.0,0.017453292519943295,0.0,0.0,0.0,0.15707963267948966,0.004595865495502949,-0.0030208758544176817,0.0809633731842041,0.0004363323129985824,0.0,0.0,0.0,0.0004363323129985824,0.0,0.0,0.0,0.0004363323129985824,-0.26338133215904236,-0.23210959136486053,9.813648223876953,0.0004,0.0,0.0,0.0,0.0004,0.0,0.0,0.0,0.0004
2025/05/07 10:32:24.748073526,1746606744,747779595,mti/imu_base_body,0.9794081049945205,0.2000985905481319,0.023442334606473235,0.013068086313297332,0.017453292519943295,0.0,0.0,0.0,0.017453292519943295,0.0,0.0,0.0,0.15707963267948966,0.01762668415904045,-0.003873505862429738,0.08262176066637039,0.0004363323129985824,0.0,0.0,0.0,0.0004363323129985824,0.0,0.0,0.0,0.0004363323129985824,-0.2503591477870941,-0.22657185792922974,9.805832862854004,0.0004,0.0,0.0,0.0,0.0004,0.0,0.0,0.0,0.0004
2025/05/07 10:32:24.800069248,1746606744,799720521,mti/imu_base_body,0.979497389981268,0.1996674646509422,0.023393968367469688,0.013057136890240293,0.017453292519943295,0.0,0.0,0.0,0.017453292519943295,0.0,0.0,0.0,0.15707963267948966,0.008659330196678638,-0.0047727422788739204,0.08218931406736374,0.0004363323129985824,0.0,0.0,0.0,0.0004363323129985824,0.0,0.0,0.0,0.0004363323129985824,-0.2550446093082428,-0.2293524295091629,9.821561813354492,0.0004,0.0,0.0,0.0,0.0004,0.0,0.0,0.0,0.0004
2025/05/07 10:32:24.848639958,1746606744,848334889,mti/imu_base_body,0.9795854808524918,0.19923827951509004,0.023356074655096034,0.013072392878314413,0.017453292519943295,0.0,0.0,0.0,0.017453292519943295,0.0,0.0,0.0,0.15707963267948966,0.0048940605483949184,-0.0036830271128565073,0.07511447370052338,0.0004363323129985824,0.0,0.0,0.0,0.0004363323129985824,0.0,0.0,0.0,0.0004363323129985824,-0.2567748427391052,-0.2272595465183258,9.817602157592773,0.0004,0.0,0.0,0.0,0.0004,0.0,0.0,0.0,0.0004
2025/05/07 10:32:24.899397557,1746606744,898204618,mti/imu_base_body,0.9796723561635019,0.1988113758561924,0.023330420524867855,0.013107359663670244,0.017453292519943295,0.0,0.0,0.0,0.017453292519943295,0.0,0.0,0.0,0.15707963267948966,-0.0005828468129038811,-0.004245117772370577,0.0758693516254425,0.0004363323129985824,0.0,0.0,0.0,0.0004363323129985824,0.0,0.0,0.0,0.0004363323129985824,-0.2626577913761139,-0.2344464659690857,9.81328296661377,0.0004,0.0,0.0,0.0,0.0004,0.0,0.0,0.0,0.0004
2025/05/07 10:32:24.948074424,1746606744,947751771,mti/imu_base_body,0.9797596418899861,0.19838353420426147,0.023307505107826025,0.013106398661780976,0.017453292519943295,0.0,0.0,0.0,0.017453292519943295,0.0,0.0,0.0,0.15707963267948966,0.012485145591199398,-0.001068614423274994,0.07481954991817474,0.0004363323129985824,0.0,0.0,0.0,0.0004363323129985824,0.0,0.0,0.0,0.0004363323129985824,-0.24730104207992554,-0.23908482491970062,9.803423881530762,0.0004,0.0,0.0,0.0,0.0004,0.0,0.0,0.0,0.0004
2025/05/07 10:32:24.998228563,1746606744,997913685,mti/imu_base_body,0.9798454588792291,0.19796330021755693,0.02327281809649892,0.013106655506785407,0.017453292519943295,0.0,0.0,0.0,0.017453292519943295,0.0,0.0,0.0,0.15707963267948966,0.004595215432345867,-0.0004027179384138435,0.07792550325393677,0.0004363323129985824,0.0,0.0,0.0,0.0004363323129985824,0.0,0.0,0.0,0.0004363323129985824,-0.25376346707344055,-0.232890322804451,9.80139446258545,0.0004,0.0,0.0,0.0,0.0004,0.0,0.0,0.0,0.0004
2025/05/07 10:32:25.48149083,1746606745,47894298,mti/imu_base_body,0.9799370672052238,0.19751339565143022,0.02322777477556891,0.013125293689729391,0.017453292519943295,0.0,0.0,0.0,0.017453292519943295,0.0,0.0,0.0,0.15707963267948966,0.00598346721380949,-0.011303357779979706,0.07766350358724594,0.0004363323129985824,0.0,0.0,0.0,0.0004363323129985824,0.0,0.0,0.0,0.0004363323129985824,-0.2684424817562103,-0.23605868220329285,9.82206916809082,0.0004,0.0,0.0,0.0,0.0004,0.0,0.0,0.0,0.0004
2025/05/07 10:32:25.99078088,1746606745,98058838,mti/imu_base_body,0.9800163278056868,0.19712266329756695,0.023187191716323052,0.013153212118762471,0.017453292519943295,0.0,0.0,0.0,0.017453292519943295,0.0,0.0,0.0,0.15707963267948966,0.006813501473516226,-0.005095347762107849,0.07278143614530563,0.0004363323129985824,0.0,0.0,0.0,0.0004363323129985824,0.0,0.0,0.0,0.0004363323129985824,-0.24783384799957275,-0.23343318700790405,9.814469337463379,0.0004,0.0,0.0,0.0,0.0004,0.0,0.0,0.0,0.0004
2025/05/07 10:32:25.148477588,1746606745,148051279,mti/imu_base_body,0.9800987979242555,0.19671914753330544,0.023133022497797476,0.013144830592872348,0.017453292519943295,0.0,0.0,0.0,0.017453292519943295,0.0,0.0,0.0,0.15707963267948966,0.01261182315647602,-0.0038767384830862284,0.0738607868552208,0.0004363323129985824,0.0,0.0,0.0,0.0004363323129985824,0.0,0.0,0.0,0.0004363323129985824,-0.2547067105770111,-0.23196814954280853,9.805967330932617,0.0004,0.0,0.0,0.0,0.0004,0.0,0.0,0.0,0.0004
2025/05/07 10:32:25.198425783,1746606745,198029728,mti/imu_base_body,0.980178777539428,0.1963238776408165,0.023105261023460402,0.013139484100372495,0.017453292519943295,0.0,0.0,0.0,0.017453292519943295,0.0,0.0,0.0,0.15707963267948966,0.012344741262495518,-0.001085246680304408,0.0719829574227333,0.0004363323129985824,0.0,0.0,0.0,0.0004363323129985824,0.0,0.0,0.0,0.0004363323129985824,-0.2504127025604248,-0.23858430981636047,9.816627502441406,0.0004,0.0,0.0,0.0,0.0004,0.0,0.0,0.0,0.0004
2025/05/07 10:32:25.248704668,1746606745,248280318,mti/imu_base_body,0.9802654572650149,0.19589627306013774,0.02308139948508983,0.013097041344077801,0.017453292519943295,0.0,0.0,0.0,0.017453292519943295,0.0,0.0,0.0,0.15707963267948966,0.012991814874112606,0.0022600532975047827,0.07421153783798218,0.0004363323129985824,0.0,0.0,0.0,0.0004363323129985824,0.0,0.0,0.0,0.0004363323129985824,-0.25032657384872437,-0.23493042588233948,9.804997444152832,0.0004,0.0,0.0,0.0,0.0004,0.0,0.0,0.0,0.0004
2025/05/07 10:32:25.299554759,1746606745,297922164,mti/imu_base_body,0.9803458146794363,0.19548980649134762,0.023092952284598754,0.013135248504266268,0.017453292519943295,0.0,0.0,0.0,0.017453292519943295,0.0,0.0,0.0,0.15707963267948966,3.0829782190267e-05,0.0035565535072237253,0.07704013586044312,0.0004363323129985824,0.0,0.0,0.0,0.0004363323129985824,0.0,0.0,0.0,0.0004363323129985824,-0.27376237511634827,-0.24197381734848022,9.813515663146973,0.0004,0.0,0.0,0.0,0.0004,0.0,0.0,0.0,0.0004
2025/05/07 10:32:25.348405472,1746606745,348046606,mti/imu_base_body,0.9804300061708675,0.19507147383534545,0.02306734919686705,0.013115658448149043,0.017453292519943295,0.0,0.0,0.0,0.017453292519943295,0.0,0.0,0.0,0.15707963267948966,0.014488094486296177,-0.00201221089810133,0.07411418855190277,0.0004363323129985824,0.0,0.0,0.0,0.0004363323129985824,0.0,0.0,0.0,0.0004363323129985824,-0.27208632230758667,-0.22561685740947723,9.81414794921875,0.0004,0.0,0.0,0.0,0.0004,0.0,0.0,0.0,0.0004
2025/05/07 10:32:25.398981412,1746606745,397992368,mti/imu_base_body,0.9805118633994763,0.1946628384681635,0.023040468994932888,0.013114947232003342,0.017453292519943295,0.0,0.0,0.0,0.017453292519943295,0.0,0.0,0.0,0.15707963267948966,0.011927553452551365,-0.005748630501329899,0.07565798610448837,0.0004363323129985824,0.0,0.0,0.0,0.0004363323129985824,0.0,0.0,0.0,0.0004363323129985824,-0.2503276467323303,-0.2413240671157837,9.809189796447754,0.0004,0.0,0.0,0.0,0.0004,0.0,0.0,0.0,0.0004
2025/05/07 10:32:25.454340012,1746606745,448073438,mti/imu_base_body,0.9805979533890803,0.19423060854560098,0.023028276441592346,0.01310812714624375,0.017453292519943295,0.0,0.0,0.0,0.017453292519943295,0.0,0.0,0.0,0.15707963267948966,0.004410103894770145,0.002291587647050619,0.07720182090997696,0.0004363323129985824,0.0,0.0,0.0,0.0004363323129985824,0.0,0.0,0.0,0.0004363323129985824,-0.27128687500953674,-0.22770066559314728,9.822768211364746,0.0004,0.0,0.0,0.0,0.0004,0.0,0.0,0.0,0.0004
2025/05/07 10:32:25.499389636,1746606745,498262864,mti/imu_base_body,0.9806865530551556,0.19378508520371152,0.023009579496608305,0.013106664746486599,0.017453292519943295,0.0,0.0,0.0,0.017453292519943295,0.0,0.0,0.0,0.15707963267948966,0.011364857666194439,0.001972367987036705,0.07771288603544235,0.0004363323129985824,0.0,0.0,0.0,0.0004363323129985824,0.0,0.0,0.0,0.0004363323129985824,-0.25050270557403564,-0.2488170713186264,9.81446647644043,0.0004,0.0,0.0,0.0,0.0004,0.0,0.0,0.0,0.0004
2025/05/07 10:32:25.548470688,1746606745,548124459,mti/imu_base_body,0.9807710529745197,0.19335812249094242,0.02300620559376844,0.013095519012501439,0.017453292519943295,0.0,0.0,0.0,0.017453292519943295,0.0,0.0,0.0,0.15707963267948966,0.010195017792284489,0.004500681534409523,0.07993948459625244,0.0004363323129985824,0.0,0.0,0.0,0.0004363323129985824,0.0,0.0,0.0,0.0004363323129985824,-0.26419731974601746,-0.22115756571292877,9.810880661010742,0.0004,0.0,0.0,0.0,0.0004,0.0,0.0,0.0,0.0004
2025/05/07 10:32:25.598089243,1746606745,597794777,mti/imu_base_body,0.9808593439192496,0.1929120507909775,0.022995236673822618,0.013080794938895817,0.017453292519943295,0.0,0.0,0.0,0.017453292519943295,0.0,0.0,0.0,0.15707963267948966,0.012080982327461243,-0.0028064751531928778,0.0809202790260315,0.0004363323129985824,0.0,0.0,0.0,0.0004363323129985824,0.0,0.0,0.0,0.0004363323129985824,-0.24579255282878876,-0.2385144829750061,9.812435150146484,0.0004,0.0,0.0,0.0,0.0004,0.0,0.0,0.0,0.0004
2025/05/07 10:32:25.648478191,1746606745,648075178,mti/imu_base_body,0.9809354778689421,0.1925273385276356,0.0229774758151634,0.013070875359323934,0.017453292519943295,0.0,0.0,0.0,0.017453292519943295,0.0,0.0,0.0,0.15707963267948966,0.01007041521370411,0.005126547999680042,0.07176654785871506,0.0004363323129985824,0.0,0.0,0.0,0.0004363323129985824,0.0,0.0,0.0,0.0004363323129985824,-0.2676584720611572,-0.23440267145633698,9.816764831542969,0.0004,0.0,0.0,0.0,0.0004,0.0,0.0,0.0,0.0004
2025/05/07 10:32:25.699175874,1746606745,698047802,mti/imu_base_body,0.9810250718213126,0.19207408031222772,0.02295763213624894,0.013050028999843378,0.017453292519943295,0.0,0.0,0.0,0.017453292519943295,0.0,0.0,0.0,0.15707963267948966,0.009330245666205883,-0.0012717584613710642,0.07920096069574356,0.0004363323129985824,0.0,0.0,0.0,0.0004363323129985824,0.0,0.0,0.0,0.0004363323129985824,-0.2497609704732895,-0.22945019602775574,9.8052396774292,0.0004,0.0,0.0,0.0,0.0004,0.0,0.0,0.0,0.0004
2025/05/07 10:32:25.748797786,1746606745,748375431,mti/imu_base_body,0.9811117379325425,0.19163269814423173,0.022944447461846696,0.013046801279187756,0.017453292519943295,0.0,0.0,0.0,0.017453292519943295,0.0,0.0,0.0,0.15707963267948966,0.011534101329743862,-0.004268757067620754,0.08497878909111023,0.0004363323129985824,0.0,0.0,0.0,0.0004363323129985824,0.0,0.0,0.0,0.0004363323129985824,-0.26364433765411377,-0.2247481644153595,9.799121856689453,0.0004,0.0,0.0,0.0,0.0004,0.0,0.0,0.0,0.0004
2025/05/07 10:32:25.799824951,1746606745,798910848,mti/imu_base_body,0.981194633531407,0.19121425736173975,0.022910077836005877,0.013012580232777257,0.017453292519943295,0.0,0.0,0.0,0.017453292519943295,0.0,0.0,0.0,0.15707963267948966,0.013458100147545338,0.00067433703225106,0.06841016560792923,0.0004363323129985824,0.0,0.0,0.0,0.0004363323129985824,0.0,0.0,0.0,0.0004363323129985824,-0.2579588294029236,-0.2302551418542862,9.806805610656738,0.0004,0.0,0.0,0.0,0.0004,0.0,0.0,0.0,0.0004
2025/05/07 10:32:25.848016409,1746606745,847754977,mti/imu_base_body,0.9812779235989596,0.190786994533649,0.02289859116517253,0.013023590011271569,0.017453292519943295,0.0,0.0,0.0,0.017453292519943295,0.0,0.0,0.0,0.15707963267948966,0.00875589158385992,-0.0014932596823200583,0.07918035984039307,0.0004363323129985824,0.0,0.0,0.0,0.0004363323129985824,0.0,0.0,0.0,0.0004363323129985824,-0.2606947124004364,-0.22841903567314148,9.834890365600586,0.0004,0.0,0.0,0.0,0.0004,0.0,0.0,0.0,0.0004
2025/05/07 10:32:25.897981540,1746606745,897763720,mti/imu_base_body,0.9813607370186952,0.19037024566711397,0.022845317111723468,0.012975549654289271,0.017453292519943295,0.0,0.0,0.0,0.017453292519943295,0.0,0.0,0.0,0.15707963267948966,0.015962591394782066,-0.004134533926844597,0.07962284237146378,0.0004363323129985824,0.0,0.0,0.0,0.0004363323129985824,0.0,0.0,0.0,0.0004363323129985824,-0.26063573360443115,-0.24344420433044434,9.81930160522461,0.0004,0.0,0.0,0.0,0.0004,0.0,0.0,0.0,0.0004
2025/05/07 10:32:25.948683252,1746606745,948259619,mti/imu_base_body,0.9814511788510175,0.18990390831035986,0.02284737662471958,0.012964818616802678,0.017453292519943295,0.0,0.0,0.0,0.017453292519943295,0.0,0.0,0.0,0.15707963267948966,0.014244507066905499,0.006315493956208229,0.08044721186161041,0.0004363323129985824,0.0,0.0,0.0,0.0004363323129985824,0.0,0.0,0.0,0.0004363323129985824,-0.25314947962760925,-0.23452723026275635,9.80331039428711,0.0004,0.0,0.0,0.0,0.0004,0.0,0.0,0.0,0.0004
2025/05/07 10:32:25.998702723,1746606745,998158779,mti/imu_base_body,0.9815326345348734,0.18949078521482804,0.02282076280995087,0.01288962553647214,0.017453292519943295,0.0,0.0,0.0,0.017453292519943295,0.0,0.0,0.0,0.15707963267948966,0.021752141416072845,-0.0019864419009536505,0.07843109965324402,0.0004363323129985824,0.0,0.0,0.0,0.0004363323129985824,0.0,0.0,0.0,0.0004363323129985824,-0.26027289032936096,-0.23224994540214539,9.816901206970215,0.0004,0.0,0.0,0.0,0.0004,0.0,0.0,0.0,0.0004
2025/05/07 10:32:26.48772629,1746606746,48439036,mti/imu_base_body,0.981609527087805,0.1890965457751893,0.02279045269931028,0.012877421019295662,0.017453292519943295,0.0,0.0,0.0,0.017453292519943295,0.0,0.0,0.0,0.15707963267948966,0.013023591600358486,0.0020006399136036634,0.066900834441185,0.0004363323129985824,0.0,0.0,0.0,0.0004363323129985824,0.0,0.0,0.0,0.0004363323129985824,-0.2540031969547272,-0.24102167785167694,9.815799713134766,0.0004,0.0,0.0,0.0,0.0004,0.0,0.0,0.0,0.0004
2025/05/07 10:32:26.98851909,1746606746,98552217,mti/imu_base_body,0.9816932446494968,0.18866228675619157,0.022785754062355966,0.012873398047034468,0.017453292519943295,0.0,0.0,0.0,0.017453292519943295,0.0,0.0,0.0,0.15707963267948966,0.008665517903864384,0.004479739814996719,0.08264511078596115,0.0004363323129985824,0.0,0.0,0.0,0.0004363323129985824,0.0,0.0,0.0,0.0004363323129985824,-0.257220983505249,-0.23059050738811493,9.80738639831543,0.0004,0.0,0.0,0.0,0.0004,0.0,0.0,0.0,0.0004
2025/05/07 10:32:26.148664025,1746606746,148304826,mti/imu_base_body,0.981780682289509,0.1882124161012515,0.022755253480621768,0.012844327444758094,0.017453292519943295,0.0,0.0,0.0,0.017453292519943295,0.0,0.0,0.0,0.15707963267948966,0.011216653510928154,-0.005260799545794725,0.07268811017274857,0.0004363323129985824,0.0,0.0,0.0,0.0004363323129985824,0.0,0.0,0.0,0.0004363323129985824,-0.25294262170791626,-0.22991147637367249,9.81472396850586,0.0004,0.0,0.0,0.0,0.0004,0.0,0.0,0.0,0.0004
2025/05/07 10:32:26.198909910,1746606746,198187004,mti/imu_base_body,0.9818549827412644,0.18782777564592784,0.022741922788728518,0.012818912197439511,0.017453292519943295,0.0,0.0,0.0,0.017453292519943295,0.0,0.0,0.0,0.15707963267948966,0.013478092849254608,0.00016633844643365592,0.07187387347221375,0.0004363323129985824,0.0,0.0,0.0,0.0004363323129985824,0.0,0.0,0.0,0.0004363323129985824,-0.25385189056396484,-0.22711192071437836,9.809316635131836,0.0004,0.0,0.0,0.0,0.0004,0.0,0.0,0.0,0.0004
2025/05/07 10:32:26.248693735,1746606746,248330816,mti/imu_base_body,0.9819302516061947,0.18743357731458293,0.02273166927333513,0.012841584314285774,0.017453292519943295,0.0,0.0,0.0,0.017453292519943295,0.0,0.0,0.0,0.15707963267948966,0.0071462951600551605,-0.004901270382106304,0.07030067592859268,0.0004363323129985824,0.0,0.0,0.0,0.0004363323129985824,0.0,0.0,0.0,0.0004363323129985824,-0.2736247479915619,-0.2384997010231018,9.807894706726074,0.0004,0.0,0.0,0.0,0.0004,0.0,0.0,0.0,0.0004
2025/05/07 10:32:26.298441868,1746606746,298025128,mti/imu_base_body,0.9820125545071262,0.18701293624390314,0.022645744305480248,0.012832565319259942,0.017453292519943295,0.0,0.0,0.0,0.017453292519943295,0.0,0.0,0.0,0.15707963267948966,0.013692676089704037,-0.008115196600556374,0.07804647833108902,0.0004363323129985824,0.0,0.0,0.0,0.0004363323129985824,0.0,0.0,0.0,0.0004363323129985824,-0.25678780674934387,-0.24402257800102234,9.830697059631348,0.0004,0.0,0.0,0.0,0.0004,0.0,0.0,0.0,0.0004
2025/05/07 10:32:26.349039278,1746606746,348518587,mti/imu_base_body,0.9820913042875867,0.18660728088973316,0.02261352042428496,0.012767985575929985,0.017453292519943295,0.0,0.0,0.0,0.017453292519943295,0.0,0.0,0.0,0.15707963267948966,0.01628832519054413,0.0029941305983811617,0.0752769336104393,0.0004363323129985824,0.0,0.0,0.0,0.0004363323129985824,0.0,0.0,0.0,0.0004363323129985824,-0.26564332842826843,-0.22429458796977997,9.814379692077637,0.0004,0.0,0.0,0.0,0.0004,0.0,0.0,0.0,0.0004
2025/05/07 10:32:26.418323126,1746606746,416972494,mti/imu_base_body,0.9821716743492952,0.18618014952149298,0.022645197906062346,0.012765149503690943,0.017453292519943295,0.0,0.0,0.0,0.017453292519943295,0.0,0.0,0.0,0.15707963267948966,0.00801270455121994,0.004152186680585146,0.07568579912185669,0.0004363323129985824,0.0,0.0,0.0,0.0004363323129985824,0.0,0.0,0.0,0.0004363323129985824,-0.248008593916893,-0.2281462550163269,9.814217567443848,0.0004,0.0,0.0,0.0,0.0004,0.0,0.0,0.0,0.0004
2025/05/07 10:32:26.448435977,1746606746,448123411,mti/imu_base_body,0.9822501614171377,0.18576796906018583,0.0226201607069621,0.012775382454221836,0.017453292519943295,0.0,0.0,0.0,0.017453292519943295,0.0,0.0,0.0,0.15707963267948966,0.010432012379169464,-0.000197896413737908,0.0695277526974678,0.0004363323129985824,0.0,0.0,0.0,0.0004363323129985824,0.0,0.0,0.0,0.0004363323129985824,-0.2595749795436859,-0.2147950679063797,9.818318367004395,0.0004,0.0,0.0,0.0,0.0004,0.0,0.0,0.0,0.0004
2025/05/07 10:32:26.502237860,1746606746,501834952,mti/imu_base_body,0.9823346093546516,0.1853334383130697,0.02252676593060024,0.01275839816777543,0.017453292519943295,0.0,0.0,0.0,0.017453292519943295,0.0,0.0,0.0,0.15707963267948966,0.008210879750549793,-0.013366376981139183,0.089203380048275,0.0004363323129985824,0.0,0.0,0.0,0.0004363323129985824,0.0,0.0,0.0,0.0004363323129985824,-0.2596796452999115,-0.2243986427783966,9.82507038116455,0.0004,0.0,0.0,0.0,0.0004,0.0,0.0,0.0,0.0004
2025/05/07 10:32:26.548225469,1746606746,547946272,mti/imu_base_body,0.9824162902444592,0.1849020072327091,0.022509458967348708,0.012759492177465543,0.017453292519943295,0.0,0.0,0.0,0.017453292519943295,0.0,0.0,0.0,0.15707963267948966,0.009122641757130623,-0.004357931669801474,0.07088305801153183,0.0004363323129985824,0.0,0.0,0.0,0.0004363323129985824,0.0,0.0,0.0,0.0004363323129985824,-0.26876625418663025,-0.2348308265209198,9.835140228271484,0.0004,0.0,0.0,0.0,0.0004,0.0,0.0,0.0,0.0004
2025/05/07 10:32:26.600567951,1746606746,599237572,mti/imu_base_body,0.9824958153947367,0.18448699355199016,0.022447890048304234,0.012752026284418133,0.017453292519943295,0.0,0.0,0.0,0.017453292519943295,0.0,0.0,0.0,0.15707963267948966,0.01527983509004116,-0.0056963213719427586,0.07624611258506775,0.0004363323129985824,0.0,0.0,0.0,0.0004363323129985824,0.0,0.0,0.0,0.0004363323129985824,-0.25942176580429077,-0.23525896668434143,9.816652297973633,0.0004,0.0,0.0,0.0,0.0004,0.0,0.0,0.0,0.0004
2025/05/07 10:32:26.649397654,1746606746,648118016,mti/imu_base_body,0.9825754650511036,0.18406909730333765,0.022397860086844055,0.012742007733161472,0.017453292519943295,0.0,0.0,0.0,0.017453292519943295,0.0,0.0,0.0,0.15707963267948966,0.00921320915222168,-0.008662158623337746,0.07709508389234543,0.0004363323129985824,0.0,0.0,0.0,0.0004363323129985824,0.0,0.0,0.0,0.0004363323129985824,-0.24888698756694794,-0.23594889044761658,9.820357322692871,0.0004,0.0,0.0,0.0,0.0004,0.0,0.0,0.0,0.0004
2025/05/07 10:32:26.698602365,1746606746,698073573,mti/imu_base_body,0.9826541562931219,0.18365448703766662,0.022372609196704314,0.012700585361150644,0.017453292519943295,0.0,0.0,0.0,0.017453292519943295,0.0,0.0,0.0,0.15707963267948966,0.01780502311885357,0.004261218011379242,0.07414182275533676,0.0004363323129985824,0.0,0.0,0.0,0.0004363323129985824,0.0,0.0,0.0,0.0004363323129985824,-0.2705319821834564,-0.22394266724586487,9.812935829162598,0.0004,0.0,0.0,0.0,0.0004,0.0,0.0,0.0,0.0004
2025/05/07 10:32:26.749771580,1746606746,748009447,mti/imu_base_body,0.9827371510374866,0.1832066631285828,0.02239944599296974,0.012699424208291916,0.017453292519943295,0.0,0.0,0.0,0.017453292519943295,0.0,0.0,0.0,0.15707963267948966,0.007415265776216984,0.009207419119775295,0.08175990730524063,0.0004363323129985824,0.0,0.0,0.0,0.0004363323129985824,0.0,0.0,0.0,0.0004363323129985824,-0.25572943687438965,-0.2343248575925827,9.814218521118164,0.0004,0.0,0.0,0.0,0.0004,0.0,0.0,0.0,0.0004
2025/05/07 10:32:26.798425280,1746606746,798129647,mti/imu_base_body,0.9828224861171064,0.18275152967113661,0.022388078381947535,0.012673323629329741,0.017453292519943295,0.0,0.0,0.0,0.017453292519943295,0.0,0.0,0.0,0.15707963267948966,0.014456204138696194,0.0025014039129018784,0.08325307816267014,0.0004363323129985824,0.0,0.0,0.0,0.0004363323129985824,0.0,0.0,0.0,0.0004363323129985824,-0.2688606381416321,-0.2260686308145523,9.817615509033203,0.0004,0.0,0.0,0.0,0.0004,0.0,0.0,0.0,0.0004
2025/05/07 10:32:26.848844786,1746606746,848531868,mti/imu_base_body,0.982900131073532,0.1823386280337388,0.022347981611643274,0.012669837421724636,0.017453292519943295,0.0,0.0,0.0,0.017453292519943295,0.0,0.0,0.0,0.15707963267948966,0.00959740299731493,-0.008701679296791553,0.07380804419517517,0.0004363323129985824,0.0,0.0,0.0,0.0004363323129985824,0.0,0.0,0.0,0.0004363323129985824,-0.2635422646999359,-0.22413164377212524,9.808011054992676,0.0004,0.0,0.0,0.0,0.0004,0.0,0.0,0.0,0.0004
2025/05/07 10:32:26.898671887,1746606746,898103804,mti/imu_base_body,0.9829869560414702,0.18187618091703073,0.022309438023091314,0.01264863796832768,0.017453292519943295,0.0,0.0,0.0,0.017453292519943295,0.0,0.0,0.0,0.15707963267948966,0.010717579163610935,-0.00321517838165164,0.08506687730550766,0.0004363323129985824,0.0,0.0,0.0,0.0004363323129985824,0.0,0.0,0.0,0.0004363323129985824,-0.2514515519142151,-0.24549849331378937,9.819273948669434,0.0004,0.0,0.0,0.0,0.0004,0.0,0.0,0.0,0.0004
2025/05/07 10:32:26.948341539,1746606746,947998432,mti/imu_base_body,0.983063465429909,0.18146831738640634,0.02227845018290406,0.012615204292140674,0.017453292519943295,0.0,0.0,0.0,0.017453292519943295,0.0,0.0,0.0,0.15707963267948966,0.01805770955979824,-0.003746640868484974,0.07397949695587158,0.0004363323129985824,0.0,0.0,0.0,0.0004363323129985824,0.0,0.0,0.0,0.0004363323129985824,-0.26809167861938477,-0.22958193719387054,9.830347061157227,0.0004,0.0,0.0,0.0,0.0004,0.0,0.0,0.0,0.0004
2025/05/07 10:32:27.113611,1746606746,997965652,mti/imu_base_body,0.9831395597322505,0.18105957133011663,0.02224581109953517,0.012615926749737242,0.017453292519943295,0.0,0.0,0.0,0.017453292519943295,0.0,0.0,0.0,0.15707963267948966,0.009955444373190403,0.0010669669136404991,0.07046947628259659,0.0004363323129985824,0.0,0.0,0.0,0.0004363323129985824,0.0,0.0,0.0,0.0004363323129985824,-0.2633554935455322,-0.22611941397190094,9.82168960571289,0.0004,0.0,0.0,0.0,0.0004,0.0,0.0,0.0,0.0004
2025/05/07 10:32:27.49105642,1746606747,48016417,mti/imu_base_body,0.983213226924142,0.18065901080477614,0.02224153978561927,0.01262482175794936,0.017453292519943295,0.0,0.0,0.0,0.017453292519943295,0.0,0.0,0.0,0.15707963267948966,0.007368364837020636,-0.0003679802466649562,0.073428213596344,0.0004363323129985824,0.0,0.0,0.0,0.0004363323129985824,0.0,0.0,0.0,0.0004363323129985824,-0.2578469216823578,-0.23969826102256775,9.808223724365234,0.0004,0.0,0.0,0.0,0.0004,0.0,0.0,0.0,0.0004
2025/05/07 10:32:27.102617316,1746606747,97976459,mti/imu_base_body,0.9832966338019367,0.18021035519508577,0.022221612654106306,0.01257607909055647,0.017453292519943295,0.0,0.0,0.0,0.017453292519943295,0.0,0.0,0.0,0.15707963267948966,0.009568280540406704,0.004685660824179649,0.0850602462887764,0.0004363323129985824,0.0,0.0,0.0,0.0004363323129985824,0.0,0.0,0.0,0.0004363323129985824,-0.2680865228176117,-0.22790729999542236,9.793606758117676,0.0004,0.0,0.0,0.0,0.0004,0.0,0.0,0.0,0.0004
2025/05/07 10:32:27.148464904,1746606747,148084694,mti/imu_base_body,0.9833849675501484,0.1797295303977492,0.022211698065341373,0.012567496506954219,0.017453292519943295,0.0,0.0,0.0,0.017453292519943295,0.0,0.0,0.0,0.15707963267948966,0.014026508666574955,0.002848254516720772,0.08240905404090881,0.0004363323129985824,0.0,0.0,0.0,0.0004363323129985824,0.0,0.0,0.0,0.0004363323129985824,-0.25657740235328674,-0.23243394494056702,9.82828140258789,0.0004,0.0,0.0,0.0,0.0004,0.0,0.0,0.0,0.0004
2025/05/07 10:32:27.203754211,1746606747,202790125,mti/imu_base_body,0.9834601089054749,0.17932163860957867,0.022216133285845048,0.01250630000570171,0.017453292519943295,0.0,0.0,0.0,0.017453292519943295,0.0,0.0,0.0,0.15707963267948966,0.02100801095366478,0.002197868889197707,0.07215899229049683,0.0004363323129985824,0.0,0.0,0.0,0.0004363323129985824,0.0,0.0,0.0,0.0004363323129985824,-0.2562721371650696,-0.24000303447246552,9.809561729431152,0.0004,0.0,0.0,0.0,0.0004,0.0,0.0,0.0,0.0004
2025/05/07 10:32:27.248324020,1746606747,247996070,mti/imu_base_body,0.9835297868996802,0.1789419128474361,0.02221488523716247,0.012467918088829275,0.017453292519943295,0.0,0.0,0.0,0.017453292519943295,0.0,0.0,0.0,0.15707963267948966,0.01797865331172943,0.00884154625236988,0.073172427713871,0.0004363323129985824,0.0,0.0,0.0,0.0004363323129985824,0.0,0.0,0.0,0.0004363323129985824,-0.26390472054481506,-0.23189787566661835,9.793353080749512,0.0004,0.0,0.0,0.0,0.0004,0.0,0.0,0.0,0.0004
2025/05/07 10:32:27.298267238,1746606747,297942281,mti/imu_base_body,0.9836104149700586,0.1785025904296325,0.022199365786894812,0.012432414528139785,0.017453292519943295,0.0,0.0,0.0,0.017453292519943295,0.0,0.0,0.0,0.15707963267948966,0.011068372055888176,0.0014363444643095136,0.08230569958686829,0.0004363323129985824,0.0,0.0,0.0,0.0004363323129985824,0.0,0.0,0.0,0.0004363323129985824,-0.24788445234298706,-0.25171369314193726,9.822163581848145,0.0004,0.0,0.0,0.0,0.0004,0.0,0.0,0.0,0.0004
2025/05/07 10:32:27.353145623,1746606747,348162400,mti/imu_base_body,0.9836875500065747,0.17807592749020357,0.02220424741767393,0.012439429536002408,0.017453292519943295,0.0,0.0,0.0,0.017453292519943295,0.0,0.0,0.0,0.15707963267948966,0.008535685017704964,0.005384696181863546,0.0754077211022377,0.0004363323129985824,0.0,0.0,0.0,0.0004363323129985824,0.0,0.0,0.0,0.0004363323129985824,-0.2455625981092453,-0.24882608652114868,9.811453819274902,0.0004,0.0,0.0,0.0,0.0004,0.0,0.0,0.0,0.0004
2025/05/07 10:32:27.399029490,1746606747,398032065,mti/imu_base_body,0.9837675955455532,0.17763052064218893,0.022226453214964234,0.01243788038167226,0.017453292519943295,0.0,0.0,0.0,0.017453292519943295,0.0,0.0,0.0,0.15707963267948966,0.0093574533239007,0.00602911040186882,0.0790601447224617,0.0004363323129985824,0.0,0.0,0.0,0.0004363323129985824,0.0,0.0,0.0,0.0004363323129985824,-0.2584705054759979,-0.23015426099300385,9.825871467590332,0.0004,0.0,0.0,0.0,0.0004,0.0,0.0,0.0,0.0004
2025/05/07 10:32:27.448465724,1746606747,448148322,mti/imu_base_body,0.9838501062286318,0.1771764847861484,0.022214499685168816,0.012408775784550935,0.017453292519943295,0.0,0.0,0.0,0.017453292519943295,0.0,0.0,0.0,0.15707963267948966,0.009543049149215221,0.001270606298930943,0.07985749840736389,0.0004363323129985824,0.0,0.0,0.0,0.0004363323129985824,0.0,0.0,0.0,0.0004363323129985824,-0.24475687742233276,-0.2360631227493286,9.81326961517334,0.0004,0.0,0.0,0.0,0.0004,0.0,0.0,0.0,0.0004
2025/05/07 10:32:27.518578164,1746606747,498067649,mti/imu_base_body,0.9839194243486226,0.17678946721790234,0.02224588616352155,0.012376236062915734,0.017453292519943295,0.0,0.0,0.0,0.017453292519943295,0.0,0.0,0.0,0.15707963267948966,0.012642295099794865,0.00740862637758255,0.06879190355539322,0.0004363323129985824,0.0,0.0,0.0,0.0004363323129985824,0.0,0.0,0.0,0.0004363323129985824,-0.25681719183921814,-0.21695077419281006,9.819759368896484,0.0004,0.0,0.0,0.0,0.0004,0.0,0.0,0.0,0.0004
2025/05/07 10:32:27.548500581,1746606747,548051197,mti/imu_base_body,0.9839945329533536,0.17637564837174413,0.022216796275080462,0.01236138109718598,0.017453292519943295,0.0,0.0,0.0,0.017453292519943295,0.0,0.0,0.0,0.15707963267948966,0.010770329274237156,-0.00273145642131567,0.07581587135791779,0.0004363323129985824,0.0,0.0,0.0,0.0004363323129985824,0.0,0.0,0.0,0.0004363323129985824,-0.2542212903499603,-0.23030820488929749,9.804401397705078,0.0004,0.0,0.0,0.0,0.0004,0.0,0.0,0.0,0.0004
2025/05/07 10:32:27.599288019,1746606747,598141104,mti/imu_base_body,0.984071676703373,0.17594783648087775,0.022183312996529425,0.012377179501340388,0.017453292519943295,0.0,0.0,0.0,0.017453292519943295,0.0,0.0,0.0,0.15707963267948966,0.005803655367344618,0.0014381983783096075,0.08065622299909592,0.0004363323129985824,0.0,0.0,0.0,0.0004363323129985824,0.0,0.0,0.0,0.0004363323129985824,-0.25613442063331604,-0.23438715934753418,9.808953285217285,0.0004,0.0,0.0,0.0,0.0004,0.0,0.0,0.0,0.0004
2025/05/07 10:32:27.649251334,1746606747,648148397,mti/imu_base_body,0.9841510988922632,0.17550546354232222,0.022169744473224815,0.012367265095297734,0.017453292519943295,0.0,0.0,0.0,0.017453292519943295,0.0,0.0,0.0,0.15707963267948966,0.013471518643200397,-0.004223335068672895,0.08007845282554626,0.0004363323129985824,0.0,0.0,0.0,0.0004363323129985824,0.0,0.0,0.0,0.0004363323129985824,-0.2419782280921936,-0.2352457493543625,9.820952415466309,0.0004,0.0,0.0,0.0,0.0004,0.0,0.0,0.0,0.0004
2025/05/07 10:32:27.698783389,1746606747,698077018,mti/imu_base_body,0.9842265901090954,0.17508797573370632,0.022140967157008088,0.012328732661870009,0.017453292519943295,0.0,0.0,0.0,0.017453292519943295,0.0,0.0,0.0,0.15707963267948966,0.015341587364673615,0.002308222698047757,0.07938815653324127,0.0004363323129985824,0.0,0.0,0.0,0.0004363323129985824,0.0,0.0,0.0,0.0004363323129985824,-0.2693779170513153,-0.23617511987686157,9.818455696105957,0.0004,0.0,0.0,0.0,0.0004,0.0,0.0,0.0,0.0004
2025/05/07 10:32:27.751640485,1746606747,748099208,mti/imu_base_body,0.984308479241446,0.174630070803309,0.022118119365647622,0.012326591594987843,0.017453292519943295,0.0,0.0,0.0,0.017453292519943295,0.0,0.0,0.0,0.15707963267948966,0.01134501863270998,0.0005552273942157626,0.07776013016700745,0.0004363323129985824,0.0,0.0,0.0,0.0004363323129985824,0.0,0.0,0.0,0.0004363323129985824,-0.2581741213798523,-0.23042067885398865,9.823723793029785,0.0004,0.0,0.0,0.0,0.0004,0.0,0.0,0.0,0.0004
2025/05/07 10:32:27.800849116,1746606747,798161707,mti/imu_base_body,0.9843799723577304,0.17423009072601442,0.022119450872696206,0.012274990822357659,0.017453292519943295,0.0,0.0,0.0,0.017453292519943295,0.0,0.0,0.0,0.15707963267948966,0.013783649541437626,0.0016019921749830246,0.06979947537183762,0.0004363323129985824,0.0,0.0,0.0,0.0004363323129985824,0.0,0.0,0.0,0.0004363323129985824,-0.26385998725891113,-0.23414786159992218,9.818330764770508,0.0004,0.0,0.0,0.0,0.0004,0.0,0.0,0.0,0.0004
2025/05/07 10:32:27.849206300,1746606747,847979981,mti/imu_base_body,0.984451166576461,0.17383136935075355,0.022080568703831523,0.012288374245677143,0.017453292519943295,0.0,0.0,0.0,0.017453292519943295,0.0,0.0,0.0,0.15707963267948966,0.007557387463748455,-0.0005226129433140159,0.07472404092550278,0.0004363323129985824,0.0,0.0,0.0,0.0004363323129985824,0.0,0.0,0.0,0.0004363323129985824,-0.24866175651550293,-0.2294367402791977,9.818312644958496,0.0004,0.0,0.0,0.0,0.0004,0.0,0.0,0.0,0.0004
2025/05/07 10:32:27.902308942,1746606747,898013299,mti/imu_base_body,0.9845263388208261,0.17341006277969195,0.022054775720603572,0.012264793627166728,0.017453292519943295,0.0,0.0,0.0,0.017453292519943295,0.0,0.0,0.0,0.15707963267948966,0.013346608728170395,-0.001532711903564632,0.07865944504737854,0.0004363323129985824,0.0,0.0,0.0,0.0004363323129985824,0.0,0.0,0.0,0.0004363323129985824,-0.2626881003379822,-0.2362276166677475,9.799132347106934,0.0004,0.0,0.0,0.0,0.0004,0.0,0.0,0.0,0.0004
2025/05/07 10:32:27.948638481,1746606747,948238222,mti/imu_base_body,0.9846030287831001,0.1729697627658099,0.02208232327294536,0.01227631372822914,0.017453292519943295,0.0,0.0,0.0,0.017453292519943295,0.0,0.0,0.0,0.15707963267948966,0.008504603989422321,0.006432441994547844,0.07995568215847015,0.0004363323129985824,0.0,0.0,0.0,0.0004363323129985824,0.0,0.0,0.0,0.0004363323129985824,-0.27052104473114014,-0.23272913694381714,9.822510719299316,0.0004,0.0,0.0,0.0,0.0004,0.0,0.0,0.0,0.0004
2025/05/07 10:32:28.22148403,1746606747,998286075,mti/imu_base_body,0.9846746451936226,0.17256567183682187,0.0220639886234913,0.012252037477175876,0.017453292519943295,0.0,0.0,0.0,0.017453292519943295,0.0,0.0,0.0,0.15707963267948966,0.011172073893249035,0.002896119374781847,0.06836015731096268,0.0004363323129985824,0.0,0.0,0.0,0.0004363323129985824,0.0,0.0,0.0,0.0004363323129985824,-0.2589437663555145,-0.23297175765037537,9.803175926208496,0.0004,0.0,0.0,0.0,0.0004,0.0,0.0,0.0,0.0004
2025/05/07 10:32:28.53746380,1746606748,48064025,mti/imu_base_body,0.984750630333056,0.1721344332271073,0.022033193230867946,0.012266676497017754,0.017453292519943295,0.0,0.0,0.0,0.017453292519943295,0.0,0.0,0.0,0.15707963267948966,0.002736408496275544,-0.002161705167964101,0.07984010875225067,0.0004363323129985824,0.0,0.0,0.0,0.0004363323129985824,0.0,0.0,0.0,0.0004363323129985824,-0.25582364201545715,-0.24321608245372772,9.820574760437012,0.0004,0.0,0.0,0.0,0.0004,0.0,0.0,0.0,0.0004
2025/05/07 10:32:28.98444352,1746606748,98025378,mti/imu_base_body,0.9848205726073092,0.17173692051643058,0.02201603677603782,0.012254143202239482,0.017453292519943295,0.0,0.0,0.0,0.017453292519943295,0.0,0.0,0.0,0.15707963267948966,0.019786013290286064,-0.0017580611165612936,0.0741252675652504,0.0004363323129985824,0.0,0.0,0.0,0.0004363323129985824,0.0,0.0,0.0,0.0004363323129985824,-0.24881979823112488,-0.23442381620407104,9.814212799072266,0.0004,0.0,0.0,0.0,0.0004,0.0,0.0,0.0,0.0004
2025/05/07 10:32:28.148512382,1746606748,148139966,mti/imu_base_body,0.9848974283364784,0.1713042350930601,0.021981817753762442,0.012194850700740343,0.017453292519943295,0.0,0.0,0.0,0.017453292519943295,0.0,0.0,0.0,0.15707963267948966,0.012405780144035816,-0.0010703995358198881,0.07610654830932617,0.0004363323129985824,0.0,0.0,0.0,0.0004363323129985824,0.0,0.0,0.0,0.0004363323129985824,-0.2676840126514435,-0.22908321022987366,9.814714431762695,0.0004,0.0,0.0,0.0,0.0004,0.0,0.0,0.0,0.0004
2025/05/07 10:32:28.199223322,1746606748,198652989,mti/imu_base_body,0.9849696969801663,0.17089267542190456,0.02197260485121391,0.012148833441739018,0.017453292519943295,0.0,0.0,0.0,0.017453292519943295,0.0,0.0,0.0,0.15707963267948966,0.018668407574295998,0.005814998410642147,0.07782232016324997,0.0004363323129985824,0.0,0.0,0.0,0.0004363323129985824,0.0,0.0,0.0,0.0004363323129985824,-0.2573932707309723,-0.23255276679992676,9.808218955993652,0.0004,0.0,0.0,0.0,0.0004,0.0,0.0,0.0,0.0004
2025/05/07 10:32:28.248548041,1746606748,248098142,mti/imu_base_body,0.9850479319018169,0.1704408756650605,0.021995672168289817,0.01211074582119848,0.017453292519943295,0.0,0.0,0.0,0.017453292519943295,0.0,0.0,0.0,0.15707963267948966,0.016925862058997154,0.007960357703268528,0.0768260508775711,0.0004363323129985824,0.0,0.0,0.0,0.0004363323129985824,0.0,0.0,0.0,0.0004363323129985824,-0.2559739649295807,-0.23870037496089935,9.809649467468262,0.0004,0.0,0.0,0.0,0.0004,0.0,0.0,0.0,0.0004
2025/05/07 10:32:28.299113862,1746606748,298282416,mti/imu_base_body,0.9851184592766142,0.17002850682187126,0.022033455687322442,0.012101854852443507,0.017453292519943295,0.0,0.0,0.0,0.017453292519943295,0.0,0.0,0.0,0.15707963267948966,0.007981378585100174,0.012136991135776043,0.07724304497241974,0.0004363323129985824,0.0,0.0,0.0,0.0004363323129985824,0.0,0.0,0.0,0.0004363323129985824,-0.262298583984375,-0.2422468513250351,9.814802169799805,0.0004,0.0,0.0,0.0,0.0004,0.0,0.0,0.0,0.0004
2025/05/07 10:32:28.348687148,1746606748,348140670,mti/imu_base_body,0.9851894673565386,0.16962051156531166,0.022034553695597568,0.012044663112667855,0.017453292519943295,0.0,0.0,0.0,0.017453292519943295,0.0,0.0,0.0,0.15707963267948966,0.013684353791177273,0.0015337334480136633,0.0699344128370285,0.0004363323129985824,0.0,0.0,0.0,0.0004363323129985824,0.0,0.0,0.0,0.0004363323129985824,-0.25224947929382324,-0.23230107128620148,9.792015075683594,0.0004,0.0,0.0,0.0,0.0004,0.0,0.0,0.0,0.0004
2025/05/07 10:32:28.398652971,1746606748,398182405,mti/imu_base_body,0.9852649864980149,0.16918258585275503,0.022033195705302183,0.012029019588206943,0.017453292519943295,0.0,0.0,0.0,0.017453292519943295,0.0,0.0,0.0,0.15707963267948966,0.014124631881713867,0.002815624000504613,0.08169564604759216,0.0004363323129985824,0.0,0.0,0.0,0.0004363323129985824,0.0,0.0,0.0,0.0004363323129985824,-0.26624590158462524,-0.23177705705165863,9.813630104064941,0.0004,0.0,0.0,0.0,0.0004,0.0,0.0,0.0,0.0004
2025/05/07 10:32:28.469940673,1746606748,448054374,mti/imu_base_body,0.9853474691502804,0.16870836664711092,0.022005102179580755,0.0119844708046415,0.017453292519943295,0.0,0.0,0.0,0.017453292519943295,0.0,0.0,0.0,0.15707963267948966,0.022696522995829582,0.0005292348214425147,0.08709008991718292,0.0004363323129985824,0.0,0.0,0.0,0.0004363323129985824,0.0,0.0,0.0,0.0004363323129985824,-0.26555055379867554,-0.23047584295272827,9.8048677444458,0.0004,0.0,0.0,0.0,0.0004,0.0,0.0,0.0,0.0004
2025/05/07 10:32:28.499832858,1746606748,498185361,mti/imu_base_body,0.9854191337400253,0.16829468325683766,0.021977690590472908,0.011958744200298119,0.017453292519943295,0.0,0.0,0.0,0.017453292519943295,0.0,0.0,0.0,0.15707963267948966,0.008511924184858799,0.001209199894219637,0.07166747003793716,0.0004363323129985824,0.0,0.0,0.0,0.0004363323129985824,0.0,0.0,0.0,0.0004363323129985824,-0.25657662749290466,-0.23404963314533234,9.816615104675293,0.0004,0.0,0.0,0.0,0.0004,0.0,0.0,0.0,0.0004
2025/05/07 10:32:28.549102180,1746606748,548038803,mti/imu_base_body,0.9854872917102045,0.1678945482259716,0.021986861628428847,0.011949747671607794,0.017453292519943295,0.0,0.0,0.0,0.017453292519943295,0.0,0.0,0.0,0.15707963267948966,0.010303085669875145,0.00273417797870934,0.0754242017865181,0.0004363323129985824,0.0,0.0,0.0,0.0004363323129985824,0.0,0.0,0.0,0.0004363323129985824,-0.25774016976356506,-0.23086600005626678,9.82321548461914,0.0004,0.0,0.0,0.0,0.0004,0.0,0.0,0.0,0.0004
2025/05/07 10:32:28.599581085,1746606748,598376382,mti/imu_base_body,0.985553878836086,0.16750052653336622,0.02200196277621801,0.011959897833362671,0.017453292519943295,0.0,0.0,0.0,0.017453292519943295,0.0,0.0,0.0,0.15707963267948966,0.005126692354679108,0.010297064669430256,0.07378607988357544,0.0004363323129985824,0.0,0.0,0.0,0.0004363323129985824,0.0,0.0,0.0,0.0004363323129985824,-0.26574331521987915,-0.23290108144283295,9.803642272949219,0.0004,0.0,0.0,0.0,0.0004,0.0,0.0,0.0,0.0004
2025/05/07 10:32:28.677243681,1746606748,648112239,mti/imu_base_body,0.9856253447991548,0.1670781352101663,0.022020282730352156,0.011945022926566254,0.017453292519943295,0.0,0.0,0.0,0.017453292519943295,0.0,0.0,0.0,0.15707963267948966,0.01048269309103489,0.008284280076622963,0.07026677578687668,0.0004363323129985824,0.0,0.0,0.0,0.0004363323129985824,0.0,0.0,0.0,0.0004363323129985824,-0.2665168344974518,-0.22314025461673737,9.823701858520508,0.0004,0.0,0.0,0.0,0.0004,0.0,0.0,0.0,0.0004
2025/05/07 10:32:28.729911066,1746606748,698099759,mti/imu_base_body,0.9856920203526872,0.16668332036232003,0.022035011664390525,0.011931889497475954,0.017453292519943295,0.0,0.0,0.0,0.017453292519943295,0.0,0.0,0.0,0.15707963267948966,0.010212290100753307,0.00038349919486790895,0.06936130672693253,0.0004363323129985824,0.0,0.0,0.0,0.0004363323129985824,0.0,0.0,0.0,0.0004363323129985824,-0.2650214731693268,-0.23889687657356262,9.81998348236084,0.0004,0.0,0.0,0.0,0.0004,0.0,0.0,0.0,0.0004
2025/05/07 10:32:28.749456970,1746606748,748142920,mti/imu_base_body,0.9857531072016388,0.16632517075621522,0.022024976720972294,0.011901664407587092,0.017453292519943295,0.0,0.0,0.0,0.017453292519943295,0.0,0.0,0.0,0.15707963267948966,0.012819039635360241,0.0049131810665130615,0.06556747853755951,0.0004363323129985824,0.0,0.0,0.0,0.0004363323129985824,0.0,0.0,0.0,0.0004363323129985824,-0.2605680227279663,-0.21802084147930145,9.821538925170898,0.0004,0.0,0.0,0.0,0.0004,0.0,0.0,0.0,0.0004
2025/05/07 10:32:28.892963090,1746606748,797974718,mti/imu_base_body,0.9858229732257531,0.16591101089958338,0.02204052831908537,0.011866635328930984,0.017453292519943295,0.0,0.0,0.0,0.017453292519943295,0.0,0.0,0.0,0.15707963267948966,0.0186329148709774,0.007064236793667078,0.0745987594127655,0.0004363323129985824,0.0,0.0,0.0,0.0004363323129985824,0.0,0.0,0.0,0.0004363323129985824,-0.2735171914100647,-0.21595479547977448,9.828753471374512,0.0004,0.0,0.0,0.0,0.0004,0.0,0.0,0.0,0.0004
2025/05/07 10:32:28.893153367,1746606748,847981432,mti/imu_base_body,0.985899689134294,0.16545168890948359,0.022087780071794252,0.011818272860359802,0.017453292519943295,0.0,0.0,0.0,0.017453292519943295,0.0,0.0,0.0,0.15707963267948966,0.008901413530111313,0.016985345631837845,0.08949344605207443,0.0004363323129985824,0.0,0.0,0.0,0.0004363323129985824,0.0,0.0,0.0,0.0004363323129985824,-0.2714223861694336,-0.2198958694934845,9.813004493713379,0.0004,0.0,0.0,0.0,0.0004,0.0,0.0,0.0,0.0004
2025/05/07 10:32:28.900848054,1746606748,899218436,mti/imu_base_body,0.9859687695762653,0.1650438457655788,0.02206631334678791,0.011797974845478402,0.017453292519943295,0.0,0.0,0.0,0.017453292519943295,0.0,0.0,0.0,0.15707963267948966,0.017154058441519737,0.0014407411217689514,0.07334265857934952,0.0004363323129985824,0.0,0.0,0.0,0.0004363323129985824,0.0,0.0,0.0,0.0004363323129985824,-0.2543254792690277,-0.2286623865365982,9.81566047668457,0.0004,0.0,0.0,0.0,0.0004,0.0,0.0,0.0,0.0004
2025/05/07 10:32:28.948533411,1746606748,948064409,mti/imu_base_body,0.9860393908525124,0.1646266676816036,0.02203742722295897,0.011778445425856375,0.017453292519943295,0.0,0.0,0.0,0.017453292519943295,0.0,0.0,0.0,0.15707963267948966,0.013755138032138348,-0.005493484437465668,0.07096411287784576,0.0004363323129985824,0.0,0.0,0.0,0.0004363323129985824,0.0,0.0,0.0,0.0004363323129985824,-0.248582124710083,-0.2276795208454132,9.791881561279297,0.0004,0.0,0.0,0.0,0.0004,0.0,0.0,0.0,0.0004
2025/05/07 10:32:29.8955728,1746606748,997975482,mti/imu_base_body,0.9861066808638517,0.1642254799156011,0.022031509852436612,0.01175662688828036,0.017453292519943295,0.0,0.0,0.0,0.017453292519943295,0.0,0.0,0.0,0.15707963267948966,0.00996030867099762,0.004603323992341757,0.07298204302787781,0.0004363323129985824,0.0,0.0,0.0,0.0004363323129985824,0.0,0.0,0.0,0.0004363323129985824,-0.25815874338150024,-0.22714439034461975,9.818052291870117,0.0004,0.0,0.0,0.0,0.0004,0.0,0.0,0.0,0.0004
2025/05/07 10:32:29.49021632,1746606749,48074132,mti/imu_base_body,0.9861736273569357,0.16382485146107678,0.022025131786880984,0.011742585711429613,0.017453292519943295,0.0,0.0,0.0,0.017453292519943295,0.0,0.0,0.0,0.15707963267948966,0.00800939742475748,0.0033626060467213392,0.0712786614894867,0.0004363323129985824,0.0,0.0,0.0,0.0004363323129985824,0.0,0.0,0.0,0.0004363323129985824,-0.2596278190612793,-0.22095206379890442,9.80090045928955,0.0004,0.0,0.0,0.0,0.0004,0.0,0.0,0.0,0.0004
2025/05/07 10:32:29.123966192,1746606749,98103387,mti/imu_base_body,0.9862368787736144,0.16344204809821322,0.022041393018199514,0.011734259847017498,0.017453292519943295,0.0,0.0,0.0,0.017453292519943295,0.0,0.0,0.0,0.15707963267948966,0.010478991083800793,0.007391945458948612,0.06529559940099716,0.0004363323129985824,0.0,0.0,0.0,0.0004363323129985824,0.0,0.0,0.0,0.0004363323129985824,-0.2687647342681885,-0.22376738488674164,9.820221900939941,0.0004,0.0,0.0,0.0,0.0004,0.0,0.0,0.0,0.0004
2025/05/07 10:32:29.150685301,1746606749,148254175,mti/imu_base_body,0.9863042778857188,0.16303199829273807,0.022049318238689074,0.011758678591414896,0.017453292519943295,0.0,0.0,0.0,0.017453292519943295,0.0,0.0,0.0,0.15707963267948966,0.00679673021659255,0.0006018185522407293,0.07722532749176025,0.0004363323129985824,0.0,0.0,0.0,0.0004363323129985824,0.0,0.0,0.0,0.0004363323129985824,-0.24970421195030212,-0.23975756764411926,9.80579662322998,0.0004,0.0,0.0,0.0,0.0004,0.0,0.0,0.0,0.0004
2025/05/07 10:32:29.198983276,1746606749,198094757,mti/imu_base_body,0.9863717324956184,0.16262548377011232,0.022041521697940908,0.01174430429477267,0.017453292519943295,0.0,0.0,0.0,0.017453292519943295,0.0,0.0,0.0,0.15707963267948966,0.004420881625264883,0.008065355941653252,0.07195871323347092,0.0004363323129985824,0.0,0.0,0.0,0.0004363323129985824,0.0,0.0,0.0,0.0004363323129985824,-0.24286521971225739,-0.24252831935882568,9.812265396118164,0.0004,0.0,0.0,0.0,0.0004,0.0,0.0,0.0,0.0004
2025/05/07 10:32:29.249045612,1746606749,248183022,mti/imu_base_body,0.9864371711152933,0.16222576001279182,0.02206388508430462,0.011734360030111152,0.017453292519943295,0.0,0.0,0.0,0.017453292519943295,0.0,0.0,0.0,0.15707963267948966,0.01417126040905714,0.00479958625510335,0.07590535283088684,0.0004363323129985824,0.0,0.0,0.0,0.0004363323129985824,0.0,0.0,0.0,0.0004363323129985824,-0.26176056265830994,-0.22790275514125824,9.82298755645752,0.0004,0.0,0.0,0.0,0.0004,0.0,0.0,0.0,0.0004
2025/05/07 10:32:29.299004945,1746606749,298653041,mti/imu_base_body,0.9865095874703302,0.16178226174330002,0.02208457454248784,0.011730523501468592,0.017453292519943295,0.0,0.0,0.0,0.017453292519943295,0.0,0.0,0.0,0.15707963267948966,0.00793546810746193,0.00889021810144186,0.08011879026889801,0.0004363323129985824,0.0,0.0,0.0,0.0004363323129985824,0.0,0.0,0.0,0.0004363323129985824,-0.2587083578109741,-0.2404259294271469,9.803763389587402,0.0004,0.0,0.0,0.0,0.0004,0.0,0.0,0.0,0.0004
2025/05/07 10:32:29.351167202,1746606749,348171840,mti/imu_base_body,0.9865779912619154,0.161360188980871,0.022124146369454804,0.011716600065054018,0.017453292519943295,0.0,0.0,0.0,0.017453292519943295,0.0,0.0,0.0,0.15707963267948966,0.009856563992798328,0.010428724810481071,0.07483470439910889,0.0004363323129985824,0.0,0.0,0.0,0.0004363323129985824,0.0,0.0,0.0,0.0004363323129985824,-0.27419230341911316,-0.226772740483284,9.81649398803711,0.0004,0.0,0.0,0.0,0.0004,0.0,0.0,0.0,0.0004
2025/05/07 10:32:29.453785390,1746606749,400192197,mti/imu_base_body,0.9866509445229308,0.16091558867140582,0.022097485625917575,0.01173831860003507,0.017453292519943295,0.0,0.0,0.0,0.017453292519943295,0.0,0.0,0.0,0.15707963267948966,0.001885736477561295,-0.0022491374984383583,0.08278857916593552,0.0004363323129985824,0.0,0.0,0.0,0.0004363323129985824,0.0,0.0,0.0,0.0004363323129985824,-0.25537189841270447,-0.23590488731861115,9.80724811553955,0.0004,0.0,0.0,0.0,0.0004,0.0,0.0,0.0,0.0004
2025/05/07 10:32:29.454031636,1746606749,448563130,mti/imu_base_body,0.9867269208352831,0.16044858481614616,0.022096183802248096,0.01174708435289332,0.017453292519943295,0.0,0.0,0.0,0.017453292519943295,0.0,0.0,0.0,0.15707963267948966,0.007669827900826931,0.004237986169755459,0.08616269379854202,0.0004363323129985824,0.0,0.0,0.0,0.0004363323129985824,0.0,0.0,0.0,0.0004363323129985824,-0.2600225508213043,-0.22602179646492004,9.816129684448242,0.0004,0.0,0.0,0.0,0.0004,0.0,0.0,0.0,0.0004
2025/05/07 10:32:29.546808639,1746606749,498164924,mti/imu_base_body,0.9867908573047974,0.16005341150959002,0.022104343489386648,0.011751910598201716,0.017453292519943295,0.0,0.0,0.0,0.017453292519943295,0.0,0.0,0.0,0.15707963267948966,0.0007634307839907706,0.005712885409593582,0.06583143025636673,0.0004363323129985824,0.0,0.0,0.0,0.0004363323129985824,0.0,0.0,0.0,0.0004363323129985824,-0.26939111948013306,-0.22923432290554047,9.806890487670898,0.0004,0.0,0.0,0.0,0.0004,0.0,0.0,0.0,0.0004
2025/05/07 10:32:29.548821618,1746606749,548282474,mti/imu_base_body,0.9868589386041906,0.1596320635343651,0.02211332997401716,0.011749052141805383,0.017453292519943295,0.0,0.0,0.0,0.017453292519943295,0.0,0.0,0.0,0.15707963267948966,0.01091040764003992,0.0008174924878403544,0.07884250581264496,0.0004363323129985824,0.0,0.0,0.0,0.0004363323129985824,0.0,0.0,0.0,0.0004363323129985824,-0.2576824128627777,-0.2474685162305832,9.815412521362305,0.0004,0.0,0.0,0.0,0.0004,0.0,0.0,0.0,0.0004
2025/05/07 10:32:29.606817898,1746606749,598685940,mti/imu_base_body,0.9869275004235925,0.15920577517602297,0.02210571220326813,0.011788449695680644,0.017453292519943295,0.0,0.0,0.0,0.017453292519943295,0.0,0.0,0.0,0.15707963267948966,0.003687637858092785,0.0021739208605140448,0.07540842890739441,0.0004363323129985824,0.0,0.0,0.0,0.0004363323129985824,0.0,0.0,0.0,0.0004363323129985824,-0.2834922969341278,-0.22560346126556396,9.821796417236328,0.0004,0.0,0.0,0.0,0.0004,0.0,0.0,0.0,0.0004
2025/05/07 10:32:29.651220164,1746606749,648015078,mti/imu_base_body,0.9869960469953111,0.15878431906550594,0.022088871904643186,0.011765414251676803,0.017453292519943295,0.0,0.0,0.0,0.017453292519943295,0.0,0.0,0.0,0.15707963267948966,0.010424986481666565,0.004981953650712967,0.08076926320791245,0.0004363323129985824,0.0,0.0,0.0,0.0004363323129985824,0.0,0.0,0.0,0.0004363323129985824,-0.2604007124900818,-0.22843828797340393,9.79849624633789,0.0004,0.0,0.0,0.0,0.0004,0.0,0.0,0.0,0.0004
2025/05/07 10:32:29.718776997,1746606749,697970339,mti/imu_base_body,0.9870674482993296,0.15833714788351516,0.022101424944975162,0.011778247890313481,0.017453292519943295,0.0,0.0,0.0,0.017453292519943295,0.0,0.0,0.0,0.15707963267948966,0.004854877945035696,0.0042591392993927,0.08190680295228958,0.0004363323129985824,0.0,0.0,0.0,0.0004363323129985824,0.0,0.0,0.0,0.0004363323129985824,-0.26042914390563965,-0.2315184324979782,9.818650245666504,0.0004,0.0,0.0,0.0,0.0004,0.0,0.0,0.0,0.0004
2025/05/07 10:32:29.770599809,1746606749,748220357,mti/imu_base_body,0.9871374384843672,0.15789137572654788,0.022162262323712243,0.0117824081746918,0.017453292519943295,0.0,0.0,0.0,0.017453292519943295,0.0,0.0,0.0,0.15707963267948966,0.004890329670161009,0.012269798666238785,0.07803906500339508,0.0004363323129985824,0.0,0.0,0.0,0.0004363323129985824,0.0,0.0,0.0,0.0004363323129985824,-0.2699986696243286,-0.22223836183547974,9.80940055847168,0.0004,0.0,0.0,0.0,0.0004,0.0,0.0,0.0,0.0004
2025/05/07 10:32:29.798750054,1746606749,798320255,mti/imu_base_body,0.9872094936770186,0.15744010006076348,0.022163133986584305,0.01178244366480043,0.017453292519943295,0.0,0.0,0.0,0.017453292519943295,0.0,0.0,0.0,0.15707963267948966,0.0050785355269908905,0.005176430102437735,0.08340935409069061,0.0004363323129985824,0.0,0.0,0.0,0.0004363323129985824,0.0,0.0,0.0,0.0004363323129985824,-0.268150269985199,-0.22152042388916016,9.816985130310059,0.0004,0.0,0.0,0.0,0.0004,0.0,0.0,0.0,0.0004
2025/05/07 10:32:29.848656727,1746606749,848299448,mti/imu_base_body,0.9872735603172795,0.15703392203218097,0.022192991216819925,0.011778606474607647,0.017453292519943295,0.0,0.0,0.0,0.017453292519943295,0.0,0.0,0.0,0.15707963267948966,0.013367557898163795,0.006964268162846565,0.07607217878103256,0.0004363323129985824,0.0,0.0,0.0,0.0004363323129985824,0.0,0.0,0.0,0.0004363323129985824,-0.2503497302532196,-0.2248833179473877,9.800405502319336,0.0004,0.0,0.0,0.0,0.0004,0.0,0.0,0.0,0.0004
2025/05/07 10:32:29.908263089,1746606749,898069324,mti/imu_base_body,0.9873543092755528,0.15653070645536366,0.022156662963601158,0.011776594494936468,0.017453292519943295,0.0,0.0,0.0,0.017453292519943295,0.0,0.0,0.0,0.15707963267948966,0.004353407304733992,-0.004098959267139435,0.08377216011285782,0.0004363323129985824,0.0,0.0,0.0,0.0004363323129985824,0.0,0.0,0.0,0.0004363323129985824,-0.24459685385227203,-0.23585723340511322,9.808313369750977,0.0004,0.0,0.0,0.0,0.0004,0.0,0.0,0.0,0.0004
2025/05/07 10:32:29.990026946,1746606749,948045789,mti/imu_base_body,0.9874186909714655,0.15612693340977152,0.022146943816137434,0.011756796496631038,0.017453292519943295,0.0,0.0,0.0,0.017453292519943295,0.0,0.0,0.0,0.15707963267948966,0.013849560171365738,0.006910357158631086,0.07921820133924484,0.0004363323129985824,0.0,0.0,0.0,0.0004363323129985824,0.0,0.0,0.0,0.0004363323129985824,-0.2606339156627655,-0.22312656044960022,9.813385009765625,0.0004,0.0,0.0,0.0,0.0004,0.0,0.0,0.0,0.0004
2025/05/07 10:32:30.21031895,1746606749,998084093,mti/imu_base_body,0.9874876403505997,0.15568743580879363,0.022176389919490017,0.011738407738115695,0.017453292519943295,0.0,0.0,0.0,0.017453292519943295,0.0,0.0,0.0,0.15707963267948966,0.009251120500266552,0.00438399612903595,0.07894975692033768,0.0004363323129985824,0.0,0.0,0.0,0.0004363323129985824,0.0,0.0,0.0,0.0004363323129985824,-0.2616788148880005,-0.23265203833580017,9.800890922546387,0.0004,0.0,0.0,0.0,0.0004,0.0,0.0,0.0,0.0004
2025/05/07 10:32:30.49534787,1746606750,47966558,mti/imu_base_body,0.9875567294684449,0.1552475754659049,0.022170333929693677,0.011763192040980086,0.017453292519943295,0.0,0.0,0.0,0.017453292519943295,0.0,0.0,0.0,0.15707963267948966,0.004341938067227602,0.004763640929013491,0.07698652148246765,0.0004363323129985824,0.0,0.0,0.0,0.0004363323129985824,0.0,0.0,0.0,0.0004363323129985824,-0.24666835367679596,-0.23456308245658875,9.812748908996582,0.0004,0.0,0.0,0.0,0.0004,0.0,0.0,0.0,0.0004
2025/05/07 10:32:30.98731385,1746606750,98069037,mti/imu_base_body,0.9876225030695281,0.15482703888604388,0.022188590347150924,0.011749294398622798,0.017453292519943295,0.0,0.0,0.0,0.017453292519943295,0.0,0.0,0.0,0.15707963267948966,0.009591756388545036,0.0051157413981854916,0.07865101099014282,0.0004363323129985824,0.0,0.0,0.0,0.0004363323129985824,0.0,0.0,0.0,0.0004363323129985824,-0.2501588463783264,-0.2263118028640747,9.787435531616211,0.0004,0.0,0.0,0.0,0.0004,0.0,0.0,0.0,0.0004
2025/05/07 10:32:30.148970982,1746606750,148147426,mti/imu_base_body,0.9876899762319507,0.1543994612283161,0.022176727224267154,0.011726465492833377,0.017453292519943295,0.0,0.0,0.0,0.017453292519943295,0.0,0.0,0.0,0.15707963267948966,0.009462558664381504,0.002019450068473816,0.07757799327373505,0.0004363323129985824,0.0,0.0,0.0,0.0004363323129985824,0.0,0.0,0.0,0.0004363323129985824,-0.26950371265411377,-0.22519797086715698,9.829601287841797,0.0004,0.0,0.0,0.0,0.0004,0.0,0.0,0.0,0.0004
2025/05/07 10:32:30.199649370,1746606750,198266067,mti/imu_base_body,0.987756150876911,0.15397501899017163,0.02217504233075223,0.011736585084021332,0.017453292519943295,0.0,0.0,0.0,0.017453292519943295,0.0,0.0,0.0,0.15707963267948966,0.009159128181636333,0.004701569676399231,0.07453926652669907,0.0004363323129985824,0.0,0.0,0.0,0.0004363323129985824,0.0,0.0,0.0,0.0004363323129985824,-0.25487929582595825,-0.22659657895565033,9.806172370910645,0.0004,0.0,0.0,0.0,0.0004,0.0,0.0,0.0,0.0004
2025/05/07 10:32:30.248596853,1746606750,247988065,mti/imu_base_body,0.9878223872083681,0.1535474596767118,0.02218128118691682,0.011751583795232806,0.017453292519943295,0.0,0.0,0.0,0.017453292519943295,0.0,0.0,0.0,0.15707963267948966,0.004018442705273628,-0.002740167547017336,0.0778839960694313,0.0004363323129985824,0.0,0.0,0.0,0.0004363323129985824,0.0,0.0,0.0,0.0004363323129985824,-0.2528044283390045,-0.22227279841899872,9.808323860168457,0.0004,0.0,0.0,0.0,0.0004,0.0,0.0,0.0,0.0004
2025/05/07 10:32:30.298451525,1746606750,297965632,mti/imu_base_body,0.9878853854131358,0.15314753253092706,0.022136592384774403,0.011758819856572289,0.017453292519943295,0.0,0.0,0.0,0.017453292519943295,0.0,0.0,0.0,0.15707963267948966,0.006605418864637613,-0.0015043725725263357,0.07322993129491806,0.0004363323129985824,0.0,0.0,0.0,0.0004363323129985824,0.0,0.0,0.0,0.0004363323129985824,-0.2638784945011139,-0.21576015651226044,9.816386222839355,0.0004,0.0,0.0,0.0,0.0004,0.0,0.0,0.0,0.0004
2025/05/07 10:32:30.348391861,1746606750,347919202,mti/imu_base_body,0.9879532760815315,0.15271361935125088,0.022106818927699,0.01175428863473018,0.017453292519943295,0.0,0.0,0.0,0.017453292519943295,0.0,0.0,0.0,0.15707963267948966,0.00956142507493496,0.0012428261106833816,0.07730159908533096,0.0004363323129985824,0.0,0.0,0.0,0.0004363323129985824,0.0,0.0,0.0,0.0004363323129985824,-0.2667509913444519,-0.2404354214668274,9.801982879638672,0.0004,0.0,0.0,0.0,0.0004,0.0,0.0,0.0,0.0004
2025/05/07 10:32:30.398379567,1746606750,397853083,mti/imu_base_body,0.9880243944661822,0.15225058336010333,0.02212857679879298,0.011742312170192023,0.017453292519943295,0.0,0.0,0.0,0.017453292519943295,0.0,0.0,0.0,0.15707963267948966,0.009126139804720879,0.006603173445910215,0.08723030984401703,0.0004363323129985824,0.0,0.0,0.0,0.0004363323129985824,0.0,0.0,0.0,0.0004363323129985824,-0.26819542050361633,-0.2259599268436432,9.819499015808105,0.0004,0.0,0.0,0.0,0.0004,0.0,0.0,0.0,0.0004
2025/05/07 10:32:30.449061318,1746606750,448103449,mti/imu_base_body,0.9880883395777224,0.15183781119325068,0.022131670254953075,0.01170048949011315,0.017453292519943295,0.0,0.0,0.0,0.017453292519943295,0.0,0.0,0.0,0.15707963267948966,0.016708169132471085,0.002821473404765129,0.07304700464010239,0.0004363323129985824,0.0,0.0,0.0,0.0004363323129985824,0.0,0.0,0.0,0.0004363323129985824,-0.24413040280342102,-0.2287146896123886,9.813246726989746,0.0004,0.0,0.0,0.0,0.0004,0.0,0.0,0.0,0.0004
2025/05/07 10:32:30.498402406,1746606750,497976292,mti/imu_base_body,0.9881640077209755,0.15134755606890105,0.022120609342975325,0.011682883166678388,0.017453292519943295,0.0,0.0,0.0,0.017453292519943295,0.0,0.0,0.0,0.15707963267948966,0.015981052070856094,0.004302287008613348,0.08922930061817169,0.0004363323129985824,0.0,0.0,0.0,0.0004363323129985824,0.0,0.0,0.0,0.0004363323129985824,-0.26484739780426025,-0.22312378883361816,9.819509506225586,0.0004,0.0,0.0,0.0,0.0004,0.0,0.0,0.0,0.0004
2025/05/07 10:32:30.548502042,1746606750,548022306,mti/imu_base_body,0.9882281828569335,0.15092570695559676,0.02212723372048659,0.011699363876540482,0.017453292519943295,0.0,0.0,0.0,0.017453292519943295,0.0,0.0,0.0,0.15707963267948966,-0.0014338470064103603,0.0020703773479908705,0.07801058143377304,0.0004363323129985824,0.0,0.0,0.0,0.0004363323129985824,0.0,0.0,0.0,0.0004363323129985824,-0.2624967694282532,-0.23066313564777374,9.798005104064941,0.0004,0.0,0.0,0.0,0.0004,0.0,0.0,0.0,0.0004
2025/05/07 10:32:30.598724739,1746606750,598146329,mti/imu_base_body,0.9882942222815972,0.1504879306374035,0.02214066081206218,0.011734738006879582,0.017453292519943295,0.0,0.0,0.0,0.017453292519943295,0.0,0.0,0.0,0.15707963267948966,0.0016849762760102749,0.010238473303616047,0.08079801499843597,0.0004363323129985824,0.0,0.0,0.0,0.0004363323129985824,0.0,0.0,0.0,0.0004363323129985824,-0.28037455677986145,-0.22614340484142303,9.810134887695312,0.0004,0.0,0.0,0.0,0.0004,0.0,0.0,0.0,0.0004
2025/05/07 10:32:30.651678113,1746606750,649726766,mti/imu_base_body,0.9883587296223748,0.1500660675798895,0.0221269445277419,0.01173010086143448,0.017453292519943295,0.0,0.0,0.0,0.017453292519943295,0.0,0.0,0.0,0.15707963267948966,0.009297747164964676,-0.0029880963265895844,0.07241804152727127,0.0004363323129985824,0.0,0.0,0.0,0.0004363323129985824,0.0,0.0,0.0,0.0004363323129985824,-0.2603572905063629,-0.2305864542722702,9.833066940307617,0.0004,0.0,0.0,0.0,0.0004,0.0,0.0,0.0,0.0004
2025/05/07 10:32:30.703013675,1746606750,701409182,mti/imu_base_body,0.9884216240334396,0.14965106779334686,0.022135993480068707,0.011715325179398382,0.017453292519943295,0.0,0.0,0.0,0.017453292519943295,0.0,0.0,0.0,0.15707963267948966,0.00939919427037239,0.010523145087063313,0.08189958333969116,0.0004363323129985824,0.0,0.0,0.0,0.0004363323129985824,0.0,0.0,0.0,0.0004363323129985824,-0.27118781208992004,-0.23911309242248535,9.812541007995605,0.0004,0.0,0.0,0.0,0.0004,0.0,0.0,0.0,0.0004
2025/05/07 10:32:30.751084140,1746606750,748331410,mti/imu_base_body,0.9884907034660757,0.14918904888274814,0.022157461400338006,0.011738984576896625,0.017453292519943295,0.0,0.0,0.0,0.017453292519943295,0.0,0.0,0.0,0.15707963267948966,0.008210450410842896,0.002550228266045451,0.07683715969324112,0.0004363323129985824,0.0,0.0,0.0,0.0004363323129985824,0.0,0.0,0.0,0.0004363323129985824,-0.2563287019729614,-0.2293129414319992,9.81528091430664,0.0004,0.0,0.0,0.0,0.0004,0.0,0.0,0.0,0.0004
2025/05/07 10:32:30.807542317,1746606750,806570438,mti/imu_base_body,0.9885549516086212,0.14876858182475888,0.022125540273907125,0.011725066290401327,0.017453292519943295,0.0,0.0,0.0,0.017453292519943295,0.0,0.0,0.0,0.15707963267948966,0.006941437255591154,0.00157111044973135,0.0788910761475563,0.0004363323129985824,0.0,0.0,0.0,0.0004363323129985824,0.0,0.0,0.0,0.0004363323129985824,-0.2610965073108673,-0.2280498594045639,9.810020446777344,0.0004,0.0,0.0,0.0,0.0004,0.0,0.0,0.0,0.0004
2025/05/07 10:32:30.848799935,1746606750,848047612,mti/imu_base_body,0.9886222505939681,0.14831312817860903,0.02216359754012419,0.011748897159823123,0.017453292519943295,0.0,0.0,0.0,0.017453292519943295,0.0,0.0,0.0,0.15707963267948966,0.0007269175257533789,0.006988648325204849,0.08582841604948044,0.0004363323129985824,0.0,0.0,0.0,0.0004363323129985824,0.0,0.0,0.0,0.0004363323129985824,-0.27727895975112915,-0.21716204285621643,9.812302589416504,0.0004,0.0,0.0,0.0,0.0004,0.0,0.0,0.0,0.0004
2025/05/07 10:32:30.900994301,1746606750,898081452,mti/imu_base_body,0.9886895809963724,0.14785825470798397,0.022180703291024517,0.011784114113588342,0.017453292519943295,0.0,0.0,0.0,0.017453292519943295,0.0,0.0,0.0,0.15707963267948966,0.004021851345896721,0.008121597580611706,0.08337211608886719,0.0004363323129985824,0.0,0.0,0.0,0.0004363323129985824,0.0,0.0,0.0,0.0004363323129985824,-0.272542804479599,-0.22119835019111633,9.808452606201172,0.0004,0.0,0.0,0.0,0.0004,0.0,0.0,0.0,0.0004
2025/05/07 10:32:30.950180546,1746606750,948523601,mti/imu_base_body,0.9887566811158149,0.14740646640368638,0.022212108857819005,0.011755059817201688,0.017453292519943295,0.0,0.0,0.0,0.017453292519943295,0.0,0.0,0.0,0.15707963267948966,0.007816304452717304,0.005244385451078415,0.08087757229804993,0.0004363323129985824,0.0,0.0,0.0,0.0004363323129985824,0.0,0.0,0.0,0.0004363323129985824,-0.25012949109077454,-0.2325088530778885,9.806756019592285,0.0004,0.0,0.0,0.0,0.0004,0.0,0.0,0.0,0.0004
2025/05/07 10:32:30.998366082,1746606750,997867447,mti/imu_base_body,0.9888210973424781,0.14696820227749863,0.022223909399739932,0.01180181429821826,0.017453292519943295,0.0,0.0,0.0,0.017453292519943295,0.0,0.0,0.0,0.15707963267948966,0.004171308130025864,0.00940620806068182,0.07751795649528503,0.0004363323129985824,0.0,0.0,0.0,0.0004363323129985824,0.0,0.0,0.0,0.0004363323129985824,-0.2663590610027313,-0.23271065950393677,9.818525314331055,0.0004,0.0,0.0,0.0,0.0004,0.0,0.0,0.0,0.0004
2025/05/07 10:32:31.50569583,1746606751,49088842,mti/imu_base_body,0.9888881168678089,0.14651702780667086,0.022237131826462156,0.011771272168729306,0.017453292519943295,0.0,0.0,0.0,0.017453292519943295,0.0,0.0,0.0,0.15707963267948966,0.011504139751195908,0.002104319166392088,0.08092089742422104,0.0004363323129985824,0.0,0.0,0.0,0.0004363323129985824,0.0,0.0,0.0,0.0004363323129985824,-0.27441883087158203,-0.22091132402420044,9.792380332946777,0.0004,0.0,0.0,0.0,0.0004,0.0,0.0,0.0,0.0004
2025/05/07 10:32:31.107752542,1746606751,98050970,mti/imu_base_body,0.9889468897833553,0.14612426936787098,0.022200877334404644,0.011784232478884034,0.017453292519943295,0.0,0.0,0.0,0.017453292519943295,0.0,0.0,0.0,0.15707963267948966,0.002334321616217494,-5.2090319513808936e-05,0.07028349488973618,0.0004363323129985824,0.0,0.0,0.0,0.0004363323129985824,0.0,0.0,0.0,0.0004363323129985824,-0.2602510452270508,-0.2122686207294464,9.813143730163574,0.0004,0.0,0.0,0.0,0.0004,0.0,0.0,0.0,0.0004
2025/05/07 10:32:31.410895067,1746606751,349277787,mti/imu_base_body,0.9892676983878393,0.14392094086740148,0.02225184979393631,0.011875979412959592,0.017453292519943295,0.0,0.0,0.0,0.017453292519943295,0.0,0.0,0.0,0.15707963267948966,0.00826619565486908,0.0048065767623484135,0.0843532457947731,0.0004363323129985824,0.0,0.0,0.0,0.0004363323129985824,0.0,0.0,0.0,0.0004363323129985824,-0.2607400119304657,-0.22536954283714294,9.812653541564941,0.0004,0.0,0.0,0.0,0.0004,0.0,0.0,0.0,0.0004
2025/05/07 10:32:31.427514562,1746606751,399709275,mti/imu_base_body,0.9893301494230011,0.14348782187311443,0.02227885414811193,0.011863940096739852,0.017453292519943295,0.0,0.0,0.0,0.017453292519943295,0.0,0.0,0.0,0.15707963267948966,0.008395787328481674,0.010175452567636967,0.07785926759243011,0.0004363323129985824,0.0,0.0,0.0,0.0004363323129985824,0.0,0.0,0.0,0.0004363323129985824,-0.25994622707366943,-0.24689804017543793,9.802803993225098,0.0004,0.0,0.0,0.0,0.0004,0.0,0.0,0.0,0.0004
2025/05/07 10:32:31.448685313,1746606751,448193930,mti/imu_base_body,0.9893924875167006,0.1430638738410226,0.022234898096778775,0.011867727404240845,0.017453292519943295,0.0,0.0,0.0,0.017453292519943295,0.0,0.0,0.0,0.15707963267948966,0.00590207614004612,-0.008358517661690712,0.07290150970220566,0.0004363323129985824,0.0,0.0,0.0,0.0004363323129985824,0.0,0.0,0.0,0.0004363323129985824,-0.2636203169822693,-0.22491708397865295,9.820840835571289,0.0004,0.0,0.0,0.0,0.0004,0.0,0.0,0.0,0.0004
2025/05/07 10:32:31.502757997,1746606751,498464274,mti/imu_base_body,0.9894524232775173,0.14264552529775404,0.022229062690858392,0.011917422316185472,0.017453292519943295,0.0,0.0,0.0,0.017453292519943295,0.0,0.0,0.0,0.15707963267948966,-0.002053862437605858,0.0010742106242105365,0.07625782489776611,0.0004363323129985824,0.0,0.0,0.0,0.0004363323129985824,0.0,0.0,0.0,0.0004363323129985824,-0.2651824653148651,-0.24006950855255127,9.803647994995117,0.0004,0.0,0.0,0.0,0.0004,0.0,0.0,0.0,0.0004
2025/05/07 10:32:31.548961368,1746606751,548606466,mti/imu_base_body,0.9895174169228208,0.14219278484757292,0.022210274121292166,0.011966506053860812,0.017453292519943295,0.0,0.0,0.0,0.017453292519943295,0.0,0.0,0.0,0.15707963267948966,-0.0037103258073329926,-0.0005961750284768641,0.08644988387823105,0.0004363323129985824,0.0,0.0,0.0,0.0004363323129985824,0.0,0.0,0.0,0.0004363323129985824,-0.2808622121810913,-0.2076287716627121,9.806434631347656,0.0004,0.0,0.0,0.0,0.0004,0.0,0.0,0.0,0.0004
2025/05/07 10:32:31.598325839,1746606751,597843199,mti/imu_base_body,0.9895816634850683,0.14172999828613575,0.022260420380862365,0.01205041760290042,0.017453292519943295,0.0,0.0,0.0,0.017453292519943295,0.0,0.0,0.0,0.15707963267948966,-0.004394876305013895,0.009781679138541222,0.08495985716581345,0.0004363323129985824,0.0,0.0,0.0,0.0004363323129985824,0.0,0.0,0.0,0.0004363323129985824,-0.25656893849372864,-0.22619783878326416,9.79521369934082,0.0004,0.0,0.0,0.0,0.0004,0.0,0.0,0.0,0.0004
2025/05/07 10:32:31.650676666,1746606751,649119299,mti/imu_base_body,0.9896462011284322,0.1412772352841018,0.022268591388670805,0.01205193843775013,0.017453292519943295,0.0,0.0,0.0,0.017453292519943295,0.0,0.0,0.0,0.15707963267948966,0.0013127196580171585,0.008148131892085075,0.07563740760087967,0.0004363323129985824,0.0,0.0,0.0,0.0004363323129985824,0.0,0.0,0.0,0.0004363323129985824,-0.2538955807685852,-0.21832175552845,9.805562019348145,0.0004,0.0,0.0,0.0,0.0004,0.0,0.0,0.0,0.0004
2025/05/07 10:32:31.698651024,1746606751,698015835,mti/imu_base_body,0.9897047500507605,0.1408574463825491,0.022312706020181778,0.012076037247605417,0.017453292519943295,0.0,0.0,0.0,0.017453292519943295,0.0,0.0,0.0,0.15707963267948966,0.007182953413575888,0.011167287826538086,0.08334120362997055,0.0004363323129985824,0.0,0.0,0.0,0.0004363323129985824,0.0,0.0,0.0,0.0004363323129985824,-0.27748170495033264,-0.2079424411058426,9.806661605834961,0.0004,0.0,0.0,0.0,0.0004,0.0,0.0,0.0,0.0004
2025/05/07 10:32:31.748356993,1746606751,747932486,mti/imu_base_body,0.9897708466618127,0.14039172098342995,0.02232078790768439,0.012067236835712678,0.017453292519943295,0.0,0.0,0.0,0.017453292519943295,0.0,0.0,0.0,0.15707963267948966,0.008961208164691925,0.004890552256256342,0.08400673419237137,0.0004363323129985824,0.0,0.0,0.0,0.0004363323129985824,0.0,0.0,0.0,0.0004363323129985824,-0.25326088070869446,-0.23891080915927887,9.804840087890625,0.0004,0.0,0.0,0.0,0.0004,0.0,0.0,0.0,0.0004
2025/05/07 10:32:31.798153653,1746606751,797775139,mti/imu_base_body,0.9898331867574508,0.13994381875424677,0.022357278338958543,0.012088924325275115,0.017453292519943295,0.0,0.0,0.0,0.017453292519943295,0.0,0.0,0.0,0.15707963267948966,0.00018838205141946673,0.006940759252756834,0.07912518084049225,0.0004363323129985824,0.0,0.0,0.0,0.0004363323129985824,0.0,0.0,0.0,0.0004363323129985824,-0.2587208151817322,-0.22455090284347534,9.811678886413574,0.0004,0.0,0.0,0.0,0.0004,0.0,0.0,0.0,0.0004
2025/05/07 10:32:31.849105930,1746606751,848317871,mti/imu_base_body,0.9898963639159759,0.13949206811672027,0.022388426823879294,0.012079320461092462,0.017453292519943295,0.0,0.0,0.0,0.017453292519943295,0.0,0.0,0.0,0.15707963267948966,0.006389416288584471,0.009439642541110516,0.08063095808029175,0.0004363323129985824,0.0,0.0,0.0,0.0004363323129985824,0.0,0.0,0.0,0.0004363323129985824,-0.2656431794166565,-0.2344547063112259,9.812411308288574,0.0004,0.0,0.0,0.0,0.0004,0.0,0.0,0.0,0.0004
2025/05/07 10:32:31.898332207,1746606751,897928450,mti/imu_base_body,0.9899558433525124,0.13906717637016253,0.02239863417039555,0.012085108851259772,0.017453292519943295,0.0,0.0,0.0,0.017453292519943295,0.0,0.0,0.0,0.15707963267948966,0.00962293241173029,0.00634145550429821,0.07753927260637283,0.0004363323129985824,0.0,0.0,0.0,0.0004363323129985824,0.0,0.0,0.0,0.0004363323129985824,-0.24538351595401764,-0.23298859596252441,9.810478210449219,0.0004,0.0,0.0,0.0,0.0004,0.0,0.0,0.0,0.0004
2025/05/07 10:32:31.948340440,1746606751,947917698,mti/imu_base_body,0.9900191512193284,0.1386124744400956,0.022396035892466196,0.012127643005041763,0.017453292519943295,0.0,0.0,0.0,0.017453292519943295,0.0,0.0,0.0,0.15707963267948966,-0.0006740973913110793,0.00021748070139437914,0.08215868473052979,0.0004363323129985824,0.0,0.0,0.0,0.0004363323129985824,0.0,0.0,0.0,0.0004363323129985824,-0.25363394618034363,-0.23229843378067017,9.805076599121094,0.0004,0.0,0.0,0.0,0.0004,0.0,0.0,0.0,0.0004
2025/05/07 10:32:31.998509425,1746606751,998000886,mti/imu_base_body,0.9900789281650855,0.13818317627420273,0.02239481375248271,0.012148996470475504,0.017453292519943295,0.0,0.0,0.0,0.017453292519943295,0.0,0.0,0.0,0.15707963267948966,0.003706860588863492,0.004247942939400673,0.08043060451745987,0.0004363323129985824,0.0,0.0,0.0,0.0004363323129985824,0.0,0.0,0.0,0.0004363323129985824,-0.2692154347896576,-0.21212522685527802,9.798851013183594,0.0004,0.0,0.0,0.0,0.0004,0.0,0.0,0.0,0.0004
2025/05/07 10:32:32.48436297,1746606752,48035579,mti/imu_base_body,0.9901389601215693,0.13775644749010385,0.02236740647608334,0.012153186899623185,0.017453292519943295,0.0,0.0,0.0,0.017453292519943295,0.0,0.0,0.0,0.15707963267948966,0.0013341463636606932,-0.004761197604238987,0.07493948191404343,0.0004363323129985824,0.0,0.0,0.0,0.0004363323129985824,0.0,0.0,0.0,0.0004363323129985824,-0.2613655924797058,-0.22787848114967346,9.793460845947266,0.0004,0.0,0.0,0.0,0.0004,0.0,0.0,0.0,0.0004
2025/05/07 10:32:32.98641021,1746606752,98081980,mti/imu_base_body,0.9901979210979304,0.13732451837495346,0.022367584698720397,0.012237028281799872,0.017453292519943295,0.0,0.0,0.0,0.017453292519943295,0.0,0.0,0.0,0.15707963267948966,-0.006021092180162668,0.006344670429825783,0.08248209208250046,0.0004363323129985824,0.0,0.0,0.0,0.0004363323129985824,0.0,0.0,0.0,0.0004363323129985824,-0.261283814907074,-0.23136185109615326,9.794276237487793,0.0004,0.0,0.0,0.0,0.0004,0.0,0.0,0.0,0.0004
2025/05/07 10:32:32.150461894,1746606752,148111267,mti/imu_base_body,0.9902600081877235,0.1368712434239019,0.022387651743105856,0.012254466821288522,0.017453292519943295,0.0,0.0,0.0,0.017453292519943295,0.0,0.0,0.0,0.15707963267948966,0.005298768635839224,0.002395333256572485,0.08231660723686218,0.0004363323129985824,0.0,0.0,0.0,0.0004363323129985824,0.0,0.0,0.0,0.0004363323129985824,-0.2367832064628601,-0.2459847331047058,9.801939010620117,0.0004,0.0,0.0,0.0,0.0004,0.0,0.0,0.0,0.0004
2025/05/07 10:32:32.198400004,1746606752,197976543,mti/imu_base_body,0.9903269672440205,0.13638256906683238,0.0224051458656689,0.012259781512297098,0.017453292519943295,0.0,0.0,0.0,0.017453292519943295,0.0,0.0,0.0,0.15707963267948966,0.0049656289629638195,0.010382408276200294,0.0837714746594429,0.0004363323129985824,0.0,0.0,0.0,0.0004363323129985824,0.0,0.0,0.0,0.0004363323129985824,-0.2378307729959488,-0.2480451464653015,9.802900314331055,0.0004,0.0,0.0,0.0,0.0004,0.0,0.0,0.0,0.0004
2025/05/07 10:32:32.248532670,1746606752,248173613,mti/imu_base_body,0.990385332032065,0.1359522842111427,0.022436664105292083,0.012266483495078855,0.017453292519943295,0.0,0.0,0.0,0.017453292519943295,0.0,0.0,0.0,0.15707963267948966,0.007662104442715645,0.006263824179768562,0.07861814647912979,0.0004363323129985824,0.0,0.0,0.0,0.0004363323129985824,0.0,0.0,0.0,0.0004363323129985824,-0.24623490869998932,-0.23776325583457947,9.798952102661133,0.0004,0.0,0.0,0.0,0.0004,0.0,0.0,0.0,0.0004
2025/05/07 10:32:32.298223204,1746606752,297783866,mti/imu_base_body,0.9904415655317591,0.13554240451929878,0.022426425544775377,0.012280768762967562,0.017453292519943295,0.0,0.0,0.0,0.017453292519943295,0.0,0.0,0.0,0.15707963267948966,0.006050223484635353,-0.0012255687033757567,0.07514181733131409,0.0004363323129985824,0.0,0.0,0.0,0.0004363323129985824,0.0,0.0,0.0,0.0004363323129985824,-0.24892625212669373,-0.23701752722263336,9.806391716003418,0.0004,0.0,0.0,0.0,0.0004,0.0,0.0,0.0,0.0004
2025/05/07 10:32:32.349997518,1746606752,348440611,mti/imu_base_body,0.9905005549706526,0.13510940283023853,0.02242957080607169,0.012288784445220483,0.017453292519943295,0.0,0.0,0.0,0.017453292519943295,0.0,0.0,0.0,0.15707963267948966,0.0059135290794074535,0.007093459367752075,0.07699179649353027,0.0004363323129985824,0.0,0.0,0.0,0.0004363323129985824,0.0,0.0,0.0,0.0004363323129985824,-0.2545807659626007,-0.224469393491745,9.810113906860352,0.0004,0.0,0.0,0.0,0.0004,0.0,0.0,0.0,0.0004
2025/05/07 10:32:32.398614461,1746606752,398252427,mti/imu_base_body,0.9905531813925993,0.13471604229514267,0.022443169278944526,0.012340459231735023,0.017453292519943295,0.0,0.0,0.0,0.017453292519943295,0.0,0.0,0.0,0.15707963267948966,-0.005678439047187567,0.0045910729095339775,0.0732564702630043,0.0004363323129985824,0.0,0.0,0.0,0.0004363323129985824,0.0,0.0,0.0,0.0004363323129985824,-0.25791722536087036,-0.23474441468715668,9.79283332824707,0.0004,0.0,0.0,0.0,0.0004,0.0,0.0,0.0,0.0004
2025/05/07 10:32:32.450737692,1746606752,448366311,mti/imu_base_body,0.9906141420302198,0.13426448218364062,0.022453013407827148,0.012350409814991315,0.017453292519943295,0.0,0.0,0.0,0.017453292519943295,0.0,0.0,0.0,0.15707963267948966,0.008803308010101318,0.005910738371312618,0.08266235142946243,0.0004363323129985824,0.0,0.0,0.0,0.0004363323129985824,0.0,0.0,0.0,0.0004363323129985824,-0.25346651673316956,-0.24402257800102234,9.800039291381836,0.0004,0.0,0.0,0.0,0.0004,0.0,0.0,0.0,0.0004
2025/05/07 10:32:32.498204816,1746606752,497830653,mti/imu_base_body,0.9906746234538091,0.13381620489639995,0.022462831661470263,0.012346454775620047,0.017453292519943295,0.0,0.0,0.0,0.017453292519943295,0.0,0.0,0.0,0.15707963267948966,0.008002062328159809,0.004158375784754753,0.08530136197805405,0.0004363323129985824,0.0,0.0,0.0,0.0004363323129985824,0.0,0.0,0.0,0.0004363323129985824,-0.25492656230926514,-0.23539245128631592,9.80328369140625,0.0004,0.0,0.0,0.0,0.0004,0.0,0.0,0.0,0.0004
2025/05/07 10:32:32.548131054,1746606752,547779976,mti/imu_base_body,0.9907329920575021,0.13337725660577865,0.022492228250031263,0.012359026557707162,0.017453292519943295,0.0,0.0,0.0,0.017453292519943295,0.0,0.0,0.0,0.15707963267948966,0.00297478842549026,0.010938214138150215,0.07897770404815674,0.0004363323129985824,0.0,0.0,0.0,0.0004363323129985824,0.0,0.0,0.0,0.0004363323129985824,-0.2638327181339264,-0.22907046973705292,9.804119110107422,0.0004,0.0,0.0,0.0,0.0004,0.0,0.0,0.0,0.0004
2025/05/07 10:32:32.598127327,1746606752,597779192,mti/imu_base_body,0.9907944451208277,0.13292132941263562,0.022477497652109643,0.012371329928028868,0.017453292519943295,0.0,0.0,0.0,0.017453292519943295,0.0,0.0,0.0,0.15707963267948966,0.00883443746715784,-0.003577509429305792,0.08072740584611893,0.0004363323129985824,0.0,0.0,0.0,0.0004363323129985824,0.0,0.0,0.0,0.0004363323129985824,-0.25368252396583557,-0.22343739867210388,9.812644958496094,0.0004,0.0,0.0,0.0,0.0004,0.0,0.0,0.0,0.0004
2025/05/07 10:32:32.648586529,1746606752,648093387,mti/imu_base_body,0.9908482341774592,0.1325221197608502,0.02245896011312047,0.012379810666534243,0.017453292519943295,0.0,0.0,0.0,0.017453292519943295,0.0,0.0,0.0,0.15707963267948966,0.002910090144723654,0.00578857958316803,0.07265575975179672,0.0004363323129985824,0.0,0.0,0.0,0.0004363323129985824,0.0,0.0,0.0,0.0004363323129985824,-0.26909342408180237,-0.23104044795036316,9.799095153808594,0.0004,0.0,0.0,0.0,0.0004,0.0,0.0,0.0,0.0004
2025/05/07 10:32:32.698440408,1746606752,698015452,mti/imu_base_body,0.9909076664387847,0.13206690242628694,0.02250151260455086,0.01241014934942462,0.017453292519943295,0.0,0.0,0.0,0.017453292519943295,0.0,0.0,0.0,0.15707963267948966,-0.0003438711864873767,0.006640142295509577,0.08219295740127563,0.0004363323129985824,0.0,0.0,0.0,0.0004363323129985824,0.0,0.0,0.0,0.0004363323129985824,-0.25808730721473694,-0.23557841777801514,9.814916610717773,0.0004,0.0,0.0,0.0,0.0004,0.0,0.0,0.0,0.0004
2025/05/07 10:32:32.748126061,1746606752,747762563,mti/imu_base_body,0.9909664653393555,0.13161407095206928,0.02253141635005343,0.01247141441489815,0.017453292519943295,0.0,0.0,0.0,0.017453292519943295,0.0,0.0,0.0,0.15707963267948966,-0.002508280100300908,0.008225293830037117,0.07932081818580627,0.0004363323129985824,0.0,0.0,0.0,0.0004363323129985824,0.0,0.0,0.0,0.0004363323129985824,-0.26931577920913696,-0.22341583669185638,9.813726425170898,0.0004,0.0,0.0,0.0,0.0004,0.0,0.0,0.0,0.0004
2025/05/07 10:32:32.798190813,1746606752,797763453,mti/imu_base_body,0.9910188215673148,0.1312150250787445,0.022536908303245454,0.012506008837606355,0.017453292519943295,0.0,0.0,0.0,0.017453292519943295,0.0,0.0,0.0,0.15707963267948966,0.0008897780789993703,0.006777113303542137,0.07701904326677322,0.0004363323129985824,0.0,0.0,0.0,0.0004363323129985824,0.0,0.0,0.0,0.0004363323129985824,-0.253734290599823,-0.2323809564113617,9.805553436279297,0.0004,0.0,0.0,0.0,0.0004,0.0,0.0,0.0,0.0004
2025/05/07 10:32:32.849542905,1746606752,848058919,mti/imu_base_body,0.9910756957149832,0.1307791367197214,0.022569121231293208,0.012506699354874026,0.017453292519943295,0.0,0.0,0.0,0.017453292519943295,0.0,0.0,0.0,0.15707963267948966,0.009145946241915226,0.0034862470347434282,0.07650052011013031,0.0004363323129985824,0.0,0.0,0.0,0.0004363323129985824,0.0,0.0,0.0,0.0004363323129985824,-0.26034781336784363,-0.23942038416862488,9.798964500427246,0.0004,0.0,0.0,0.0,0.0004,0.0,0.0,0.0,0.0004
2025/05/07 10:32:32.898277533,1746606752,897827990,mti/imu_base_body,0.9911340180816361,0.13034193678296196,0.022528779937604514,0.012521652907679955,0.017453292519943295,0.0,0.0,0.0,0.017453292519943295,0.0,0.0,0.0,0.15707963267948966,0.0040335217490792274,-0.001109472126699984,0.08012756705284119,0.0004363323129985824,0.0,0.0,0.0,0.0004363323129985824,0.0,0.0,0.0,0.0004363323129985824,-0.2657126784324646,-0.22445374727249146,9.79345703125,0.0004,0.0,0.0,0.0,0.0004,0.0,0.0,0.0,0.0004
2025/05/07 10:32:32.949052500,1746606752,948396035,mti/imu_base_body,0.9911896638313427,0.12991215580986598,0.02254899297781711,0.012546912067490937,0.017453292519943295,0.0,0.0,0.0,0.017453292519943295,0.0,0.0,0.0,0.15707963267948966,0.0035907847341150045,0.004798936657607555,0.07791267335414886,0.0004363323129985824,0.0,0.0,0.0,0.0004363323129985824,0.0,0.0,0.0,0.0004363323129985824,-0.26558202505111694,-0.22865653038024902,9.802576065063477,0.0004,0.0,0.0,0.0,0.0004,0.0,0.0,0.0,0.0004
2025/05/07 10:32:32.998327134,1746606752,997920803,mti/imu_base_body,0.9912469247963446,0.12947046202543933,0.022555558045279357,0.012576976821756684,0.017453292519943295,0.0,0.0,0.0,0.017453292519943295,0.0,0.0,0.0,0.15707963267948966,0.0018106381176039577,0.010866809636354446,0.08384975045919418,0.0004363323129985824,0.0,0.0,0.0,0.0004363323129985824,0.0,0.0,0.0,0.0004363323129985824,-0.2535687983036041,-0.23189997673034668,9.80797290802002,0.0004,0.0,0.0,0.0,0.0004,0.0,0.0,0.0,0.0004
2025/05/07 10:32:33.48933837,1746606753,48570396,mti/imu_base_body,0.9913090170333949,0.1289913166594921,0.02258817865825167,0.012547795011002158,0.017453292519943295,0.0,0.0,0.0,0.017453292519943295,0.0,0.0,0.0,0.15707963267948966,0.01049386989325285,0.0033113944809883833,0.08569362759590149,0.0004363323129985824,0.0,0.0,0.0,0.0004363323129985824,0.0,0.0,0.0,0.0004363323129985824,-0.2534114420413971,-0.2253943532705307,9.796585083007812,0.0004,0.0,0.0,0.0,0.0004,0.0,0.0,0.0,0.0004
2025/05/07 10:32:33.98370959,1746606753,97971639,mti/imu_base_body,0.9913690006018068,0.12852697084787684,0.022597612554540472,0.012556684167342624,0.017453292519943295,0.0,0.0,0.0,0.017453292519943295,0.0,0.0,0.0,0.15707963267948966,0.004941402468830347,0.002376595512032509,0.08403565734624863,0.0004363323129985824,0.0,0.0,0.0,0.0004363323129985824,0.0,0.0,0.0,0.0004363323129985824,-0.23956787586212158,-0.23066897690296173,9.79176139831543,0.0004,0.0,0.0,0.0,0.0004,0.0,0.0,0.0,0.0004
2025/05/07 10:32:33.148514818,1746606753,147983983,mti/imu_base_body,0.9914260000831279,0.12808701470902406,0.02258856106640339,0.01256821113163304,0.017453292519943295,0.0,0.0,0.0,0.017453292519943295,0.0,0.0,0.0,0.15707963267948966,0.00941500160843134,0.0034247743897140026,0.08657297492027283,0.0004363323129985824,0.0,0.0,0.0,0.0004363323129985824,0.0,0.0,0.0,0.0004363323129985824,-0.24906595051288605,-0.2343693971633911,9.80257797241211,0.0004,0.0,0.0,0.0,0.0004,0.0,0.0,0.0,0.0004
2025/05/07 10:32:33.198285687,1746606753,197904765,mti/imu_base_body,0.9914876496313532,0.12761013878679112,0.02259931290752532,0.012536513208160256,0.017453292519943295,0.0,0.0,0.0,0.017453292519943295,0.0,0.0,0.0,0.15707963267948966,0.010455398820340633,0.004730818793177605,0.08221126347780228,0.0004363323129985824,0.0,0.0,0.0,0.0004363323129985824,0.0,0.0,0.0,0.0004363323129985824,-0.2469063699245453,-0.24181771278381348,9.799698829650879,0.0004,0.0,0.0,0.0,0.0004,0.0,0.0,0.0,0.0004
2025/05/07 10:32:33.248384083,1746606753,247932327,mti/imu_base_body,0.9915413667580137,0.12718910037360281,0.022607487893558733,0.012551981713917398,0.017453292519943295,0.0,0.0,0.0,0.017453292519943295,0.0,0.0,0.0,0.15707963267948966,0.001996950013563037,0.003780874190852046,0.0705670565366745,0.0004363323129985824,0.0,0.0,0.0,0.0004363323129985824,0.0,0.0,0.0,0.0004363323129985824,-0.2668720781803131,-0.2261919230222702,9.800070762634277,0.0004,0.0,0.0,0.0,0.0004,0.0,0.0,0.0,0.0004
2025/05/07 10:32:33.299451902,1746606753,298274106,mti/imu_base_body,0.9915934524295316,0.12678115857155015,0.02258748468638734,0.012600335935193566,0.017453292519943295,0.0,0.0,0.0,0.017453292519943295,0.0,0.0,0.0,0.15707963267948966,0.00033913302468135953,0.0024713969323784113,0.07884944975376129,0.0004363323129985824,0.0,0.0,0.0,0.0004363323129985824,0.0,0.0,0.0,0.0004363323129985824,-0.2624252438545227,-0.23710331320762634,9.809550285339355,0.0004,0.0,0.0,0.0,0.0004,0.0,0.0,0.0,0.0004
2025/05/07 10:32:33.348335136,1746606753,347901865,mti/imu_base_body,0.9916549213453318,0.12629781497613113,0.022581399353742967,0.012627719788825167,0.017453292519943295,0.0,0.0,0.0,0.017453292519943295,0.0,0.0,0.0,0.15707963267948966,0.0032072311732918024,0.0022436645813286304,0.0859539657831192,0.0004363323129985824,0.0,0.0,0.0,0.0004363323129985824,0.0,0.0,0.0,0.0004363323129985824,-0.25354820489883423,-0.24143800139427185,9.808940887451172,0.0004,0.0,0.0,0.0,0.0004,0.0,0.0,0.0,0.0004
2025/05/07 10:32:33.398360896,1746606753,397963732,mti/imu_base_body,0.9917099078055785,0.12585680345419192,0.022620630971937766,0.01264242219573022,0.017453292519943295,0.0,0.0,0.0,0.017453292519943295,0.0,0.0,0.0,0.15707963267948966,0.0021157213486731052,0.009857635013759136,0.08105187118053436,0.0004363323129985824,0.0,0.0,0.0,0.0004363323129985824,0.0,0.0,0.0,0.0004363323129985824,-0.253872275352478,-0.23953157663345337,9.797887802124023,0.0004,0.0,0.0,0.0,0.0004,0.0,0.0,0.0,0.0004
2025/05/07 10:32:33.450774608,1746606753,448166177,mti/imu_base_body,0.9917639786342791,0.12542881215716467,0.02262686718182751,0.012643126428363408,0.017453292519943295,0.0,0.0,0.0,0.017453292519943295,0.0,0.0,0.0,0.15707963267948966,0.010120626538991928,0.0077005550265312195,0.078056700527668,0.0004363323129985824,0.0,0.0,0.0,0.0004363323129985824,0.0,0.0,0.0,0.0004363323129985824,-0.2591733932495117,-0.24410179257392883,9.786147117614746,0.0004,0.0,0.0,0.0,0.0004,0.0,0.0,0.0,0.0004
2025/05/07 10:32:33.498450332,1746606753,498084926,mti/imu_base_body,0.9918203761465683,0.1249786512374717,0.02264690063099279,0.01264104770784658,0.017453292519943295,0.0,0.0,0.0,0.017453292519943295,0.0,0.0,0.0,0.15707963267948966,0.0044196792878210545,0.004694776609539986,0.08192060142755508,0.0004363323129985824,0.0,0.0,0.0,0.0004363323129985824,0.0,0.0,0.0,0.0004363323129985824,-0.2593505084514618,-0.236953467130661,9.810983657836914,0.0004,0.0,0.0,0.0,0.0004,0.0,0.0,0.0,0.0004
2025/05/07 10:32:33.549086273,1746606753,548298615,mti/imu_base_body,0.9918779841361098,0.12451605517265762,0.02266049106729719,0.012661703476056729,0.017453292519943295,0.0,0.0,0.0,0.017453292519943295,0.0,0.0,0.0,0.15707963267948966,0.005402190610766411,0.002448638202622533,0.08051513880491257,0.0004363323129985824,0.0,0.0,0.0,0.0004363323129985824,0.0,0.0,0.0,0.0004363323129985824,-0.2608420252799988,-0.228323295712471,9.821069717407227,0.0004,0.0,0.0,0.0,0.0004,0.0,0.0,0.0,0.0004
2025/05/07 10:32:33.598081917,1746606753,597789816,mti/imu_base_body,0.9919313257502904,0.12409025566443593,0.022645964824649978,0.012689118234414237,0.017453292519943295,0.0,0.0,0.0,0.017453292519943295,0.0,0.0,0.0,0.15707963267948966,0.006742498837411404,0.002232959261164069,0.08101204037666321,0.0004363323129985824,0.0,0.0,0.0,0.0004363323129985824,0.0,0.0,0.0,0.0004363323129985824,-0.24829353392124176,-0.22956582903862,9.797414779663086,0.0004,0.0,0.0,0.0,0.0004,0.0,0.0,0.0,0.0004
2025/05/07 10:32:33.650600623,1746606753,648279061,mti/imu_base_body,0.9919818576568536,0.12367971658718535,0.022685328508215107,0.012676657881535042,0.017453292519943295,0.0,0.0,0.0,0.017453292519943295,0.0,0.0,0.0,0.15707963267948966,0.004411614034324884,0.01223169919103384,0.07404075562953949,0.0004363323129985824,0.0,0.0,0.0,0.0004363323129985824,0.0,0.0,0.0,0.0004363323129985824,-0.2735583186149597,-0.23110543191432953,9.79371166229248,0.0004,0.0,0.0,0.0,0.0004,0.0,0.0,0.0,0.0004
2025/05/07 10:32:33.698300182,1746606753,697928345,mti/imu_base_body,0.9920361172000507,0.12323442680270641,0.022712383057532762,0.012718721520004545,0.017453292519943295,0.0,0.0,0.0,0.017453292519943295,0.0,0.0,0.0,0.15707963267948966,-0.0032815388403832912,0.004252826329320669,0.08116692304611206,0.0004363323129985824,0.0,0.0,0.0,0.0004363323129985824,0.0,0.0,0.0,0.0004363323129985824,-0.26781609654426575,-0.22175242006778717,9.79167366027832,0.0004,0.0,0.0,0.0,0.0004,0.0,0.0,0.0,0.0004
2025/05/07 10:32:33.749646495,1746606753,748102203,mti/imu_base_body,0.9920878188003908,0.12281369902515271,0.02270075364630501,0.012776185014772363,0.017453292519943295,0.0,0.0,0.0,0.017453292519943295,0.0,0.0,0.0,0.15707963267948966,-0.0009671321604400873,0.0027220838237553835,0.07564877718687057,0.0004363323129985824,0.0,0.0,0.0,0.0004363323129985824,0.0,0.0,0.0,0.0004363323129985824,-0.2669796347618103,-0.21532166004180908,9.81435489654541,0.0004,0.0,0.0,0.0,0.0004,0.0,0.0,0.0,0.0004
2025/05/07 10:32:33.798291131,1746606753,797920824,mti/imu_base_body,0.9921460330086895,0.1223489774883108,0.022671465548693797,0.012766422465188488,0.017453292519943295,0.0,0.0,0.0,0.017453292519943295,0.0,0.0,0.0,0.15707963267948966,0.011164660565555096,-0.0035289176739752293,0.08888829499483109,0.0004363323129985824,0.0,0.0,0.0,0.0004363323129985824,0.0,0.0,0.0,0.0004363323129985824,-0.26648181676864624,-0.2314022332429886,9.806092262268066,0.0004,0.0,0.0,0.0,0.0004,0.0,0.0,0.0,0.0004
2025/05/07 10:32:33.850269989,1746606753,847991035,mti/imu_base_body,0.9922028698998402,0.12189119459638387,0.022641008625442244,0.012782267827332926,0.017453292519943295,0.0,0.0,0.0,0.017453292519943295,0.0,0.0,0.0,0.15707963267948966,0.000523969647474587,-0.005347171798348427,0.07552360743284225,0.0004363323129985824,0.0,0.0,0.0,0.0004363323129985824,0.0,0.0,0.0,0.0004363323129985824,-0.2430904358625412,-0.24257460236549377,9.798255920410156,0.0004,0.0,0.0,0.0,0.0004,0.0,0.0,0.0,0.0004
2025/05/07 10:32:33.898415718,1746606753,897965133,mti/imu_base_body,0.9922500595234742,0.12150619175970595,0.022630930014008198,0.012802567961797245,0.017453292519943295,0.0,0.0,0.0,0.017453292519943295,0.0,0.0,0.0,0.15707963267948966,0.007379529532045126,0.0014470990281552076,0.07005608826875687,0.0004363323129985824,0.0,0.0,0.0,0.0004363323129985824,0.0,0.0,0.0,0.0004363323129985824,-0.25143787264823914,-0.2269882708787918,9.804500579833984,0.0004,0.0,0.0,0.0,0.0004,0.0,0.0,0.0,0.0004
2025/05/07 10:32:33.948240049,1746606753,947874293,mti/imu_base_body,0.9923023915262406,0.12107865973494797,0.02261626530646254,0.012822888585645259,0.017453292519943295,0.0,0.0,0.0,0.017453292519943295,0.0,0.0,0.0,0.15707963267948966,0.004911044612526894,0.0039521767757833,0.07669929414987564,0.0004363323129985824,0.0,0.0,0.0,0.0004363323129985824,0.0,0.0,0.0,0.0004363323129985824,-0.25132524967193604,-0.2252621054649353,9.80101203918457,0.0004,0.0,0.0,0.0,0.0004,0.0,0.0,0.0,0.0004
2025/05/07 10:32:33.998157572,1746606753,997763657,mti/imu_base_body,0.9923492431829407,0.12068443935952844,0.02264985824295597,0.012854165561997574,0.017453292519943295,0.0,0.0,0.0,0.017453292519943295,0.0,0.0,0.0,0.15707963267948966,0.0015787450829520822,0.007801087573170662,0.0744292214512825,0.0004363323129985824,0.0,0.0,0.0,0.0004363323129985824,0.0,0.0,0.0,0.0004363323129985824,-0.25017064809799194,-0.23876090347766876,9.794042587280273,0.0004,0.0,0.0,0.0,0.0004,0.0,0.0,0.0,0.0004
2025/05/07 10:32:34.48259295,1746606754,47900641,mti/imu_base_body,0.9924039840936996,0.12023024984286707,0.02265280195893759,0.012879050472868149,0.017453292519943295,0.0,0.0,0.0,0.017453292519943295,0.0,0.0,0.0,0.15707963267948966,0.002610899042338133,0.004033409059047699,0.08162940293550491,0.0004363323129985824,0.0,0.0,0.0,0.0004363323129985824,0.0,0.0,0.0,0.0004363323129985824,-0.2528703212738037,-0.24288475513458252,9.788290977478027,0.0004,0.0,0.0,0.0,0.0004,0.0,0.0,0.0,0.0004
2025/05/07 10:32:34.98184850,1746606754,97782460,mti/imu_base_body,0.9924610801799209,0.1197600612140951,0.022630239371498093,0.01289978031167438,0.017453292519943295,0.0,0.0,0.0,0.017453292519943295,0.0,0.0,0.0,0.15707963267948966,0.0030868786852806807,0.0018718373030424118,0.09049875289201736,0.0004363323129985824,0.0,0.0,0.0,0.0004363323129985824,0.0,0.0,0.0,0.0004363323129985824,-0.24951043725013733,-0.23397542536258698,9.800530433654785,0.0004,0.0,0.0,0.0,0.0004,0.0,0.0,0.0,0.0004
2025/05/07 10:32:34.148292176,1746606754,147898790,mti/imu_base_body,0.9925181147506745,0.11928284067540162,0.022634185268856417,0.012926309194376477,0.017453292519943295,0.0,0.0,0.0,0.017453292519943295,0.0,0.0,0.0,0.15707963267948966,-0.00212326692417264,-0.0030104878824204206,0.08313211053609848,0.0004363323129985824,0.0,0.0,0.0,0.0004363323129985824,0.0,0.0,0.0,0.0004363323129985824,-0.24834735691547394,-0.24186107516288757,9.812906265258789,0.0004,0.0,0.0,0.0,0.0004,0.0,0.0,0.0,0.0004
2025/05/07 10:32:34.198212377,1746606754,197883959,mti/imu_base_body,0.9925698075766769,0.1188461293647261,0.02262318755685632,0.012998692510742538,0.017453292519943295,0.0,0.0,0.0,0.017453292519943295,0.0,0.0,0.0,0.15707963267948966,-0.0022410897072404623,0.003084886819124222,0.08022866398096085,0.0004363323129985824,0.0,0.0,0.0,0.0004363323129985824,0.0,0.0,0.0,0.0004363323129985824,-0.25137609243392944,-0.23778972029685974,9.792125701904297,0.0004,0.0,0.0,0.0,0.0004,0.0,0.0,0.0,0.0004
2025/05/07 10:32:34.248378846,1746606754,247964348,mti/imu_base_body,0.9926246076439581,0.11837041922537772,0.0226689012375437,0.013074902247004267,0.017453292519943295,0.0,0.0,0.0,0.017453292519943295,0.0,0.0,0.0,0.15707963267948966,-0.011094868183135986,0.011385945603251457,0.08545885235071182,0.0004363323129985824,0.0,0.0,0.0,0.0004363323129985824,0.0,0.0,0.0,0.0004363323129985824,-0.2608433663845062,-0.2377239316701889,9.786243438720703,0.0004,0.0,0.0,0.0,0.0004,0.0,0.0,0.0,0.0004
2025/05/07 10:32:34.298099941,1746606754,297752738,mti/imu_base_body,0.9926762393162101,0.1179259301846658,0.022691055425856935,0.013132969609665417,0.017453292519943295,0.0,0.0,0.0,0.017453292519943295,0.0,0.0,0.0,0.15707963267948966,0.0004956198972649872,0.0013120549265295267,0.08264822512865067,0.0004363323129985824,0.0,0.0,0.0,0.0004363323129985824,0.0,0.0,0.0,0.0004363323129985824,-0.25050413608551025,-0.22527487576007843,9.815053939819336,0.0004,0.0,0.0,0.0,0.0004,0.0,0.0,0.0,0.0004
2025/05/07 10:32:34.348670393,1746606754,348049396,mti/imu_base_body,0.9927291180141777,0.11748165290969825,0.022682102821881232,0.013133228391204232,0.017453292519943295,0.0,0.0,0.0,0.017453292519943295,0.0,0.0,0.0,0.15707963267948966,0.001621708390302956,0.002119868528097868,0.07795500755310059,0.0004363323129985824,0.0,0.0,0.0,0.0004363323129985824,0.0,0.0,0.0,0.0004363323129985824,-0.2446029633283615,-0.24239253997802734,9.805573463439941,0.0004,0.0,0.0,0.0,0.0004,0.0,0.0,0.0,0.0004
2025/05/07 10:32:34.398772814,1746606754,398160989,mti/imu_base_body,0.9927783848431561,0.11706346397285883,0.022668233937644854,0.013167200197370228,0.017453292519943295,0.0,0.0,0.0,0.017453292519943295,0.0,0.0,0.0,0.15707963267948966,0.0035771438851952553,0.00029965394060127437,0.07535122334957123,0.0004363323129985824,0.0,0.0,0.0,0.0004363323129985824,0.0,0.0,0.0,0.0004363323129985824,-0.2527954876422882,-0.23860298097133636,9.788541793823242,0.0004,0.0,0.0,0.0,0.0004,0.0,0.0,0.0,0.0004
2025/05/07 10:32:34.448357965,1746606754,447906446,mti/imu_base_body,0.9928283480342679,0.11663343023542877,0.022677591089773505,0.013200043690416908,0.017453292519943295,0.0,0.0,0.0,0.017453292519943295,0.0,0.0,0.0,0.15707963267948966,0.007202278822660446,0.009728752076625824,0.07762519270181656,0.0004363323129985824,0.0,0.0,0.0,0.0004363323129985824,0.0,0.0,0.0,0.0004363323129985824,-0.2655705213546753,-0.22947031259536743,9.794666290283203,0.0004,0.0,0.0,0.0,0.0004,0.0,0.0,0.0,0.0004
2025/05/07 10:32:34.498185002,1746606754,497801647,mti/imu_base_body,0.9928774609688676,0.11620705316271296,0.02272370994219732,0.013187164278797538,0.017453292519943295,0.0,0.0,0.0,0.017453292519943295,0.0,0.0,0.0,0.15707963267948966,0.00576322665438056,0.009070148691534996,0.0801195278763771,0.0004363323129985824,0.0,0.0,0.0,0.0004363323129985824,0.0,0.0,0.0,0.0004363323129985824,-0.2487976849079132,-0.22982728481292725,9.808331489562988,0.0004,0.0,0.0,0.0,0.0004,0.0,0.0,0.0,0.0004
2025/05/07 10:32:34.548113928,1746606754,547768262,mti/imu_base_body,0.9929307723980576,0.1157539920006701,0.02271953540534757,0.01316500178012955,0.017453292519943295,0.0,0.0,0.0,0.017453292519943295,0.0,0.0,0.0,0.15707963267948966,0.007514104247093201,0.002214699750766158,0.09002264589071274,0.0004363323129985824,0.0,0.0,0.0,0.0004363323129985824,0.0,0.0,0.0,0.0004363323129985824,-0.2631866931915283,-0.24325084686279297,9.80621337890625,0.0004,0.0,0.0,0.0,0.0004,0.0,0.0,0.0,0.0004
2025/05/07 10:32:34.598831431,1746606754,597962871,mti/imu_base_body,0.9929888515593515,0.1152584432688411,0.022686312105534828,0.013189510117284062,0.017453292519943295,0.0,0.0,0.0,0.017453292519943295,0.0,0.0,0.0,0.15707963267948966,0.005494697019457817,0.0006710232119075954,0.08201247453689575,0.0004363323129985824,0.0,0.0,0.0,0.0004363323129985824,0.0,0.0,0.0,0.0004363323129985824,-0.2529049515724182,-0.24761003255844116,9.789990425109863,0.0004,0.0,0.0,0.0,0.0004,0.0,0.0,0.0,0.0004
2025/05/07 10:32:34.648512152,1746606754,647964657,mti/imu_base_body,0.9930374659272172,0.11482836960656967,0.022717467977216257,0.01322699690224251,0.017453292519943295,0.0,0.0,0.0,0.017453292519943295,0.0,0.0,0.0,0.15707963267948966,0.001468890463002026,0.004330493044108152,0.07874777913093567,0.0004363323129985824,0.0,0.0,0.0,0.0004363323129985824,0.0,0.0,0.0,0.0004363323129985824,-0.24359680712223053,-0.24321973323822021,9.805560111999512,0.0004,0.0,0.0,0.0,0.0004,0.0,0.0,0.0,0.0004
2025/05/07 10:32:34.698326505,1746606754,697934254,mti/imu_base_body,0.9930832365782101,0.11442644517410178,0.02273249422294811,0.013247927331045184,0.017453292519943295,0.0,0.0,0.0,0.017453292519943295,0.0,0.0,0.0,0.15707963267948966,0.007131562568247318,0.0069829258136451244,0.07383608818054199,0.0004363323129985824,0.0,0.0,0.0,0.0004363323129985824,0.0,0.0,0.0,0.0004363323129985824,-0.2658153176307678,-0.22403188049793243,9.817351341247559,0.0004,0.0,0.0,0.0,0.0004,0.0,0.0,0.0,0.0004
2025/05/07 10:32:34.748223710,1746606754,747850238,mti/imu_base_body,0.9931339370861557,0.11398588465886406,0.022731688506172514,0.013246563476850215,0.017453292519943295,0.0,0.0,0.0,0.017453292519943295,0.0,0.0,0.0,0.15707963267948966,0.006789821665734053,0.005010874010622501,0.08186519145965576,0.0004363323129985824,0.0,0.0,0.0,0.0004363323129985824,0.0,0.0,0.0,0.0004363323129985824,-0.2574712336063385,-0.2298278957605362,9.806302070617676,0.0004,0.0,0.0,0.0,0.0004,0.0,0.0,0.0,0.0004
2025/05/07 10:32:34.798114301,1746606754,797765002,mti/imu_base_body,0.9931826209319197,0.11355813363026868,0.022736888160320597,0.013261435895019078,0.017453292519943295,0.0,0.0,0.0,0.017453292519943295,0.0,0.0,0.0,0.15707963267948966,0.001700300257652998,0.00043681528768502176,0.07880406081676483,0.0004363323129985824,0.0,0.0,0.0,0.0004363323129985824,0.0,0.0,0.0,0.0004363323129985824,-0.2454109936952591,-0.24459294974803925,9.798964500427246,0.0004,0.0,0.0,0.0,0.0004,0.0,0.0,0.0,0.0004
2025/05/07 10:32:34.849731865,1746606754,848151546,mti/imu_base_body,0.9932362290719079,0.11308849098537149,0.022727588278841485,0.013275661817598601,0.017453292519943295,0.0,0.0,0.0,0.017453292519943295,0.0,0.0,0.0,0.15707963267948966,0.0045999884605407715,0.0024648900143802166,0.08404769748449326,0.0004363323129985824,0.0,0.0,0.0,0.0004363323129985824,0.0,0.0,0.0,0.0004363323129985824,-0.25648656487464905,-0.25037363171577454,9.813633918762207,0.0004,0.0,0.0,0.0,0.0004,0.0,0.0,0.0,0.0004
2025/05/07 10:32:34.898201010,1746606754,897801435,mti/imu_base_body,0.9932864300062567,0.11265040777200297,0.022711412280709678,0.013271975981087397,0.017453292519943295,0.0,0.0,0.0,0.017453292519943295,0.0,0.0,0.0,0.15707963267948966,0.011055251583456993,-0.0016417891019955277,0.07508128881454468,0.0004363323129985824,0.0,0.0,0.0,0.0004363323129985824,0.0,0.0,0.0,0.0004363323129985824,-0.2510802447795868,-0.23156215250492096,9.822281837463379,0.0004,0.0,0.0,0.0,0.0004,0.0,0.0,0.0,0.0004
2025/05/07 10:32:34.948241140,1746606754,947838166,mti/imu_base_body,0.9933350596717179,0.11222307170579465,0.022698046257890164,0.013275545185625941,0.017453292519943295,0.0,0.0,0.0,0.017453292519943295,0.0,0.0,0.0,0.15707963267948966,0.002749865176156163,0.005558446049690247,0.08293496072292328,0.0004363323129985824,0.0,0.0,0.0,0.0004363323129985824,0.0,0.0,0.0,0.0004363323129985824,-0.24188567698001862,-0.2353084683418274,9.802453994750977,0.0004,0.0,0.0,0.0,0.0004,0.0,0.0,0.0,0.0004
2025/05/07 10:32:34.998180929,1746606754,997793366,mti/imu_base_body,0.993389191325848,0.11173072742509638,0.022738767003276407,0.013308177230827369,0.017453292519943295,0.0,0.0,0.0,0.017453292519943295,0.0,0.0,0.0,0.15707963267948966,0.0015749663580209017,0.008017213083803654,0.0875883549451828,0.0004363323129985824,0.0,0.0,0.0,0.0004363323129985824,0.0,0.0,0.0,0.0004363323129985824,-0.24672164022922516,-0.2538379430770874,9.798956871032715,0.0004,0.0,0.0,0.0,0.0004,0.0,0.0,0.0,0.0004
2025/05/07 10:32:35.48544488,1746606755,48088982,mti/imu_base_body,0.9934325750247851,0.111348494015164,0.022692994597115775,0.013351395297683361,0.017453292519943295,0.0,0.0,0.0,0.017453292519943295,0.0,0.0,0.0,0.15707963267948966,0.0026113486383110285,-0.007949558086693287,0.06970502436161041,0.0004363323129985824,0.0,0.0,0.0,0.0004363323129985824,0.0,0.0,0.0,0.0004363323129985824,-0.257752001285553,-0.2427220344543457,9.788436889648438,0.0004,0.0,0.0,0.0,0.0004,0.0,0.0,0.0,0.0004
