time,header_stamp_secs,header_stamp_nsecs,header_frame_id,orientation_x,orientation_y,orientation_z,orientation_w,orientation_covariance_0,orientation_covariance_1,orientation_covariance_2,orientation_covariance_3,orientation_covariance_4,orientation_covariance_5,orientation_covariance_6,orientation_covariance_7,orientation_covariance_8,angular_velocity_x,angular_velocity_y,angular_velocity_z,angular_velocity_covariance_0,angular_velocity_covariance_1,angular_velocity_covariance_2,angular_velocity_covariance_3,angular_velocity_covariance_4,angular_velocity_covariance_5,angular_velocity_covariance_6,angular_velocity_covariance_7,angular_velocity_covariance_8,linear_acceleration_x,linear_acceleration_y,linear_acceleration_z,linear_acceleration_covariance_0,linear_acceleration_covariance_1,linear_acceleration_covariance_2,linear_acceleration_covariance_3,linear_acceleration_covariance_4,linear_acceleration_covariance_5,linear_acceleration_covariance_6,linear_acceleration_covariance_7,linear_acceleration_covariance_8
2025/05/25 18:47:30.989114920,1748191650,966372141,mA1/imu,0.7877108831187065,0.6160443179702616,0.00022967795536788985,0.0009540235527336684,0.0,0.0,0.0,0.0,0.0,0.0,0.0,0.0,0.0,3.772280797558072e-06,2.06699667241422e-06,-4.2791079581465005e-05,0.0,0.0,0.0,0.0,0.0,0.0,0.0,0.0,0.0,0.007079675651678583,-0.5337244484900098,9.808708921279718,0.0,0.0,0.0,0.0,0.0,0.0,0.0,0.0,0.0
2025/05/25 18:47:31.30442950,1748191651,18389263,mA1/imu,0.7877101930990906,0.6160451450024129,0.00025310280328695714,0.0009833339821443935,0.0,0.0,0.0,0.0,0.0,0.0,0.0,0.0,0.0,-0.0015200407058230897,2.4791991736866173e-05,-4.218855184699455e-05,0.0,0.0,0.0,0.0,0.0,0.0,0.0,0.0,0.0,0.008014133287299748,0.6018876755947361,9.81098075975674,0.0,0.0,0.0,0.0,0.0,0.0,0.0,0.0,0.0
2025/05/25 18:47:31.71645517,1748191651,71426676,mA1/imu,0.7877095107554329,0.6160459586085432,0.00027755030027954016,0.0010131699504844498,0.0,0.0,0.0,0.0,0.0,0.0,0.0,0.0,0.0,-0.0027057728895520817,4.345384617734969e-05,-4.1553553452118634e-05,0.0,0.0,0.0,0.0,0.0,0.0,0.0,0.0,0.0,0.00807613560685904,0.5026107863220072,9.810393443830163,0.0,0.0,0.0,0.0,0.0,0.0,0.0,0.0,0.0
2025/05/25 18:47:31.115431513,1748191651,114804790,mA1/imu,0.7877088550749197,0.616046762437433,0.0002922910483925772,0.0010298994413416188,0.0,0.0,0.0,0.0,0.0,0.0,0.0,0.0,0.0,-0.0006489160994895266,5.8018943225103775e-05,-4.07346691599983e-05,0.0,0.0,0.0,0.0,0.0,0.0,0.0,0.0,0.0,0.007169602881972123,-0.6334342423709506,9.80920737344825,0.0,0.0,0.0,0.0,0.0,0.0,0.0,0.0,0.0
2025/05/25 18:47:31.168835904,1748191651,167529169,mA1/imu,0.787708227673396,0.6160475555767939,0.0002975040712107984,0.0010338350071052878,0.0,0.0,0.0,0.0,0.0,0.0,0.0,0.0,0.0,0.0011705308224796926,7.134219451579515e-05,-3.9938641591334154e-05,0.0,0.0,0.0,0.0,0.0,0.0,0.0,0.0,0.0,0.00713197624501459,-0.5341752890873118,9.808868077934719,0.0,0.0,0.0,0.0,0.0,0.0,0.0,0.0,0.0
2025/05/25 18:47:31.217673873,1748191651,217298620,mA1/imu,0.7877076094390987,0.6160483354455043,0.0003035521543662214,0.0010384038969562083,0.0,0.0,0.0,0.0,0.0,0.0,0.0,0.0,0.0,-0.0003312387641589597,8.162673996755933e-05,-3.937777761156256e-05,0.0,0.0,0.0,0.0,0.0,0.0,0.0,0.0,0.0,0.00806914786952296,0.5921982747924129,9.810897652958388,0.0,0.0,0.0,0.0,0.0,0.0,0.0,0.0,0.0
2025/05/25 18:47:31.271863042,1748191651,270142142,mA1/imu,0.7877070039775941,0.6160491071339153,0.0003065144192482045,0.0010390058031704169,0.0,0.0,0.0,0.0,0.0,0.0,0.0,0.0,0.0,-0.0006220160089077647,7.774030261622683e-05,-3.8982241716673634e-05,0.0,0.0,0.0,0.0,0.0,0.0,0.0,0.0,0.0,0.008034577581703969,0.24388769395890847,9.810242819464618,0.0,0.0,0.0,0.0,0.0,0.0,0.0,0.0,0.0
2025/05/25 18:47:31.320579923,1748191651,319987434,mA1/imu,0.7877064225595459,0.6160498746324784,0.000299361897616388,0.0010267454427772928,0.0,0.0,0.0,0.0,0.0,0.0,0.0,0.0,0.0,0.0014378934050322987,6.583912632224893e-05,-3.847962989540922e-05,0.0,0.0,0.0,0.0,0.0,0.0,0.0,0.0,0.0,0.007810579843114797,-0.5931062778078634,9.808698084460312,0.0,0.0,0.0,0.0,0.0,0.0,0.0,0.0,0.0
2025/05/25 18:47:31.372074310,1748191651,371636253,mA1/imu,0.7877058589531861,0.6160506358520842,0.00028546872016548973,0.0010061534055253246,0.0,0.0,0.0,0.0,0.0,0.0,0.0,0.0,0.0,0.00246554696005971,6.25991186543742e-05,-3.800159544773476e-05,0.0,0.0,0.0,0.0,0.0,0.0,0.0,0.0,0.0,0.007370211383963457,-0.5444594982407719,9.80874311892676,0.0,0.0,0.0,0.0,0.0,0.0,0.0,0.0,0.0
2025/05/25 18:47:31.421766317,1748191651,421537775,mA1/imu,0.7877052998909184,0.6160513890235755,0.00027194851511718306,0.000986230138859052,0.0,0.0,0.0,0.0,0.0,0.0,0.0,0.0,0.0,0.0008972870065015084,5.789016068502983e-05,-3.7704061759721215e-05,0.0,0.0,0.0,0.0,0.0,0.0,0.0,0.0,0.0,0.008057115674693367,-0.04421241456401881,9.81013749585097,0.0,0.0,0.0,0.0,0.0,0.0,0.0,0.0,0.0
2025/05/25 18:47:31.479479427,1748191651,476102910,mA1/imu,0.7877047536921374,0.6160521371808843,0.0002529420136545732,0.0009598468688999924,0.0,0.0,0.0,0.0,0.0,0.0,0.0,0.0,0.0,-0.00042431359777647974,5.1346109817991316e-05,-3.739449343306308e-05,0.0,0.0,0.0,0.0,0.0,0.0,0.0,0.0,0.0,0.008500923098628991,0.45086704855521587,9.810659073410527,0.0,0.0,0.0,0.0,0.0,0.0,0.0,0.0,0.0
2025/05/25 18:47:31.524430991,1748191651,523875822,mA1/imu,0.7877042264266776,0.6160528804207501,0.00022440318730665654,0.000921866615024575,0.0,0.0,0.0,0.0,0.0,0.0,0.0,0.0,0.0,0.001251720372404179,4.213126535601096e-05,-3.6975714889175646e-05,0.0,0.0,0.0,0.0,0.0,0.0,0.0,0.0,0.0,0.007198274161345246,-0.043608332646157044,9.810593718955817,0.0,0.0,0.0,0.0,0.0,0.0,0.0,0.0,0.0
2025/05/25 18:47:31.576324162,1748191651,573412823,mA1/imu,0.787703705567028,0.616053614505777,0.00019420135673570062,0.0008823696354897851,0.0,0.0,0.0,0.0,0.0,0.0,0.0,0.0,0.0,0.0026895360499388657,1.7902629636409372e-05,-3.6529137151052094e-05,0.0,0.0,0.0,0.0,0.0,0.0,0.0,0.0,0.0,0.007261077757933274,0.10751703412254142,9.811096440382796,0.0,0.0,0.0,0.0,0.0,0.0,0.0,0.0,0.0
2025/05/25 18:47:31.618240234,1748191651,617663011,mA1/imu,0.7877031842209925,0.6160543360060371,0.00016812319349961233,0.0008487584237636797,0.0,0.0,0.0,0.0,0.0,0.0,0.0,0.0,0.0,0.0031798162338567203,-1.0329041684334817e-05,-3.600297321965373e-05,0.0,0.0,0.0,0.0,0.0,0.0,0.0,0.0,0.0,0.007920047251951372,-0.06900275731748229,9.810174239022311,0.0,0.0,0.0,0.0,0.0,0.0,0.0,0.0,0.0
2025/05/25 18:47:31.668950512,1748191651,668644607,mA1/imu,0.7877026626756283,0.6160550474092148,0.00014563246923847043,0.0008201015421216832,0.0,0.0,0.0,0.0,0.0,0.0,0.0,0.0,0.0,0.0018758938323730997,-1.0183462945892029e-05,-3.562665389060411e-05,0.0,0.0,0.0,0.0,0.0,0.0,0.0,0.0,0.0,0.007726005087329294,-0.003981965800351296,9.809236732430305,0.0,0.0,0.0,0.0,0.0,0.0,0.0,0.0,0.0
2025/05/25 18:47:31.719550260,1748191651,719252025,mA1/imu,0.7877021493890358,0.6160557467282829,0.00012249640777157322,0.0007910534628340534,0.0,0.0,0.0,0.0,0.0,0.0,0.0,0.0,0.0,0.0005857712636335608,-1.3718671046641912e-05,-3.504456606273983e-05,0.0,0.0,0.0,0.0,0.0,0.0,0.0,0.0,0.0,0.007541399796992654,-0.08060322714649519,9.809009626326176,0.0,0.0,0.0,0.0,0.0,0.0,0.0,0.0,0.0
2025/05/25 18:47:31.774688845,1748191651,774539423,mA1/imu,0.7877016448465841,0.61605643125626,9.948350619156635e-05,0.0007630968609084844,0.0,0.0,0.0,0.0,0.0,0.0,0.0,0.0,0.0,0.0004301173601756251,-4.433531428464278e-05,-3.431004914633403e-05,0.0,0.0,0.0,0.0,0.0,0.0,0.0,0.0,0.0,0.008310388069382543,-0.07867552027300938,9.810365490629051,0.0,0.0,0.0,0.0,0.0,0.0,0.0,0.0,0.0
2025/05/25 18:47:31.814290180,1748191651,814061148,mA1/imu,0.7877011464438516,0.6160570976427113,8.089169206870408e-05,0.0007414793422469664,0.0,0.0,0.0,0.0,0.0,0.0,0.0,0.0,0.0,0.00015847936864500105,-4.936957047792515e-05,-3.3441701969812e-05,0.0,0.0,0.0,0.0,0.0,0.0,0.0,0.0,0.0,0.007474551319283563,-0.07465113771552116,9.811068862211208,0.0,0.0,0.0,0.0,0.0,0.0,0.0,0.0,0.0
2025/05/25 18:47:31.865647824,1748191651,865065893,mA1/imu,0.7877006626890203,0.6160577450437497,6.135975669679331e-05,0.0007190312016546669,0.0,0.0,0.0,0.0,0.0,0.0,0.0,0.0,0.0,9.142991923061804e-05,-5.2423518198649494e-05,-3.238919250665913e-05,0.0,0.0,0.0,0.0,0.0,0.0,0.0,0.0,0.0,0.007676615591006761,0.5701921308479688,9.811415416307842,0.0,0.0,0.0,0.0,0.0,0.0,0.0,0.0,0.0
2025/05/25 18:47:31.915252235,1748191651,914886257,mA1/imu,0.787700181226596,0.6160583701833148,5.351118985908002e-05,0.0007114486756354095,0.0,0.0,0.0,0.0,0.0,0.0,0.0,0.0,0.0,0.0011512183679741289,-7.404478607519393e-05,-3.14032257836208e-05,0.0,0.0,0.0,0.0,0.0,0.0,0.0,0.0,0.0,0.007953413015310428,-0.09332864132653751,9.809809879669084,0.0,0.0,0.0,0.0,0.0,0.0,0.0,0.0,0.0
2025/05/25 18:47:31.966916194,1748191651,966739957,mA1/imu,0.7876997061387315,0.6160589757839879,5.25377493524132e-05,0.0007131232185108598,0.0,0.0,0.0,0.0,0.0,0.0,0.0,0.0,0.0,0.0005921024917548331,-8.32172762355647e-05,-3.0429116383519642e-05,0.0,0.0,0.0,0.0,0.0,0.0,0.0,0.0,0.0,0.007632527562733225,-0.3689851124172281,9.808903199154054,0.0,0.0,0.0,0.0,0.0,0.0,0.0,0.0,0.0
2025/05/25 18:47:32.16696464,1748191652,16415411,mA1/imu,0.7876992373346068,0.6160595619034982,5.8596545538176705e-05,0.0007240553800900293,0.0,0.0,0.0,0.0,0.0,0.0,0.0,0.0,0.0,-0.0015292729903101756,-7.244957487944507e-05,-2.9505286679772477e-05,0.0,0.0,0.0,0.0,0.0,0.0,0.0,0.0,0.0,0.007535158847568231,-0.09134858708982024,9.808978016136615,0.0,0.0,0.0,0.0,0.0,0.0,0.0,0.0,0.0
2025/05/25 18:47:32.68889758,1748191652,68664884,mA1/imu,0.787698777266235,0.616060134349572,6.613495127306859e-05,0.0007367391897396501,0.0,0.0,0.0,0.0,0.0,0.0,0.0,0.0,0.0,-0.0018467429567468401,-6.691122716382814e-05,-2.9063965748552664e-05,0.0,0.0,0.0,0.0,0.0,0.0,0.0,0.0,0.0,0.00837841698383326,-0.11470604906404917,9.810449176725118,0.0,0.0,0.0,0.0,0.0,0.0,0.0,0.0,0.0
2025/05/25 18:47:32.118595153,1748191652,118467929,mA1/imu,0.787698325523048,0.616060693168427,7.55425039432199e-05,0.0007513949385980472,0.0,0.0,0.0,0.0,0.0,0.0,0.0,0.0,0.0,-0.0016581303747976945,-4.698791410412083e-05,-2.8210451176082113e-05,0.0,0.0,0.0,0.0,0.0,0.0,0.0,0.0,0.0,0.0072080858429647635,-0.054538754207492685,9.810302985507516,0.0,0.0,0.0,0.0,0.0,0.0,0.0,0.0,0.0
2025/05/25 18:47:32.171635727,1748191652,169475344,mA1/imu,0.787697884039877,0.6160612317089368,8.956171600241338e-05,0.0007708716284706668,0.0,0.0,0.0,0.0,0.0,0.0,0.0,0.0,0.0,-0.0021812569916864993,-1.883045898612123e-05,-2.7088924169013183e-05,0.0,0.0,0.0,0.0,0.0,0.0,0.0,0.0,0.0,0.007775325645191561,0.5538865383878965,9.811255007036893,0.0,0.0,0.0,0.0,0.0,0.0,0.0,0.0,0.0
2025/05/25 18:47:32.219656298,1748191652,219440006,mA1/imu,0.7876974493643116,0.6160617517473002,0.00010859631655286316,0.0007965587521104326,0.0,0.0,0.0,0.0,0.0,0.0,0.0,0.0,0.0,0.0012633020246769658,-4.1055888643603424e-05,-2.6267415457067286e-05,0.0,0.0,0.0,0.0,0.0,0.0,0.0,0.0,0.0,0.007283029883045121,-0.4524127947022823,9.80889743255036,0.0,0.0,0.0,0.0,0.0,0.0,0.0,0.0,0.0
2025/05/25 18:47:32.270653105,1748191652,270484637,mA1/imu,0.7876969891958389,0.6160622711102166,0.00014519478064896373,0.0008427602315731423,0.0,0.0,0.0,0.0,0.0,0.0,0.0,0.0,0.0,-0.0016705240327065142,4.792872907439703e-06,-2.6512454474914445e-05,0.0,0.0,0.0,0.0,0.0,0.0,0.0,0.0,0.0,0.008301612832291794,-0.646652540392303,9.810434768637306,0.0,0.0,0.0,0.0,0.0,0.0,0.0,0.0,0.0
2025/05/25 18:47:32.321152786,1748191652,320511962,mA1/imu,0.7876965547590585,0.6160627872740474,0.00016503301636114603,0.0008674796508380085,0.0,0.0,0.0,0.0,0.0,0.0,0.0,0.0,0.0,-0.0023518958699871965,4.019879607214518e-05,-2.6338939366054344e-05,0.0,0.0,0.0,0.0,0.0,0.0,0.0,0.0,0.0,0.0072020685847573075,-0.057242676882495985,9.807912595625366,0.0,0.0,0.0,0.0,0.0,0.0,0.0,0.0,0.0
2025/05/25 18:47:32.372077044,1748191652,371523994,mA1/imu,0.7876961067228277,0.6160632912497833,0.00019810781183505414,0.0009085050792665341,0.0,0.0,0.0,0.0,0.0,0.0,0.0,0.0,0.0,-0.0019783264151976214,2.6962599229401647e-05,-2.5888910263771307e-05,0.0,0.0,0.0,0.0,0.0,0.0,0.0,0.0,0.0,0.007885336481216677,-0.034529627567575015,9.808992948798066,0.0,0.0,0.0,0.0,0.0,0.0,0.0,0.0,0.0
2025/05/25 18:47:32.422636548,1748191652,422452025,mA1/imu,0.7876956863456006,0.616063785537208,0.00021867965499972926,0.0009327600476689605,0.0,0.0,0.0,0.0,0.0,0.0,0.0,0.0,0.0,-0.0022033331296245563,7.202392557444894e-05,-2.5146906065679617e-05,0.0,0.0,0.0,0.0,0.0,0.0,0.0,0.0,0.0,0.007268447182507543,-0.05576621480077738,9.810537106835426,0.0,0.0,0.0,0.0,0.0,0.0,0.0,0.0,0.0
2025/05/25 18:47:32.476440973,1748191652,474724848,mA1/imu,0.787695268648917,0.6160642702142184,0.00024151706766035595,0.0009593659568946969,0.0,0.0,0.0,0.0,0.0,0.0,0.0,0.0,0.0,-0.0016040361722274622,7.136201067331473e-05,-2.503749167777122e-05,0.0,0.0,0.0,0.0,0.0,0.0,0.0,0.0,0.0,0.007467773145958116,0.6016501968890398,9.811458956587677,0.0,0.0,0.0,0.0,0.0,0.0,0.0,0.0,0.0
2025/05/25 18:47:32.515740696,1748191652,515523872,mA1/imu,0.7876948507385035,0.6160647589528931,0.00026243205346307023,0.0009828661036525104,0.0,0.0,0.0,0.0,0.0,0.0,0.0,0.0,0.0,-0.0003335849686242312,7.15465371286417e-05,-2.4935401873706565e-05,0.0,0.0,0.0,0.0,0.0,0.0,0.0,0.0,0.0,0.008100907798092196,0.040618286423206876,9.810349256557537,0.0,0.0,0.0,0.0,0.0,0.0,0.0,0.0,0.0
2025/05/25 18:47:32.567262639,1748191652,567093402,mA1/imu,0.7876944388891232,0.6160652410264311,0.0002822745117045604,0.0010050190521298428,0.0,0.0,0.0,0.0,0.0,0.0,0.0,0.0,0.0,-0.000648485649598323,7.608433288318141e-05,-2.4656516316664345e-05,0.0,0.0,0.0,0.0,0.0,0.0,0.0,0.0,0.0,0.007690827583562082,0.0022079010671198183,9.809190933925837,0.0,0.0,0.0,0.0,0.0,0.0,0.0,0.0,0.0
2025/05/25 18:47:32.617185426,1748191652,617002855,mA1/imu,0.7876940364943077,0.616065720597669,0.0002978106333586098,0.0010218045831055821,0.0,0.0,0.0,0.0,0.0,0.0,0.0,0.0,0.0,-0.0012901411408312816,7.435069901357435e-05,-2.454348131905268e-05,0.0,0.0,0.0,0.0,0.0,0.0,0.0,0.0,0.0,0.007704808816910938,-0.06358325749999628,9.809477428229231,0.0,0.0,0.0,0.0,0.0,0.0,0.0,0.0,0.0
2025/05/25 18:47:32.668226118,1748191652,667988758,mA1/imu,0.7876936539202712,0.6160662015245091,0.0003024913940807411,0.0010253837580527655,0.0,0.0,0.0,0.0,0.0,0.0,0.0,0.0,0.0,-0.0008935903963409522,5.485033283470985e-05,-2.4397486003465842e-05,0.0,0.0,0.0,0.0,0.0,0.0,0.0,0.0,0.0,0.008173392864107835,0.001464420688842217,9.81011111662333,0.0,0.0,0.0,0.0,0.0,0.0,0.0,0.0,0.0
2025/05/25 18:47:32.717980596,1748191652,717823699,mA1/imu,0.7876932743340123,0.6160666859244325,0.000304365912276283,0.0010253898968711004,0.0,0.0,0.0,0.0,0.0,0.0,0.0,0.0,0.0,-0.001381281131903774,0.00011181131941324054,-2.5054622795435535e-05,0.0,0.0,0.0,0.0,0.0,0.0,0.0,0.0,0.0,0.003187506004313977,0.5122103042682058,9.810652719671518,0.0,0.0,0.0,0.0,0.0,0.0,0.0,0.0,0.0
2025/05/25 18:47:32.769520053,1748191652,769391249,mA1/imu,0.7876917870866408,0.616068619370073,0.00029306490786023886,0.0010094041144849799,0.0,0.0,0.0,0.0,0.0,0.0,0.0,0.0,0.0,0.0002692995940934934,2.899102790360999e-05,-0.00014408002537545533,0.0,0.0,0.0,0.0,0.0,0.0,0.0,0.0,0.0,0.00924287447154246,0.5993485020088397,9.811531350066582,0.0,0.0,0.0,0.0,0.0,0.0,0.0,0.0,0.0
2025/05/25 18:47:32.819515951,1748191652,819252006,mA1/imu,0.7876884556334143,0.6160728931952346,0.00028679632213504886,0.001002436915388467,0.0,0.0,0.0,0.0,0.0,0.0,0.0,0.0,0.0,0.001792497116543813,-6.0423883618883894e-05,-0.0002623951349138454,0.0,0.0,0.0,0.0,0.0,0.0,0.0,0.0,0.0,0.00907261633383283,-0.2706383527672446,9.808906637829555,0.0,0.0,0.0,0.0,0.0,0.0,0.0,0.0,0.0
2025/05/25 18:47:32.873009489,1748191652,870418949,mA1/imu,0.7876847829151041,0.6160776174652488,0.0002730343412479718,0.0009886731393971954,0.0,0.0,0.0,0.0,0.0,0.0,0.0,0.0,0.0,0.00124921575138765,-0.00012816531749201214,-0.0002235148994506488,0.0,0.0,0.0,0.0,0.0,0.0,0.0,0.0,0.0,0.009431396286285143,-0.00019837091312927685,9.80894724626803,0.0,0.0,0.0,0.0,0.0,0.0,0.0,0.0,0.0
2025/05/25 18:47:32.921116641,1748191652,920197172,mA1/imu,0.7876816665739532,0.6160816495617075,0.00024898851080165543,0.0009649980966596815,0.0,0.0,0.0,0.0,0.0,0.0,0.0,0.0,0.0,0.001402566713196579,-0.0001969747906507345,-0.00019143754574183354,0.0,0.0,0.0,0.0,0.0,0.0,0.0,0.0,0.0,0.009486754167807263,-0.008021911244965709,9.809387431840326,0.0,0.0,0.0,0.0,0.0,0.0,0.0,0.0,0.0
2025/05/25 18:47:32.973209540,1748191652,972885854,mA1/imu,0.7876790326555945,0.6160850558868347,0.00022649830918892224,0.0009455824547921013,0.0,0.0,0.0,0.0,0.0,0.0,0.0,0.0,0.0,0.0001183393284095101,-0.000258185722161093,-0.0001605923148604749,0.0,0.0,0.0,0.0,0.0,0.0,0.0,0.0,0.0,0.009525772083762788,0.4769187947560643,9.809581832744623,0.0,0.0,0.0,0.0,0.0,0.0,0.0,0.0,0.0
2025/05/25 18:47:33.24558990,1748191653,23650545,mA1/imu,0.7876769172652902,0.6160878197198982,0.00019320649960391804,0.0009138224552800742,0.0,0.0,0.0,0.0,0.0,0.0,0.0,0.0,0.0,0.001800972131259457,-0.00028457553176644736,-0.00012846411272946493,0.0,0.0,0.0,0.0,0.0,0.0,0.0,0.0,0.0,0.010400604938226397,-0.003817037904224746,9.811396252986423,0.0,0.0,0.0,0.0,0.0,0.0,0.0,0.0,0.0
2025/05/25 18:47:33.69341943,1748191653,67935019,mA1/imu,0.7876753400519481,0.6160898904864556,0.00016025376794801856,0.0008830816299626983,0.0,0.0,0.0,0.0,0.0,0.0,0.0,0.0,0.0,0.001987821525912519,-0.0002684501113298993,-8.637025501297332e-05,0.0,0.0,0.0,0.0,0.0,0.0,0.0,0.0,0.0,0.008214108288245559,0.4220539777255554,9.810289849201517,0.0,0.0,0.0,0.0,0.0,0.0,0.0,0.0,0.0
2025/05/25 18:47:33.119651262,1748191653,119427611,mA1/imu,0.7876742065753647,0.6160913878568179,0.0001294455802315715,0.0008540189524218692,0.0,0.0,0.0,0.0,0.0,0.0,0.0,0.0,0.0,0.002128213690827943,-0.0002432055561232023,-0.00010403132803902782,0.0,0.0,0.0,0.0,0.0,0.0,0.0,0.0,0.0,0.00838657002131437,0.01387008912173366,9.808053016521253,0.0,0.0,0.0,0.0,0.0,0.0,0.0,0.0,0.0
2025/05/25 18:47:33.172295350,1748191653,171134810,mA1/imu,0.7876714111442208,0.6160950084686111,9.844100859453936e-05,0.0008239632891463861,0.0,0.0,0.0,0.0,0.0,0.0,0.0,0.0,0.0,0.003814997836570033,-0.00022303845111784423,-0.00023129139206004053,0.0,0.0,0.0,0.0,0.0,0.0,0.0,0.0,0.0,0.007348531681128145,-0.48850087264748837,9.807454691859444,0.0,0.0,0.0,0.0,0.0,0.0,0.0,0.0,0.0
2025/05/25 18:47:33.221341380,1748191653,220972942,mA1/imu,0.7876667570866326,0.6161009782427534,8.308497688683372e-05,0.0008108550034428641,0.0,0.0,0.0,0.0,0.0,0.0,0.0,0.0,0.0,0.0005258043734771591,-0.00016315341427756804,-0.00035451427130189675,0.0,0.0,0.0,0.0,0.0,0.0,0.0,0.0,0.0,0.010564981893585715,-0.7039047839820382,9.810377354953829,0.0,0.0,0.0,0.0,0.0,0.0,0.0,0.0,0.0
2025/05/25 18:47:33.267598073,1748191653,267029584,mA1/imu,0.7876575618366753,0.6161127653132068,5.60671175545461e-05,0.0007890222402155518,0.0,0.0,0.0,0.0,0.0,0.0,0.0,0.0,0.0,-1.209583375636949e-05,-0.0003038857647060191,-0.0006911834431788293,0.0,0.0,0.0,0.0,0.0,0.0,0.0,0.0,0.0,0.009823971418383952,-0.07505791647521838,9.81007985754394,0.0,0.0,0.0,0.0,0.0,0.0,0.0,0.0,0.0
2025/05/25 18:47:33.317322520,1748191653,316701059,mA1/imu,0.7876459391106184,0.6161276465690119,3.483988244423747e-05,0.0007723484094835501,0.0,0.0,0.0,0.0,0.0,0.0,0.0,0.0,0.0,0.0008642415845803511,-0.00021885588989176743,-0.0008037018633052629,0.0,0.0,0.0,0.0,0.0,0.0,0.0,0.0,0.0,0.00964550323986321,-0.009135152766220414,9.81162754439372,0.0,0.0,0.0,0.0,0.0,0.0,0.0,0.0,0.0
2025/05/25 18:47:33.368656382,1748191653,368052916,mA1/imu,0.787629363890817,0.6161488408991362,1.9693908811133434e-05,0.0007685100831792725,0.0,0.0,0.0,0.0,0.0,0.0,0.0,0.0,0.0,0.0003259554162859468,-0.0004344064880206223,-0.0012074843803306105,0.0,0.0,0.0,0.0,0.0,0.0,0.0,0.0,0.0,0.009501401162462352,-0.017083338942882463,9.81296790362545,0.0,0.0,0.0,0.0,0.0,0.0,0.0,0.0,0.0
2025/05/25 18:47:33.420269093,1748191653,418743128,mA1/imu,0.7876098739745161,0.6161737519675836,1.0232351960336845e-05,0.0007705188748909188,0.0,0.0,0.0,0.0,0.0,0.0,0.0,0.0,0.0,0.0008377082432028691,-0.0002810452035539032,-0.001297040775916962,0.0,0.0,0.0,0.0,0.0,0.0,0.0,0.0,0.0,0.007372112017265075,0.04088923559186432,9.809819105880399,0.0,0.0,0.0,0.0,0.0,0.0,0.0,0.0,0.0
2025/05/25 18:47:33.471008057,1748191653,470773196,mA1/imu,0.7875890651639389,0.6162003405804187,1.0727876134115921e-05,0.0007775523657500383,0.0,0.0,0.0,0.0,0.0,0.0,0.0,0.0,0.0,0.0005040440931601616,-7.46096409252934e-05,-0.0013825967011042715,0.0,0.0,0.0,0.0,0.0,0.0,0.0,0.0,0.0,0.006506508066828247,0.04546526988860289,9.807966729831007,0.0,0.0,0.0,0.0,0.0,0.0,0.0,0.0,0.0
2025/05/25 18:47:33.522663359,1748191653,522063770,mA1/imu,0.7875669330916331,0.6162286079368464,2.4179445411034106e-05,0.0007925125929977285,0.0,0.0,0.0,0.0,0.0,0.0,0.0,0.0,0.0,-0.00035038912268933286,0.00011962417548749736,-0.001468884731135805,0.0,0.0,0.0,0.0,0.0,0.0,0.0,0.0,0.0,0.0077023087570766546,-0.3755690886864287,9.809337299249366,0.0,0.0,0.0,0.0,0.0,0.0,0.0,0.0,0.0
2025/05/25 18:47:33.573701000,1748191653,566603631,mA1/imu,0.7875399638149161,0.6162630494156763,3.8736310344148156e-05,0.000811060287805498,0.0,0.0,0.0,0.0,0.0,0.0,0.0,0.0,0.0,-0.0021803387667861263,-3.067283625479766e-05,-0.0018893186987705667,0.0,0.0,0.0,0.0,0.0,0.0,0.0,0.0,0.0,0.007229635276195792,0.46218877419246235,9.809575814666907,0.0,0.0,0.0,0.0,0.0,0.0,0.0,0.0,0.0
2025/05/25 18:47:33.615550521,1748191653,615326919,mA1/imu,0.787510251453885,0.6163009961262529,5.377088522155613e-05,0.0008265213361144301,0.0,0.0,0.0,0.0,0.0,0.0,0.0,0.0,0.0,-0.0011631204225783223,0.00017940776563782338,-0.00195684767665648,0.0,0.0,0.0,0.0,0.0,0.0,0.0,0.0,0.0,0.007443447339988585,0.02228902160067596,9.811448487195143,0.0,0.0,0.0,0.0,0.0,0.0,0.0,0.0,0.0
2025/05/25 18:47:33.667101280,1748191653,666738171,mA1/imu,0.7874801286258262,0.6163394511008841,8.032989186402818e-05,0.0008494605473304456,0.0,0.0,0.0,0.0,0.0,0.0,0.0,0.0,0.0,-0.0014982673851647297,0.0003374167096284356,-0.00191840316499456,0.0,0.0,0.0,0.0,0.0,0.0,0.0,0.0,0.0,0.007373084388974148,0.40521836292008645,9.811429262197663,0.0,0.0,0.0,0.0,0.0,0.0,0.0,0.0,0.0
2025/05/25 18:47:33.716799857,1748191653,716611754,mA1/imu,0.787452200778388,0.6163750996018756,0.00011226181098300157,0.0008691819931128873,0.0,0.0,0.0,0.0,0.0,0.0,0.0,0.0,0.0,-0.0007065423697617714,0.0007354560168845469,-0.0016718203333993813,0.0,0.0,0.0,0.0,0.0,0.0,0.0,0.0,0.0,-0.01013730984836667,0.03640861805828453,9.809782203366414,0.0,0.0,0.0,0.0,0.0,0.0,0.0,0.0,0.0
2025/05/25 18:47:33.768336406,1748191653,768052191,mA1/imu,0.7874305676526548,0.6164027078208228,0.00015977735507199145,0.0008816964170554637,0.0,0.0,0.0,0.0,0.0,0.0,0.0,0.0,0.0,-0.00046897976373460915,0.0013664997604432595,-0.0012650001596884275,0.0,0.0,0.0,0.0,0.0,0.0,0.0,0.0,0.0,0.0041221864301623015,-0.4893038564484511,9.808874179137758,0.0,0.0,0.0,0.0,0.0,0.0,0.0,0.0,0.0
2025/05/25 18:47:33.818189452,1748191653,818030429,mA1/imu,0.7874126679340677,0.6164255561208888,0.0002079134710070632,0.0008836911197356281,0.0,0.0,0.0,0.0,0.0,0.0,0.0,0.0,0.0,-0.00037821294514521877,0.0015103153258297585,-0.0010894646583581012,0.0,0.0,0.0,0.0,0.0,0.0,0.0,0.0,0.0,0.004634193777958325,-0.3743312125798058,9.809318981894517,0.0,0.0,0.0,0.0,0.0,0.0,0.0,0.0,0.0
2025/05/25 18:47:33.869103811,1748191653,868990550,mA1/imu,0.7874008504841102,0.6164406303666218,0.0002667264339540031,0.0008824664929492061,0.0,0.0,0.0,0.0,0.0,0.0,0.0,0.0,0.0,-0.0005178537701308524,0.0019863016203384965,-0.0006090031395906024,0.0,0.0,0.0,0.0,0.0,0.0,0.0,0.0,0.0,0.0059288666859760196,-0.21549624072739604,9.810223988931968,0.0,0.0,0.0,0.0,0.0,0.0,0.0,0.0,0.0
2025/05/25 18:47:33.919083724,1748191653,918847704,mA1/imu,0.7873930319557005,0.6164506139243009,0.00031647427138176566,0.000868138236218074,0.0,0.0,0.0,0.0,0.0,0.0,0.0,0.0,0.0,-0.001153270580384403,0.0018563783087480194,-0.0004395466106081428,0.0,0.0,0.0,0.0,0.0,0.0,0.0,0.0,0.0,0.006205110776396713,-0.025908366788454738,9.809041220640937,0.0,0.0,0.0,0.0,0.0,0.0,0.0,0.0,0.0
2025/05/25 18:47:33.970026300,1748191653,969856579,mA1/imu,0.7873901493326473,0.6164542833354997,0.0003688999469650102,0.000856273353572341,0.0,0.0,0.0,0.0,0.0,0.0,0.0,0.0,0.0,-0.0006806310675894004,0.0019215928890543225,-6.270189881898428e-05,0.0,0.0,0.0,0.0,0.0,0.0,0.0,0.0,0.0,0.007517218222605673,-0.006507637120061787,9.809354708257352,0.0,0.0,0.0,0.0,0.0,0.0,0.0,0.0,0.0
2025/05/25 18:47:34.23328353,1748191654,22179494,mA1/imu,0.7873905366081957,0.616453774795764,0.00041444157785450344,0.0008453626970027867,0.0,0.0,0.0,0.0,0.0,0.0,0.0,0.0,0.0,-0.0015467651934122006,0.00154331847621637,8.684585122720073e-05,0.0,0.0,0.0,0.0,0.0,0.0,0.0,0.0,0.0,0.008268013449456216,0.36896201826179953,9.81045524407696,0.0,0.0,0.0,0.0,0.0,0.0,0.0,0.0,0.0
2025/05/25 18:47:34.73505876,1748191654,73133784,mA1/imu,0.787392667611819,0.6164510534832383,0.0004413506676940937,0.0008311799668429492,0.0,0.0,0.0,0.0,0.0,0.0,0.0,0.0,0.0,-0.0009447961728605684,0.0010030883487830706,0.00018748013879080268,0.0,0.0,0.0,0.0,0.0,0.0,0.0,0.0,0.0,0.007994099361208195,0.5666733811136551,9.810591179530084,0.0,0.0,0.0,0.0,0.0,0.0,0.0,0.0,0.0
2025/05/25 18:47:34.124408053,1748191654,124178714,mA1/imu,0.7873986775928871,0.6164433774372149,0.00046155369780068016,0.0008196993085124662,0.0,0.0,0.0,0.0,0.0,0.0,0.0,0.0,0.0,-0.00014132842993385412,0.0012222693892790936,0.0007248045462311729,0.0,0.0,0.0,0.0,0.0,0.0,0.0,0.0,0.0,-0.047713090303702285,-0.25416651945907004,9.812196899445713,0.0,0.0,0.0,0.0,0.0,0.0,0.0,0.0,0.0
2025/05/25 18:47:34.167246182,1748191654,166692693,mA1/imu,0.7874160339538998,0.6164212336815308,0.0004804352157665945,0.0007882390842615076,0.0,0.0,0.0,0.0,0.0,0.0,0.0,0.0,0.0,0.0020801826206030866,0.0011397934619586103,0.0012026224292136544,0.0,0.0,0.0,0.0,0.0,0.0,0.0,0.0,0.0,0.010049168167297938,-0.5230791487266255,9.809094708861917,0.0,0.0,0.0,0.0,0.0,0.0,0.0,0.0,0.0
2025/05/25 18:47:34.218775969,1748191654,217186112,mA1/imu,0.7874354243016934,0.6163964747041323,0.0004905302365621302,0.000773244603546721,0.0,0.0,0.0,0.0,0.0,0.0,0.0,0.0,0.0,0.0014510384753132584,0.0003589470790712502,0.001303304943434749,0.0,0.0,0.0,0.0,0.0,0.0,0.0,0.0,0.0,0.01116772118412221,-0.16631291015899177,9.808676104532292,0.0,0.0,0.0,0.0,0.0,0.0,0.0,0.0,0.0
2025/05/25 18:47:34.268353594,1748191654,268121344,mA1/imu,0.7874564275130687,0.6163696781927965,0.0004730121832062739,0.0007555344718173713,0.0,0.0,0.0,0.0,0.0,0.0,0.0,0.0,0.0,0.002167724492382476,-0.00045689868853307,0.001392942736526188,0.0,0.0,0.0,0.0,0.0,0.0,0.0,0.0,0.0,0.011646509353210245,-0.18975386381157885,9.808651067480469,0.0,0.0,0.0,0.0,0.0,0.0,0.0,0.0,0.0
2025/05/25 18:47:34.321027195,1748191654,319682585,mA1/imu,0.7874787989908603,0.6163411157556041,0.00044541591804294305,0.0007561571988255606,0.0,0.0,0.0,0.0,0.0,0.0,0.0,0.0,0.0,0.0007905043929906434,-0.0011757702374726622,0.001495279834864327,0.0,0.0,0.0,0.0,0.0,0.0,0.0,0.0,0.0,0.010797370612311506,-0.0247495039788481,9.812207943497807,0.0,0.0,0.0,0.0,0.0,0.0,0.0,0.0,0.0
2025/05/25 18:47:34.370903547,1748191654,370645385,mA1/imu,0.7875027374497525,0.616310556855477,0.0003990637975402779,0.0007594509357257197,0.0,0.0,0.0,0.0,0.0,0.0,0.0,0.0,0.0,0.0013992542437183432,-0.0017687923810977457,0.0015850402073730673,0.0,0.0,0.0,0.0,0.0,0.0,0.0,0.0,0.0,0.008886215888492853,0.009416320431430536,9.809676618960498,0.0,0.0,0.0,0.0,0.0,0.0,0.0,0.0,0.0
2025/05/25 18:47:34.423046624,1748191654,421940745,mA1/imu,0.7875278897538743,0.6162784435048306,0.0003393267678722604,0.0007666736056151597,0.0,0.0,0.0,0.0,0.0,0.0,0.0,0.0,0.0,0.001582468855615036,-0.002242280740338908,0.0016577013678124113,0.0,0.0,0.0,0.0,0.0,0.0,0.0,0.0,0.0,0.008851147298826648,0.015652243152814573,9.809872949445067,0.0,0.0,0.0,0.0,0.0,0.0,0.0,0.0,0.0
2025/05/25 18:47:34.474882660,1748191654,473454557,mA1/imu,0.7875541686518429,0.6162448717397149,0.00027515407538450214,0.0007834435792428545,0.0,0.0,0.0,0.0,0.0,0.0,0.0,0.0,0.0,0.0008873809560611274,-0.002548988380053408,0.0017316890138045723,0.0,0.0,0.0,0.0,0.0,0.0,0.0,0.0,0.0,0.00739724230374634,0.16950343795699468,9.810168943493917,0.0,0.0,0.0,0.0,0.0,0.0,0.0,0.0,0.0
2025/05/25 18:47:34.516196751,1748191654,515900737,mA1/imu,0.7875815050305628,0.6162099391418442,0.0002044187765656216,0.0008012799523823825,0.0,0.0,0.0,0.0,0.0,0.0,0.0,0.0,0.0,0.0012036166207527801,-0.002727719823908719,0.001796738604732081,0.0,0.0,0.0,0.0,0.0,0.0,0.0,0.0,0.0,0.0071627407727604606,-0.009136186144555213,9.810126482895498,0.0,0.0,0.0,0.0,0.0,0.0,0.0,0.0,0.0
2025/05/25 18:47:34.568039236,1748191654,567876007,mA1/imu,0.7876097447657178,0.6161738357513359,0.00013369834059774106,0.000822320083888009,0.0,0.0,0.0,0.0,0.0,0.0,0.0,0.0,0.0,0.0010078810111264055,-0.002739529997382434,0.0018536212538330652,0.0,0.0,0.0,0.0,0.0,0.0,0.0,0.0,0.0,0.006390321329062637,-0.016067332179758507,9.809464910915565,0.0,0.0,0.0,0.0,0.0,0.0,0.0,0.0,0.0
2025/05/25 18:47:34.617847205,1748191654,617685628,mA1/imu,0.7876388298773751,0.6161366366185689,6.682737307178846e-05,0.0008451152933318079,0.0,0.0,0.0,0.0,0.0,0.0,0.0,0.0,0.0,0.0008728185646427392,-0.0026026196944922255,0.0019080864378382563,0.0,0.0,0.0,0.0,0.0,0.0,0.0,0.0,0.0,0.00628628162068671,-0.015142030138802129,9.80985546957388,0.0,0.0,0.0,0.0,0.0,0.0,0.0,0.0,0.0
2025/05/25 18:47:34.669323449,1748191654,669217953,mA1/imu,0.7876687306138874,0.6160983834051064,6.9848176397265135e-06,0.0008676001004255893,0.0,0.0,0.0,0.0,0.0,0.0,0.0,0.0,0.0,0.0006920854724548623,-0.002314865117463596,0.001960969235588163,0.0,0.0,0.0,0.0,0.0,0.0,0.0,0.0,0.0,0.0057038879608256625,-0.014851571270274437,9.809711741601545,0.0,0.0,0.0,0.0,0.0,0.0,0.0,0.0,0.0
2025/05/25 18:47:34.719168551,1748191654,718984980,mA1/imu,0.787699426106561,0.6160591066753871,-4.267012665572369e-05,0.0008884666446362941,0.0,0.0,0.0,0.0,0.0,0.0,0.0,0.0,0.0,0.00048052710330076244,-0.0019092729002122073,0.0020131262485653142,0.0,0.0,0.0,0.0,0.0,0.0,0.0,0.0,0.0,0.005797014799949112,-0.014704226745110337,9.81011958451305,0.0,0.0,0.0,0.0,0.0,0.0,0.0,0.0,0.0
2025/05/25 18:47:34.770299947,1748191654,769972927,mA1/imu,0.7877309119827053,0.6160188163526815,-7.965057939565625e-05,0.0009065661155643663,0.0,0.0,0.0,0.0,0.0,0.0,0.0,0.0,0.0,0.0002477980834298076,-0.0014042610997260373,0.0020648518789409516,0.0,0.0,0.0,0.0,0.0,0.0,0.0,0.0,0.0,0.005435178668087774,-0.014739734567195736,9.80962975222762,0.0,0.0,0.0,0.0,0.0,0.0,0.0,0.0,0.0
2025/05/25 18:47:34.820052452,1748191654,819879424,mA1/imu,0.7877631883970763,0.6159775161418178,-0.00010223265922769918,0.0009209574975801449,0.0,0.0,0.0,0.0,0.0,0.0,0.0,0.0,0.0,7.915518351877088e-06,-0.0008363533411839994,0.0021164019812763804,0.0,0.0,0.0,0.0,0.0,0.0,0.0,0.0,0.0,0.0056171419640977,-0.01469817796742896,9.80997188919737,0.0,0.0,0.0,0.0,0.0,0.0,0.0,0.0,0.0
2025/05/25 18:47:34.871040819,1748191654,870849060,mA1/imu,0.7877962363274901,0.6159352330222718,-0.00010950983141308631,0.0009309981942847568,0.0,0.0,0.0,0.0,0.0,0.0,0.0,0.0,0.0,-0.00022956205928008572,-0.00023759115977028736,0.00216605499627395,0.0,0.0,0.0,0.0,0.0,0.0,0.0,0.0,0.0,0.005864915892046452,-0.01478547247160839,9.809881727797016,0.0,0.0,0.0,0.0,0.0,0.0,0.0,0.0,0.0
2025/05/25 18:47:34.920982946,1748191654,920781603,mA1/imu,0.7878298714152963,0.6158922062375893,-0.00010104350085323642,0.0009347682940795154,0.0,0.0,0.0,0.0,0.0,0.0,0.0,0.0,0.0,-0.00041890819442173637,0.00047244734845353125,0.0021805505093811764,0.0,0.0,0.0,0.0,0.0,0.0,0.0,0.0,0.0,0.0022195272896508404,-0.01319773050733412,9.810311184255628,0.0,0.0,0.0,0.0,0.0,0.0,0.0,0.0,0.0
2025/05/25 18:47:34.972097804,1748191654,971896730,mA1/imu,0.7878626811379179,0.6158502439121818,-7.323738619540083e-05,0.0009313322515493547,0.0,0.0,0.0,0.0,0.0,0.0,0.0,0.0,0.0,-0.0006734258664256558,0.0013153278011197595,0.002126505927633717,0.0,0.0,0.0,0.0,0.0,0.0,0.0,0.0,0.0,-0.004313150284051253,-0.016923476018768757,9.80978691584261,0.0,0.0,0.0,0.0,0.0,0.0,0.0,0.0,0.0
2025/05/25 18:47:35.22222199,1748191655,22001360,mA1/imu,0.7878950724178049,0.6158088252259901,-2.5143275255448737e-05,0.0009192395463248181,0.0,0.0,0.0,0.0,0.0,0.0,0.0,0.0,0.0,-0.0008855292364076643,0.002165265283584627,0.002089168112410146,0.0,0.0,0.0,0.0,0.0,0.0,0.0,0.0,0.0,-0.009049218072572396,-0.01920111825984993,9.810307720072688,0.0,0.0,0.0,0.0,0.0,0.0,0.0,0.0,0.0
2025/05/25 18:47:35.73256939,1748191655,73095176,mA1/imu,0.787927984757614,0.615766745831072,4.359952906214399e-05,0.0008964728094736885,0.0,0.0,0.0,0.0,0.0,0.0,0.0,0.0,0.0,-0.0009789754968076592,0.003119056514000826,0.002226211202965549,0.0,0.0,0.0,0.0,0.0,0.0,0.0,0.0,0.0,-0.014335293420077073,-0.03750596729667585,9.810224017905337,0.0,0.0,0.0,0.0,0.0,0.0,0.0,0.0,0.0
2025/05/25 18:47:35.123493900,1748191655,123111449,mA1/imu,0.7879625617625261,0.6157225328496374,0.00012777694953896077,0.0008645663164227628,0.0,0.0,0.0,0.0,0.0,0.0,0.0,0.0,0.0,-0.0011149856607772799,0.003554591614249813,0.0022229271416278765,0.0,0.0,0.0,0.0,0.0,0.0,0.0,0.0,0.0,0.0015589436404921907,-0.014653481376765604,9.810335066172053,0.0,0.0,0.0,0.0,0.0,0.0,0.0,0.0,0.0
2025/05/25 18:47:35.174172134,1748191655,174025865,mA1/imu,0.7879880630100348,0.6156899049565915,0.0002031570183371792,0.0008439285886320207,0.0,0.0,0.0,0.0,0.0,0.0,0.0,0.0,0.0,-0.0012445073699550347,0.0026040347463113012,0.0014127355343131849,0.0,0.0,0.0,0.0,0.0,0.0,0.0,0.0,0.0,0.0015857543585856395,-0.01470981129948443,9.80991723168303,0.0,0.0,0.0,0.0,0.0,0.0,0.0,0.0,0.0
2025/05/25 18:47:35.215530070,1748191655,214579619,mA1/imu,0.7880093760255622,0.6156626205764413,0.0002742399831510954,0.0008280780063943182,0.0,0.0,0.0,0.0,0.0,0.0,0.0,0.0,0.0,-0.0012450209094971708,0.002624825036314272,0.0013706938416942524,0.0,0.0,0.0,0.0,0.0,0.0,0.0,0.0,0.0,0.00195742815275666,-0.01567363314545341,9.81029608796868,0.0,0.0,0.0,0.0,0.0,0.0,0.0,0.0,0.0
2025/05/25 18:47:35.266318238,1748191655,265899211,mA1/imu,0.7880293764666241,0.6156370044040539,0.0003442180387917956,0.0008137247496093065,0.0,0.0,0.0,0.0,0.0,0.0,0.0,0.0,0.0,-0.0012499714209822832,0.0024883583822465564,0.001277370469051429,0.0,0.0,0.0,0.0,0.0,0.0,0.0,0.0,0.0,0.003108757199161867,-0.019844796487742077,9.81013358294093,0.0,0.0,0.0,0.0,0.0,0.0,0.0,0.0,0.0
2025/05/25 18:47:35.315678257,1748191655,315421085,mA1/imu,0.7880486442078862,0.6156123185599383,0.00040788781190604923,0.0008007664467262527,0.0,0.0,0.0,0.0,0.0,0.0,0.0,0.0,0.0,-0.0010954019691251692,0.002197624566372052,0.0012399811628593098,0.0,0.0,0.0,0.0,0.0,0.0,0.0,0.0,0.0,0.0033069773527879807,-0.017679284049533804,9.810399660335822,0.0,0.0,0.0,0.0,0.0,0.0,0.0,0.0,0.0
2025/05/25 18:47:35.368636696,1748191655,367250184,mA1/imu,0.7880673482661111,0.615588350519928,0.00046157920617669095,0.0007900921529842736,0.0,0.0,0.0,0.0,0.0,0.0,0.0,0.0,0.0,-0.000907797447520518,0.0017772064353514562,0.0012035540123968489,0.0,0.0,0.0,0.0,0.0,0.0,0.0,0.0,0.0,0.004006602525826147,-0.016611263571936444,9.809827189477843,0.0,0.0,0.0,0.0,0.0,0.0,0.0,0.0,0.0
2025/05/25 18:47:35.417221290,1748191655,417003097,mA1/imu,0.7880855078965994,0.6155650793554713,0.0005026577710367929,0.0007827238441549701,0.0,0.0,0.0,0.0,0.0,0.0,0.0,0.0,0.0,-0.0006892615024343313,0.0012623275667398774,0.0011679339016851726,0.0,0.0,0.0,0.0,0.0,0.0,0.0,0.0,0.0,0.004114735973726263,-0.016280194694593055,9.810250058157553,0.0,0.0,0.0,0.0,0.0,0.0,0.0,0.0,0.0
2025/05/25 18:47:35.469568344,1748191655,469236018,mA1/imu,0.7881031413384907,0.6155424853735667,0.0005290381642060179,0.0007793786989826343,0.0,0.0,0.0,0.0,0.0,0.0,0.0,0.0,0.0,-0.0004444353853216719,0.0006734497958507049,0.001133490012093059,0.0,0.0,0.0,0.0,0.0,0.0,0.0,0.0,0.0,0.004477538635556325,-0.016181839376981904,9.809965181656068,0.0,0.0,0.0,0.0,0.0,0.0,0.0,0.0,0.0
2025/05/25 18:47:35.519465982,1748191655,519335516,mA1/imu,0.7881202564062428,0.6155205612885075,0.0005394805982183717,0.0007804062548439768,0.0,0.0,0.0,0.0,0.0,0.0,0.0,0.0,0.0,-0.0001846262281851189,5.374130901208388e-05,0.0010990706902661918,0.0,0.0,0.0,0.0,0.0,0.0,0.0,0.0,0.0,0.004460443921932426,-0.016150279600797263,9.810137630851878,0.0,0.0,0.0,0.0,0.0,0.0,0.0,0.0,0.0
2025/05/25 18:47:35.570320955,1748191655,570192795,mA1/imu,0.7881368548201784,0.6154993061268736,0.0005336733561818862,0.0007857634779275183,0.0,0.0,0.0,0.0,0.0,0.0,0.0,0.0,0.0,7.99230767756964e-05,-0.0005586476651237588,0.0010647744586854454,0.0,0.0,0.0,0.0,0.0,0.0,0.0,0.0,0.0,0.004236546503734983,-0.016155240600953483,9.809574409664236,0.0,0.0,0.0,0.0,0.0,0.0,0.0,0.0,0.0
2025/05/25 18:47:35.620239393,1748191655,620023876,mA1/imu,0.7881529402342878,0.6154787129628413,0.0005129533086381053,0.0007959701972566712,0.0,0.0,0.0,0.0,0.0,0.0,0.0,0.0,0.0,0.0002922776673475209,-0.0011290489766813457,0.001030868142193419,0.0,0.0,0.0,0.0,0.0,0.0,0.0,0.0,0.0,0.004109468249372264,-0.019301405728754,9.80997095751423,0.0,0.0,0.0,0.0,0.0,0.0,0.0,0.0,0.0
2025/05/25 18:47:35.671394326,1748191655,671061044,mA1/imu,0.7881685275969142,0.6154587632724442,0.0004778109373605491,0.0008090201320323112,0.0,0.0,0.0,0.0,0.0,0.0,0.0,0.0,0.0,0.000555983001113086,-0.0016181173156934341,0.0009983807008317669,0.0,0.0,0.0,0.0,0.0,0.0,0.0,0.0,0.0,0.0034280251687005205,-0.017603421336764596,9.809661956442035,0.0,0.0,0.0,0.0,0.0,0.0,0.0,0.0,0.0
2025/05/25 18:47:35.720967088,1748191655,720766051,mA1/imu,0.7881836333977941,0.6154394330553883,0.0004305318169533991,0.0008239700653405217,0.0,0.0,0.0,0.0,0.0,0.0,0.0,0.0,0.0,0.0007786380117339511,-0.002004449944416689,0.0009668001755924591,0.0,0.0,0.0,0.0,0.0,0.0,0.0,0.0,0.0,0.003149617590092264,-0.016844910637413238,9.810056211946499,0.0,0.0,0.0,0.0,0.0,0.0,0.0,0.0,0.0
2025/05/25 18:47:35.772092571,1748191655,771827274,mA1/imu,0.7881982608683,0.6154207148950129,0.000374148752884406,0.0008397946232707661,0.0,0.0,0.0,0.0,0.0,0.0,0.0,0.0,0.0,0.0009568073410707637,-0.002259474372500801,0.0009358932744086291,0.0,0.0,0.0,0.0,0.0,0.0,0.0,0.0,0.0,0.0023468016860516525,-0.01664432751648882,9.80956613840025,0.0,0.0,0.0,0.0,0.0,0.0,0.0,0.0,0.0
2025/05/25 18:47:35.823011180,1748191655,822843958,mA1/imu,0.7882124277332277,0.615402583519674,0.00031194008211293876,0.0008553698539871031,0.0,0.0,0.0,0.0,0.0,0.0,0.0,0.0,0.0,0.0010895846907052309,-0.0023845662179169283,0.0009063707405240275,0.0,0.0,0.0,0.0,0.0,0.0,0.0,0.0,0.0,0.002212999659286174,-0.016466199547975787,9.809802013607674,0.0,0.0,0.0,0.0,0.0,0.0,0.0,0.0,0.0
2025/05/25 18:47:35.876023021,1748191655,874062736,mA1/imu,0.7882261536991272,0.6153850122223592,0.00024740052200458035,0.0008695687139900173,0.0,0.0,0.0,0.0,0.0,0.0,0.0,0.0,0.0,0.0011686508794122434,-0.0023674495888658244,0.0008783493557180175,0.0,0.0,0.0,0.0,0.0,0.0,0.0,0.0,0.0,0.0015176304813094262,-0.016600339802658865,9.809631356389932,0.0,0.0,0.0,0.0,0.0,0.0,0.0,0.0,0.0
2025/05/25 18:47:35.914994154,1748191655,914671115,mA1/imu,0.78823965869969,0.6153677191853377,0.00018385225671105365,0.0008813829922689469,0.0,0.0,0.0,0.0,0.0,0.0,0.0,0.0,0.0,0.001204823140947193,-0.0022359246435358815,0.0008951976199726647,0.0,0.0,0.0,0.0,0.0,0.0,0.0,0.0,0.0,0.0024266013960930685,-0.013593819534991145,9.81014981549155,0.0,0.0,0.0,0.0,0.0,0.0,0.0,0.0,0.0
2025/05/25 18:47:35.965035714,1748191655,964848888,mA1/imu,0.788253811675641,0.6153495924645092,0.00012414137261304212,0.0008899559006086744,0.0,0.0,0.0,0.0,0.0,0.0,0.0,0.0,0.0,0.0011848486122170432,-0.0019800231098329644,0.0009112262329240938,0.0,0.0,0.0,0.0,0.0,0.0,0.0,0.0,0.0,0.0011034183573584528,-0.01681858742571615,9.80968223768922,0.0,0.0,0.0,0.0,0.0,0.0,0.0,0.0,0.0
2025/05/25 18:47:36.14990027,1748191656,14614561,mA1/imu,0.7882676166975743,0.6153319093683821,7.164909652645422e-05,0.0008947879044898007,0.0,0.0,0.0,0.0,0.0,0.0,0.0,0.0,0.0,0.001103249923550168,-0.0016352941031556325,0.0008854295083427779,0.0,0.0,0.0,0.0,0.0,0.0,0.0,0.0,0.0,0.002584679155105599,-0.01674395270780629,9.809922425393939,0.0,0.0,0.0,0.0,0.0,0.0,0.0,0.0,0.0
2025/05/25 18:47:36.66077998,1748191656,65870144,mA1/imu,0.7882830096884875,0.6153121958345742,3.219017423286406e-05,0.0008928927635555296,0.0,0.0,0.0,0.0,0.0,0.0,0.0,0.0,0.0,0.0009755679823498164,-0.001003156160882048,0.001012557769057611,0.0,0.0,0.0,0.0,0.0,0.0,0.0,0.0,0.0,0.002798730799035018,-0.016758309026219092,9.809820331679148,0.0,0.0,0.0,0.0,0.0,0.0,0.0,0.0,0.0
2025/05/25 18:47:36.116086055,1748191656,115751428,mA1/imu,0.7882983572016399,0.6152925424471621,3.86189891137407e-06,0.0008872582422877774,0.0,0.0,0.0,0.0,0.0,0.0,0.0,0.0,0.0,0.0008035000231163442,-0.0005857779051004161,0.0009858327636829507,0.0,0.0,0.0,0.0,0.0,0.0,0.0,0.0,0.0,0.0029519788933344542,-0.016603140763211482,9.810371775766365,0.0,0.0,0.0,0.0,0.0,0.0,0.0,0.0,0.0
2025/05/25 18:47:36.166862335,1748191656,166597374,mA1/imu,0.7883132967169373,0.6152734136983561,-1.3091826282986708e-05,0.00087888784809977,0.0,0.0,0.0,0.0,0.0,0.0,0.0,0.0,0.0,0.0005969016208598808,-0.00015731425641850538,0.0009600940274089642,0.0,0.0,0.0,0.0,0.0,0.0,0.0,0.0,0.0,0.0033560000686923466,-0.016540836157467754,9.809919480108299,0.0,0.0,0.0,0.0,0.0,0.0,0.0,0.0,0.0
2025/05/25 18:47:36.217110672,1748191656,216766086,mA1/imu,0.7883278469945509,0.6152547857704599,-1.8205902623163366e-05,0.0008682787722560114,0.0,0.0,0.0,0.0,0.0,0.0,0.0,0.0,0.0,0.0003677834599144858,0.00026818943419469604,0.0009357502088550003,0.0,0.0,0.0,0.0,0.0,0.0,0.0,0.0,0.0,0.003566071503421992,-0.016464911182917426,9.81015653197152,0.0,0.0,0.0,0.0,0.0,0.0,0.0,0.0,0.0
2025/05/25 18:47:36.280316762,1748191656,270920322,mA1/imu,0.7883420409588181,0.6152366158749324,-1.1566267097294007e-05,0.0008560431458062455,0.0,0.0,0.0,0.0,0.0,0.0,0.0,0.0,0.0,0.00012559491525978311,0.0006661556443424921,0.0009137748948720848,0.0,0.0,0.0,0.0,0.0,0.0,0.0,0.0,0.0,0.0038747475605192825,-0.01639760016051589,9.810007959768372,0.0,0.0,0.0,0.0,0.0,0.0,0.0,0.0,0.0
2025/05/25 18:47:36.320971962,1748191656,320742175,mA1/imu,0.7883559015439385,0.6152188732646466,6.187590514688472e-06,0.000842876940145717,0.0,0.0,0.0,0.0,0.0,0.0,0.0,0.0,0.0,-0.00011870972324431405,0.0010204926818973095,0.0008927959322765067,0.0,0.0,0.0,0.0,0.0,0.0,0.0,0.0,0.0,0.00406214798963221,-0.01635807989250949,9.810515763050395,0.0,0.0,0.0,0.0,0.0,0.0,0.0,0.0,0.0
2025/05/25 18:47:36.372956560,1748191656,372861476,mA1/imu,0.7883694404514859,0.615201541450526,3.358215126948613e-05,0.0008292353991617906,0.0,0.0,0.0,0.0,0.0,0.0,0.0,0.0,0.0,-0.0002671200012166561,0.0013084000110183494,0.0008728131696785814,0.0,0.0,0.0,0.0,0.0,0.0,0.0,0.0,0.0,0.004502728211189704,-0.04714204208297994,9.809963786399184,0.0,0.0,0.0,0.0,0.0,0.0,0.0,0.0,0.0
2025/05/25 18:47:36.423226169,1748191656,422858002,mA1/imu,0.7883826809381163,0.6151845890550433,6.873111535981327e-05,0.0008155133597312137,0.0,0.0,0.0,0.0,0.0,0.0,0.0,0.0,0.0,-0.0005333578360382751,0.0015261730456528153,0.0008543169843335259,0.0,0.0,0.0,0.0,0.0,0.0,0.0,0.0,0.0,0.004535319047749416,-0.013645258524471206,9.810290284239125,0.0,0.0,0.0,0.0,0.0,0.0,0.0,0.0,0.0
2025/05/25 18:47:36.475584181,1748191656,473834447,mA1/imu,0.788395638741286,0.6151679914359083,0.00011089266746107607,0.0008042569526786501,0.0,0.0,0.0,0.0,0.0,0.0,0.0,0.0,0.0,-0.0008351922051478044,0.0016454203756320564,0.0008365280352659768,0.0,0.0,0.0,0.0,0.0,0.0,0.0,0.0,0.0,0.005300097561269219,0.01691312909631482,9.810161782681936,0.0,0.0,0.0,0.0,0.0,0.0,0.0,0.0,0.0
2025/05/25 18:47:36.523929308,1748191656,523631862,mA1/imu,0.788408317996827,0.6151517414026481,0.00015759632091936153,0.000796445919872065,0.0,0.0,0.0,0.0,0.0,0.0,0.0,0.0,0.0,-0.000947759767535834,0.0016630763039658988,0.0008189899797104393,0.0,0.0,0.0,0.0,0.0,0.0,0.0,0.0,0.0,0.005549451255287799,-0.018311439151363507,9.810347629817958,0.0,0.0,0.0,0.0,0.0,0.0,0.0,0.0,0.0
2025/05/25 18:47:36.567068660,1748191656,566704338,mA1/imu,0.7884207227822256,0.6151358357004785,0.00020463891012104893,0.0007909788514451002,0.0,0.0,0.0,0.0,0.0,0.0,0.0,0.0,0.0,-0.0009384558436738631,0.001573919327353413,0.0008013455452953032,0.0,0.0,0.0,0.0,0.0,0.0,0.0,0.0,0.0,0.006134017772675331,-0.05278093001757896,9.809807339314089,0.0,0.0,0.0,0.0,0.0,0.0,0.0,0.0,0.0
2025/05/25 18:47:36.615673308,1748191656,615329151,mA1/imu,0.7884328539032434,0.6151202739200352,0.00024929424125710994,0.0007882581485289881,0.0,0.0,0.0,0.0,0.0,0.0,0.0,0.0,0.0,-0.0010505504133739602,0.0013973476695737035,0.0007835812938735892,0.0,0.0,0.0,0.0,0.0,0.0,0.0,0.0,0.0,0.006038050611897847,-0.013324597062208458,9.810177619706769,0.0,0.0,0.0,0.0,0.0,0.0,0.0,0.0,0.0
2025/05/25 18:47:36.667496650,1748191656,667327793,mA1/imu,0.7884447103326399,0.6151050547164485,0.00029105008794373395,0.0007910123898149276,0.0,0.0,0.0,0.0,0.0,0.0,0.0,0.0,0.0,-0.0012729368503094783,0.0011395680962094537,0.0007658992305066745,0.0,0.0,0.0,0.0,0.0,0.0,0.0,0.0,0.0,0.006599861613950113,0.05192848014198874,9.810074696648462,0.0,0.0,0.0,0.0,0.0,0.0,0.0,0.0,0.0
2025/05/25 18:47:36.717447009,1748191656,717174345,mA1/imu,0.7884563017004127,0.6150901715221413,0.00032579107152922056,0.0007969102512918544,0.0,0.0,0.0,0.0,0.0,0.0,0.0,0.0,0.0,-0.00039422339268846944,0.0008151098920151387,0.0007489703667355388,0.0,0.0,0.0,0.0,0.0,0.0,0.0,0.0,0.0,0.006629505475291832,-0.28579097524032077,9.809743057141395,0.0,0.0,0.0,0.0,0.0,0.0,0.0,0.0,0.0
2025/05/25 18:47:36.768453649,1748191656,768236564,mA1/imu,0.7884676366498818,0.6150756145254619,0.0003520154640331797,0.0008065091373473815,0.0,0.0,0.0,0.0,0.0,0.0,0.0,0.0,0.0,-0.00012086802625527349,0.0004315766232479117,0.0007319642556946254,0.0,0.0,0.0,0.0,0.0,0.0,0.0,0.0,0.0,0.007198874080717961,-0.04567752154101484,9.810103535401185,0.0,0.0,0.0,0.0,0.0,0.0,0.0,0.0,0.0
2025/05/25 18:47:36.818285258,1748191656,818049413,mA1/imu,0.7884787151852979,0.6150613793047945,0.0003712064130574304,0.000823160509480292,0.0,0.0,0.0,0.0,0.0,0.0,0.0,0.0,0.0,-0.0016544547841052032,4.0663598880744156e-05,0.0007151594040241579,0.0,0.0,0.0,0.0,0.0,0.0,0.0,0.0,0.0,0.007659982298344534,0.5584657183809925,9.81091792165309,0.0,0.0,0.0,0.0,0.0,0.0,0.0,0.0,0.0
2025/05/25 18:47:36.869532670,1748191656,869048816,mA1/imu,0.7884895443772554,0.6150474601932968,0.0003818709195204888,0.0008451580466652412,0.0,0.0,0.0,0.0,0.0,0.0,0.0,0.0,0.0,-0.0014786457047031808,-0.00036390443993672146,0.0006988557696944323,0.0,0.0,0.0,0.0,0.0,0.0,0.0,0.0,0.0,0.007966089463245535,-0.07183883816016688,9.809590836224208,0.0,0.0,0.0,0.0,0.0,0.0,0.0,0.0,0.0
2025/05/25 18:47:36.919811236,1748191656,919491371,mA1/imu,0.7885001351823481,0.6150338609857408,0.00037690802405680897,0.0008629013458215287,0.0,0.0,0.0,0.0,0.0,0.0,0.0,0.0,0.0,0.00034494456467193456,-0.0007470863620948456,0.0006822625981645585,0.0,0.0,0.0,0.0,0.0,0.0,0.0,0.0,0.0,0.007492318715038028,-0.5877556900290319,9.808509382050456,0.0,0.0,0.0,0.0,0.0,0.0,0.0,0.0,0.0
2025/05/25 18:47:36.971170676,1748191656,970668575,mA1/imu,0.7885104711767753,0.6150205915760915,0.0003620119865395628,0.0008818896165772506,0.0,0.0,0.0,0.0,0.0,0.0,0.0,0.0,0.0,0.00044770393464673667,-0.0010620142302321138,0.0006652610103234946,0.0,0.0,0.0,0.0,0.0,0.0,0.0,0.0,0.0,0.006424439970783252,0.03322019804675429,9.810250184099292,0.0,0.0,0.0,0.0,0.0,0.0,0.0,0.0,0.0
2025/05/25 18:47:37.20695827,1748191657,20543150,mA1/imu,0.788520828630381,0.6150072903164596,0.0003412075231146064,0.0009051249026953923,0.0,0.0,0.0,0.0,0.0,0.0,0.0,0.0,0.0,-0.0008276746835272531,-0.0013287402276388827,0.0007084983558939161,0.0,0.0,0.0,0.0,0.0,0.0,0.0,0.0,0.0,0.008143096578487573,0.5628464481104046,9.810957741875123,0.0,0.0,0.0,0.0,0.0,0.0,0.0,0.0,0.0
2025/05/25 18:47:37.71703850,1748191657,71576989,mA1/imu,0.7885323144867766,0.6149925424927123,0.0003126062769659628,0.0009294976019548941,0.0,0.0,0.0,0.0,0.0,0.0,0.0,0.0,0.0,-0.0008454279849544029,-0.0015896603481953444,0.0007442457822550534,0.0,0.0,0.0,0.0,0.0,0.0,0.0,0.0,0.0,0.00871806634007356,0.05527285922597881,9.809870646964521,0.0,0.0,0.0,0.0,0.0,0.0,0.0,0.0,0.0
2025/05/25 18:47:37.123033327,1748191657,122878778,mA1/imu,0.788543612065133,0.6149780481533715,0.0002732204966209171,0.0009473707314910562,0.0,0.0,0.0,0.0,0.0,0.0,0.0,0.0,0.0,0.000391157563138472,-0.0017366871847361407,0.0007263648370890977,0.0,0.0,0.0,0.0,0.0,0.0,0.0,0.0,0.0,0.00936521692985869,-0.25534576074758203,9.809681739178108,0.0,0.0,0.0,0.0,0.0,0.0,0.0,0.0,0.0
2025/05/25 18:47:37.174085072,1748191657,173923567,mA1/imu,0.7885584217827569,0.6149590657179557,0.00022970107109210824,0.0009540252642352303,0.0,0.0,0.0,0.0,0.0,0.0,0.0,0.0,0.0,0.0014868184440250155,-0.0014634100240159232,0.0010616070514107906,0.0,0.0,0.0,0.0,0.0,0.0,0.0,0.0,0.0,0.00906884619525375,0.041277370202441654,9.810384127189778,0.0,0.0,0.0,0.0,0.0,0.0,0.0,0.0,0.0
2025/05/25 18:47:37.224123853,1748191657,223739058,mA1/imu,0.7885745103263887,0.6149384279081614,0.00019216469969854128,0.0009667564655716119,0.0,0.0,0.0,0.0,0.0,0.0,0.0,0.0,0.0,0.00010764975957353521,-0.001512094830994354,0.0010338705448946044,0.0,0.0,0.0,0.0,0.0,0.0,0.0,0.0,0.0,0.010046848339633712,0.5633045258643,9.810962528875507,0.0,0.0,0.0,0.0,0.0,0.0,0.0,0.0,0.0
2025/05/25 18:47:37.267164902,1748191657,266614748,mA1/imu,0.7885911298945444,0.61491711368375,0.0001535113630460572,0.000974466394171553,0.0,0.0,0.0,0.0,0.0,0.0,0.0,0.0,0.0,-0.00041173334579647637,-0.0013435533120660541,0.0010965853847388378,0.0,0.0,0.0,0.0,0.0,0.0,0.0,0.0,0.0,0.011074025423945215,0.18264638055992286,9.810256799729494,0.0,0.0,0.0,0.0,0.0,0.0,0.0,0.0,0.0
2025/05/25 18:47:37.317537588,1748191657,316841101,mA1/imu,0.788607727713151,0.6148958355872958,0.00011246646081668871,0.0009749460483912452,0.0,0.0,0.0,0.0,0.0,0.0,0.0,0.0,0.0,0.00039630546769843294,-0.00126824971871163,0.0010653560136019632,0.0,0.0,0.0,0.0,0.0,0.0,0.0,0.0,0.0,0.009784812115505314,-0.321589243790105,9.810123663801141,0.0,0.0,0.0,0.0,0.0,0.0,0.0,0.0,0.0
2025/05/25 18:47:37.370583870,1748191657,370491568,mA1/imu,0.7886318408002828,0.6148649433013693,8.305489115539849e-05,0.0009561782503074892,0.0,0.0,0.0,0.0,0.0,0.0,0.0,0.0,0.0,0.002032601850513745,-8.134060829378672e-05,0.0017751596588509936,0.0,0.0,0.0,0.0,0.0,0.0,0.0,0.0,0.0,0.011609505805991112,-0.5842661212035706,9.80893536641845,0.0,0.0,0.0,0.0,0.0,0.0,0.0,0.0,0.0
2025/05/25 18:47:37.421247370,1748191657,420913554,mA1/imu,0.7886586805616753,0.614830554727552,6.387873500685335e-05,0.0009329885504747496,0.0,0.0,0.0,0.0,0.0,0.0,0.0,0.0,0.0,0.0014513174709190027,-1.0812819292764859e-05,0.0017239089574800047,0.0,0.0,0.0,0.0,0.0,0.0,0.0,0.0,0.0,0.012130136330932352,0.16907416005381068,9.810225089094041,0.0,0.0,0.0,0.0,0.0,0.0,0.0,0.0,0.0
2025/05/25 18:47:37.472198309,1748191657,471923834,mA1/imu,0.7886820213512302,0.6148006341030929,4.7089838541260946e-05,0.0009204815693852938,0.0,0.0,0.0,0.0,0.0,0.0,0.0,0.0,0.0,-0.00012880110642198188,-0.00029027397046645255,0.0014256982672141193,0.0,0.0,0.0,0.0,0.0,0.0,0.0,0.0,0.0,0.010309583832055162,0.5330044634898841,9.811059872664758,0.0,0.0,0.0,0.0,0.0,0.0,0.0,0.0,0.0
2025/05/25 18:47:37.523155965,1748191657,522931555,mA1/imu,0.7887035924566427,0.6147729859630913,2.815320013668744e-05,0.0009045349126854637,0.0,0.0,0.0,0.0,0.0,0.0,0.0,0.0,0.0,0.0006610982798504903,-0.00015604833327616694,0.0013864034065198395,0.0,0.0,0.0,0.0,0.0,0.0,0.0,0.0,0.0,0.010909281729932652,-0.034047208024320416,9.8102336563456,0.0,0.0,0.0,0.0,0.0,0.0,0.0,0.0,0.0
2025/05/25 18:47:37.570329699,1748191657,568882620,mA1/imu,0.7887264471670403,0.6147436965327858,1.4325305994304584e-05,0.0008825572218219841,0.0,0.0,0.0,0.0,0.0,0.0,0.0,0.0,0.0,0.0017235347965682784,0.00018690294027351033,0.0014935917192755882,0.0,0.0,0.0,0.0,0.0,0.0,0.0,0.0,0.0,0.0096597205377016,-0.19149603398136136,9.809917516225726,0.0,0.0,0.0,0.0,0.0,0.0,0.0,0.0,0.0
2025/05/25 18:47:37.618738132,1748191657,618484925,mA1/imu,0.7887490439696486,0.6147147240774203,1.1171604405259652e-05,0.0008680521769640014,0.0,0.0,0.0,0.0,0.0,0.0,0.0,0.0,0.0,-0.0003080697905663737,0.00030904000538770966,0.0014539987008666939,0.0,0.0,0.0,0.0,0.0,0.0,0.0,0.0,0.0,0.010442011593659291,0.5544525188212488,9.811002173354504,0.0,0.0,0.0,0.0,0.0,0.0,0.0,0.0,0.0
2025/05/25 18:47:37.670852998,1748191657,670574027,mA1/imu,0.7887689543086889,0.6146891865273366,9.233888813462918e-06,0.0008605811256445899,0.0,0.0,0.0,0.0,0.0,0.0,0.0,0.0,0.0,-1.9396916246338487e-05,0.00012512530107956101,0.0012539692362927427,0.0,0.0,0.0,0.0,0.0,0.0,0.0,0.0,0.0,0.010862581412519995,-0.03957048190008504,9.80982257796542,0.0,0.0,0.0,0.0,0.0,0.0,0.0,0.0,0.0
2025/05/25 18:47:37.720411619,1748191657,720249963,mA1/imu,0.7887877814425887,0.6146650342116561,1.1791813020936418e-05,0.0008552341291475666,0.0,0.0,0.0,0.0,0.0,0.0,0.0,0.0,0.0,-0.00032971874909947294,0.0003071293076880388,0.001195685775342537,0.0,0.0,0.0,0.0,0.0,0.0,0.0,0.0,0.0,0.004606807785140076,-0.04445449629658596,9.810161542355841,0.0,0.0,0.0,0.0,0.0,0.0,0.0,0.0,0.0
2025/05/25 18:47:37.771805715,1748191657,771702864,mA1/imu,0.7888056533182294,0.6146421133874513,1.8919113538760424e-05,0.0008446217353599647,0.0,0.0,0.0,0.0,0.0,0.0,0.0,0.0,0.0,0.0007602253919878109,0.0006176994892369804,0.0011556996065095716,0.0,0.0,0.0,0.0,0.0,0.0,0.0,0.0,0.0,0.0018052292548487309,-0.43867731586788145,9.808995443764358,0.0,0.0,0.0,0.0,0.0,0.0,0.0,0.0,0.0
2025/05/25 18:47:37.821992145,1748191657,821722272,mA1/imu,0.7888232841905944,0.6146194895109998,4.236311943831342e-05,0.0008412118452310682,0.0,0.0,0.0,0.0,0.0,0.0,0.0,0.0,0.0,-0.0014092778164079712,0.000981055182514626,0.0011375299426390525,0.0,0.0,0.0,0.0,0.0,0.0,0.0,0.0,0.0,-0.00020970254279234317,0.5445899543504,9.811016462261843,0.0,0.0,0.0,0.0,0.0,0.0,0.0,0.0,0.0
2025/05/25 18:47:37.873131164,1748191657,872814218,mA1/imu,0.7888398840748038,0.6145981951043213,7.008500360820434e-05,0.000831237302446876,0.0,0.0,0.0,0.0,0.0,0.0,0.0,0.0,0.0,-0.0019026017763943525,0.0012340113962901298,0.0010566784696561858,0.0,0.0,0.0,0.0,0.0,0.0,0.0,0.0,0.0,0.0013946717147138594,0.5213963155531435,9.810460088079882,0.0,0.0,0.0,0.0,0.0,0.0,0.0,0.0,0.0
2025/05/25 18:47:37.922970630,1748191657,922740833,mA1/imu,0.7888570258113693,0.6145762027574907,0.00010673002946308706,0.0008200249539728006,0.0,0.0,0.0,0.0,0.0,0.0,0.0,0.0,0.0,-0.0003897079194116175,0.0016611080846289485,0.0012423980796145507,0.0,0.0,0.0,0.0,0.0,0.0,0.0,0.0,0.0,-0.014399973259203279,0.005666065401270088,9.811092566139312,0.0,0.0,0.0,0.0,0.0,0.0,0.0,0.0,0.0
2025/05/25 18:47:37.973876693,1748191657,973767467,mA1/imu,0.7888801172163982,0.6145465738611131,0.00015693666846291945,0.0008028618134693855,0.0,0.0,0.0,0.0,0.0,0.0,0.0,0.0,0.0,0.0011195373421453417,0.0022112767010164123,0.0016872457228276757,0.0,0.0,0.0,0.0,0.0,0.0,0.0,0.0,0.0,-0.012729737335227344,-0.5063723045972435,9.80967971211665,0.0,0.0,0.0,0.0,0.0,0.0,0.0,0.0,0.0
2025/05/25 18:47:38.24084010,1748191658,23779871,mA1/imu,0.7889099213578004,0.6145083118195626,0.00022338449881323995,0.0007879005434412622,0.0,0.0,0.0,0.0,0.0,0.0,0.0,0.0,0.0,-0.0005134599636787695,0.0025746017922466673,0.002139405168967626,0.0,0.0,0.0,0.0,0.0,0.0,0.0,0.0,0.0,-0.01120025457911589,0.009677269953388691,9.807509369028915,0.0,0.0,0.0,0.0,0.0,0.0,0.0,0.0,0.0
2025/05/25 18:47:38.65122248,1748191658,64671920,mA1/imu,0.7889466599411189,0.6144611348094283,0.0002956850588441181,0.0007708091904291869,0.0,0.0,0.0,0.0,0.0,0.0,0.0,0.0,0.0,-0.0020493934083957574,0.0027355456987647585,0.0025752147858185553,0.0,0.0,0.0,0.0,0.0,0.0,0.0,0.0,0.0,-0.009422726602260425,-0.09259042907288345,9.807969066851571,0.0,0.0,0.0,0.0,0.0,0.0,0.0,0.0,0.0
2025/05/25 18:47:38.115013488,1748191658,114471649,mA1/imu,0.7889882523993602,0.6144077193513288,0.00035980279219797106,0.0007500128355189476,0.0,0.0,0.0,0.0,0.0,0.0,0.0,0.0,0.0,-0.0020599335298247387,0.002319847197916731,0.002741959554017903,0.0,0.0,0.0,0.0,0.0,0.0,0.0,0.0,0.0,0.007595303489378874,-0.08309886342091863,9.810434643146301,0.0,0.0,0.0,0.0,0.0,0.0,0.0,0.0,0.0
2025/05/25 18:47:38.165706664,1748191658,165370077,mA1/imu,0.7890323162130911,0.6143511265140364,0.0004075909270526675,0.0007288291811018898,0.0,0.0,0.0,0.0,0.0,0.0,0.0,0.0,0.0,-0.0005765064235900467,0.0018860420430595797,0.0029873699943204508,0.0,0.0,0.0,0.0,0.0,0.0,0.0,0.0,0.0,0.0035105554034823463,0.009992268431538262,9.810117464030828,0.0,0.0,0.0,0.0,0.0,0.0,0.0,0.0,0.0
2025/05/25 18:47:38.215596848,1748191658,215406497,mA1/imu,0.7890792740151187,0.6142907954633231,0.0004467197202072171,0.0007199793765573971,0.0,0.0,0.0,0.0,0.0,0.0,0.0,0.0,0.0,-0.0005192976617256335,0.0011379966676309623,0.0030910745928939467,0.0,0.0,0.0,0.0,0.0,0.0,0.0,0.0,0.0,0.008841584871273178,0.6331683060341917,9.8120010745656,0.0,0.0,0.0,0.0,0.0,0.0,0.0,0.0,0.0
2025/05/25 18:47:38.267561543,1748191658,267334783,mA1/imu,0.7891275271934909,0.6142287814515462,0.0004716071459868245,0.0007262566590733908,0.0,0.0,0.0,0.0,0.0,0.0,0.0,0.0,0.0,-0.0001404773390108698,0.0002853312769862448,0.0031798789262354097,0.0,0.0,0.0,0.0,0.0,0.0,0.0,0.0,0.0,0.008446411066294554,0.020146087836943813,9.810695945826259,0.0,0.0,0.0,0.0,0.0,0.0,0.0,0.0,0.0
2025/05/25 18:47:38.317512321,1748191658,317178335,mA1/imu,0.7891770822924783,0.6141650911580386,0.0004754516080694805,0.0007399546862646183,0.0,0.0,0.0,0.0,0.0,0.0,0.0,0.0,0.0,0.00047667321493844345,-0.0005746952891124344,0.0032630769908592234,0.0,0.0,0.0,0.0,0.0,0.0,0.0,0.0,0.0,0.009257182143513296,-0.5842499004493845,9.808358743573976,0.0,0.0,0.0,0.0,0.0,0.0,0.0,0.0,0.0
2025/05/25 18:47:38.368726882,1748191658,368500271,mA1/imu,0.7892278098895303,0.6140998856460718,0.0004608208526148417,0.0007630141536982961,0.0,0.0,0.0,0.0,0.0,0.0,0.0,0.0,0.0,-0.00021750510210749566,-0.001360897976703936,0.0033344305466607633,0.0,0.0,0.0,0.0,0.0,0.0,0.0,0.0,0.0,0.008109732761548371,-0.6502324609630269,9.81041058280147,0.0,0.0,0.0,0.0,0.0,0.0,0.0,0.0,0.0
2025/05/25 18:47:38.418840446,1748191658,418519775,mA1/imu,0.7892795977381859,0.6140333246056702,0.0004214941888813395,0.0007843536217794713,0.0,0.0,0.0,0.0,0.0,0.0,0.0,0.0,0.0,-0.00021828667712227247,-0.00202904085850577,0.003395320894001351,0.0,0.0,0.0,0.0,0.0,0.0,0.0,0.0,0.0,0.008758359494157479,-0.03315879235817046,9.811969746166191,0.0,0.0,0.0,0.0,0.0,0.0,0.0,0.0,0.0
2025/05/25 18:47:38.469827800,1748191658,469680372,mA1/imu,0.7893325579991259,0.6139652441846749,0.0003668187720842085,0.0008107156081686756,0.0,0.0,0.0,0.0,0.0,0.0,0.0,0.0,0.0,-0.00021224074700939655,-0.0025718493167253757,0.0034745206191469035,0.0,0.0,0.0,0.0,0.0,0.0,0.0,0.0,0.0,0.005617642975614147,0.5845205696441984,9.809821243956847,0.0,0.0,0.0,0.0,0.0,0.0,0.0,0.0,0.0
2025/05/25 18:47:38.520115170,1748191658,519712159,mA1/imu,0.789386529950221,0.6138958370957661,0.0003044760533324751,0.0008454726314750912,0.0,0.0,0.0,0.0,0.0,0.0,0.0,0.0,0.0,3.2913885469431605e-05,-0.002946900174650676,0.003538260206178586,0.0,0.0,0.0,0.0,0.0,0.0,0.0,0.0,0.0,0.005222694901506264,0.5885134279479736,9.810170671226384,0.0,0.0,0.0,0.0,0.0,0.0,0.0,0.0,0.0
2025/05/25 18:47:38.572813092,1748191658,572561153,mA1/imu,0.7894415923283926,0.6138250094713067,0.00023311193467794446,0.0008807430885750104,0.0,0.0,0.0,0.0,0.0,0.0,0.0,0.0,0.0,0.001995625783004051,-0.0032092170960616403,0.0036212374078672185,0.0,0.0,0.0,0.0,0.0,0.0,0.0,0.0,0.0,0.006179960750740796,-0.5489517097930052,9.811080848708528,0.0,0.0,0.0,0.0,0.0,0.0,0.0,0.0,0.0
2025/05/25 18:47:38.622639591,1748191658,622424456,mA1/imu,0.7894978033072205,0.6137526825659804,0.00015755479015809083,0.0009156378239097347,0.0,0.0,0.0,0.0,0.0,0.0,0.0,0.0,0.0,0.0021802673222083564,-0.003277754490304972,0.0036930618039498187,0.0,0.0,0.0,0.0,0.0,0.0,0.0,0.0,0.0,0.005944815543078052,-0.5509620518933042,9.809731356556343,0.0,0.0,0.0,0.0,0.0,0.0,0.0,0.0,0.0
2025/05/25 18:47:38.665548149,1748191658,665325431,mA1/imu,0.7895550288482034,0.6136790344413897,8.002451501583878e-05,0.0009448299707358633,0.0,0.0,0.0,0.0,0.0,0.0,0.0,0.0,0.0,0.0010082878891099017,-0.0031034698650050656,0.0037569547277993475,0.0,0.0,0.0,0.0,0.0,0.0,0.0,0.0,0.0,0.005754130646293345,-0.003653376363456858,9.808564077527187,0.0,0.0,0.0,0.0,0.0,0.0,0.0,0.0,0.0
2025/05/25 18:47:38.715529209,1748191658,715340199,mA1/imu,0.7896134925895517,0.6136037787257169,4.48175970523668e-06,0.000966971543124092,0.0,0.0,0.0,0.0,0.0,0.0,0.0,0.0,0.0,0.0011423391782818127,-0.0027942765629057537,0.0038402573083572526,0.0,0.0,0.0,0.0,0.0,0.0,0.0,0.0,0.0,0.005941880766592411,0.049250269681139304,9.808559720110518,0.0,0.0,0.0,0.0,0.0,0.0,0.0,0.0,0.0
2025/05/25 18:47:38.766848441,1748191658,766560407,mA1/imu,0.789673259729629,0.6135268325628587,-6.390388684129195e-05,0.0009820945275956618,0.0,0.0,0.0,0.0,0.0,0.0,0.0,0.0,0.0,0.002351995017347982,-0.0023518627442853683,0.003927652279059357,0.0,0.0,0.0,0.0,0.0,0.0,0.0,0.0,0.0,0.005863496728308618,-0.5481624230205056,9.810232408651991,0.0,0.0,0.0,0.0,0.0,0.0,0.0,0.0,0.0
2025/05/25 18:47:38.816792791,1748191658,816397183,mA1/imu,0.7897341379522995,0.6134484390123031,-0.0001177886850543975,0.0009950637831314857,0.0,0.0,0.0,0.0,0.0,0.0,0.0,0.0,0.0,0.002001994648196143,-0.0018199817764733965,0.004002516807821504,0.0,0.0,0.0,0.0,0.0,0.0,0.0,0.0,0.0,0.005295721443200552,-0.4567195935945909,9.809213048101768,0.0,0.0,0.0,0.0,0.0,0.0,0.0,0.0,0.0
2025/05/25 18:47:38.867567145,1748191658,867353175,mA1/imu,0.7897961373025552,0.6133686095876146,-0.00016596050632316437,0.000991328215166545,0.0,0.0,0.0,0.0,0.0,0.0,0.0,0.0,0.0,0.0021949887596879546,-0.001177498101369013,0.004067142387228109,0.0,0.0,0.0,0.0,0.0,0.0,0.0,0.0,0.0,0.005435075200204798,-0.10890157488737526,9.808722266354335,0.0,0.0,0.0,0.0,0.0,0.0,0.0,0.0,0.0
2025/05/25 18:47:38.917460382,1748191658,917212153,mA1/imu,0.789859237440416,0.6132873451115217,-0.00019151998387138477,0.000990290968147209,0.0,0.0,0.0,0.0,0.0,0.0,0.0,0.0,0.0,0.0005594514573374706,-0.0005386265413069252,0.004148433506585095,0.0,0.0,0.0,0.0,0.0,0.0,0.0,0.0,0.0,0.007086214319939853,-0.02714418051762111,9.812108030911311,0.0,0.0,0.0,0.0,0.0,0.0,0.0,0.0,0.0
2025/05/25 18:47:38.968642714,1748191658,968454080,mA1/imu,0.7899237157013428,0.6132043107328241,-0.00020778257279601862,0.0009764720521798953,0.0,0.0,0.0,0.0,0.0,0.0,0.0,0.0,0.0,0.001332485954453779,5.798025816113269e-05,0.004239467336579491,0.0,0.0,0.0,0.0,0.0,0.0,0.0,0.0,0.0,0.008634037412371625,-0.5910335937054474,9.808892666545002,0.0,0.0,0.0,0.0,0.0,0.0,0.0,0.0,0.0
2025/05/25 18:47:39.18813259,1748191659,18296764,mA1/imu,0.7899895212666266,0.613119565167158,-0.00021258583032926438,0.0009538896299111301,0.0,0.0,0.0,0.0,0.0,0.0,0.0,0.0,0.0,0.0016690248697215596,0.0006065198812190058,0.004323012163035794,0.0,0.0,0.0,0.0,0.0,0.0,0.0,0.0,0.0,0.009800502796595799,-0.29692049075040716,9.809540527586387,0.0,0.0,0.0,0.0,0.0,0.0,0.0,0.0,0.0
2025/05/25 18:47:39.69700573,1748191659,69444608,mA1/imu,0.7900561459582618,0.6130337406136388,-0.00019421216812267082,0.0009388207822511681,0.0,0.0,0.0,0.0,0.0,0.0,0.0,0.0,0.0,5.315113223389288e-05,0.0011281519880669516,0.004369258251262485,0.0,0.0,0.0,0.0,0.0,0.0,0.0,0.0,0.0,0.01193824115297191,-0.020811333586075266,9.809507794627493,0.0,0.0,0.0,0.0,0.0,0.0,0.0,0.0,0.0
2025/05/25 18:47:39.119672842,1748191659,119445026,mA1/imu,0.7901236090501027,0.6129468307340035,-0.00016843097751123446,0.0009147380976117394,0.0,0.0,0.0,0.0,0.0,0.0,0.0,0.0,0.0,-0.001806251198407146,0.0015815555850074757,0.004426958672298455,0.0,0.0,0.0,0.0,0.0,0.0,0.0,0.0,0.0,0.011424940348511574,0.3883342762667198,9.810645289317613,0.0,0.0,0.0,0.0,0.0,0.0,0.0,0.0,0.0
2025/05/25 18:47:39.170595813,1748191659,170413070,mA1/imu,0.790192038502107,0.612858664928879,-0.00013737615505850383,0.0008833104035504338,0.0,0.0,0.0,0.0,0.0,0.0,0.0,0.0,0.0,-0.0005646623098372911,0.0018681686566533475,0.004490815041080787,0.0,0.0,0.0,0.0,0.0,0.0,0.0,0.0,0.0,0.013430389884791212,-0.03408090854034294,9.808370505029414,0.0,0.0,0.0,0.0,0.0,0.0,0.0,0.0,0.0
2025/05/25 18:47:39.220687279,1748191659,220529330,mA1/imu,0.7902615941577871,0.6127690235119264,-9.884700535138139e-05,0.0008525565686557288,0.0,0.0,0.0,0.0,0.0,0.0,0.0,0.0,0.0,0.0007231335254405888,0.0020208581360473357,0.004571445305892423,0.0,0.0,0.0,0.0,0.0,0.0,0.0,0.0,0.0,0.013446442860199949,0.06962541738219973,9.8086076733035,0.0,0.0,0.0,0.0,0.0,0.0,0.0,0.0,0.0
2025/05/25 18:47:39.271710803,1748191659,271508438,mA1/imu,0.7903321367585915,0.6126780719812587,-4.99287031407928e-05,0.0008314006561526558,0.0,0.0,0.0,0.0,0.0,0.0,0.0,0.0,0.0,0.0005575310536918202,0.002065796638303763,0.004628434065668621,0.0,0.0,0.0,0.0,0.0,0.0,0.0,0.0,0.0,0.012298768258422448,0.07777555396202429,9.80931977726558,0.0,0.0,0.0,0.0,0.0,0.0,0.0,0.0,0.0
2025/05/25 18:47:39.322575753,1748191659,322348949,mA1/imu,0.7904023423802748,0.6125875147366087,2.3347596993138144e-06,0.0008209404053402129,0.0,0.0,0.0,0.0,0.0,0.0,0.0,0.0,0.0,-0.000675278137445908,0.0017276173537770813,0.0045262804188579775,0.0,0.0,0.0,0.0,0.0,0.0,0.0,0.0,0.0,0.023177511449415496,-0.09608285130625366,9.811623128815384,0.0,0.0,0.0,0.0,0.0,0.0,0.0,0.0,0.0
2025/05/25 18:47:39.374310972,1748191659,374120026,mA1/imu,0.7904736205300866,0.6124955519445711,4.7158258320091823e-05,0.000807384834274777,0.0,0.0,0.0,0.0,0.0,0.0,0.0,0.0,0.0,-0.00031190643175479964,0.0016042549731950814,0.004639808212198784,0.0,0.0,0.0,0.0,0.0,0.0,0.0,0.0,0.0,0.022890245918933072,-0.47630822066882317,9.811527390935337,0.0,0.0,0.0,0.0,0.0,0.0,0.0,0.0,0.0
2025/05/25 18:47:39.415567878,1748191659,415203730,mA1/imu,0.7905433802278016,0.6124055101794678,8.609999227086337e-05,0.0008047773721276539,0.0,0.0,0.0,0.0,0.0,0.0,0.0,0.0,0.0,-0.0011177184264568793,0.001075035317904266,0.004509845533923363,0.0,0.0,0.0,0.0,0.0,0.0,0.0,0.0,0.0,0.02338119933446889,-0.01218849568803336,9.80896576920134,0.0,0.0,0.0,0.0,0.0,0.0,0.0,0.0,0.0
2025/05/25 18:47:39.467833675,1748191659,466380089,mA1/imu,0.7906109362033141,0.6123182741812561,0.00011749520836247805,0.0008153859719815626,0.0,0.0,0.0,0.0,0.0,0.0,0.0,0.0,0.0,-0.0010921555194504304,0.000502761175347957,0.0043608875036749714,0.0,0.0,0.0,0.0,0.0,0.0,0.0,0.0,0.0,0.022007746406144772,-0.0063204694086546115,9.808656190333595,0.0,0.0,0.0,0.0,0.0,0.0,0.0,0.0,0.0
2025/05/25 18:47:39.516794445,1748191659,516311511,mA1/imu,0.7906762765002852,0.6122338783348124,0.0001333188276875203,0.0008283868955906209,0.0,0.0,0.0,0.0,0.0,0.0,0.0,0.0,0.0,-0.0008056356952693305,-2.056080544252212e-05,0.004209949494686787,0.0,0.0,0.0,0.0,0.0,0.0,0.0,0.0,0.0,0.019866441838578705,0.013851135190206186,9.809330838308414,0.0,0.0,0.0,0.0,0.0,0.0,0.0,0.0,0.0
2025/05/25 18:47:39.567667645,1748191659,567311715,mA1/imu,0.7907393354282725,0.6121523988757344,0.0001409509148240932,0.0008509347669146191,0.0,0.0,0.0,0.0,0.0,0.0,0.0,0.0,0.0,0.00013785375708822207,-0.0004992084365210632,0.004055192587222796,0.0,0.0,0.0,0.0,0.0,0.0,0.0,0.0,0.0,0.017817968745808925,-0.09662635960117448,9.808997274352288,0.0,0.0,0.0,0.0,0.0,0.0,0.0,0.0,0.0
2025/05/25 18:47:39.617787201,1748191659,617589198,mA1/imu,0.7907999781014926,0.6120740058385654,0.00014461093537968559,0.0008860581741994448,0.0,0.0,0.0,0.0,0.0,0.0,0.0,0.0,0.0,-0.001175557412625972,-0.0009208957452056785,0.003894143401393719,0.0,0.0,0.0,0.0,0.0,0.0,0.0,0.0,0.0,0.01867099659973418,-0.022949859311728764,9.812160377702124,0.0,0.0,0.0,0.0,0.0,0.0,0.0,0.0,0.0
2025/05/25 18:47:39.669711908,1748191659,668702121,mA1/imu,0.7908581680160616,0.6119987706345016,0.00013465586064867176,0.0009190712359435086,0.0,0.0,0.0,0.0,0.0,0.0,0.0,0.0,0.0,-0.0005792596033098346,-0.0012450826783140464,0.0037376723957631432,0.0,0.0,0.0,0.0,0.0,0.0,0.0,0.0,0.0,0.01656774786677183,-0.3811522726729865,9.812002149275107,0.0,0.0,0.0,0.0,0.0,0.0,0.0,0.0,0.0
2025/05/25 18:47:39.719414946,1748191659,719191016,mA1/imu,0.7909138446776688,0.6119267688620083,0.00011661676177072527,0.0009519704941020881,0.0,0.0,0.0,0.0,0.0,0.0,0.0,0.0,0.0,-0.0009786909563558768,-0.001440648635825769,0.0035831587825446566,0.0,0.0,0.0,0.0,0.0,0.0,0.0,0.0,0.0,0.0157906450006128,0.1905136762973652,9.809949623804474,0.0,0.0,0.0,0.0,0.0,0.0,0.0,0.0,0.0
2025/05/25 18:47:39.770737442,1748191659,770597880,mA1/imu,0.7909669702916149,0.6118580493054596,9.434629414717069e-05,0.0009851429327510527,0.0,0.0,0.0,0.0,0.0,0.0,0.0,0.0,0.0,-0.0013363508072544092,-0.0015415275510944435,0.0034090248865921995,0.0,0.0,0.0,0.0,0.0,0.0,0.0,0.0,0.0,0.014441623424566306,0.5682500564545783,9.810386835201905,0.0,0.0,0.0,0.0,0.0,0.0,0.0,0.0,0.0
2025/05/25 18:47:39.820714725,1748191659,820440423,mA1/imu,0.7910174322695834,0.6117927641302008,6.960612484134749e-05,0.0010152627990318403,0.0,0.0,0.0,0.0,0.0,0.0,0.0,0.0,0.0,-0.0009836922087665047,-0.0014771749316041588,0.003225920824429831,0.0,0.0,0.0,0.0,0.0,0.0,0.0,0.0,0.0,0.012945262591774245,0.5786072774133464,9.81041900505388,0.0,0.0,0.0,0.0,0.0,0.0,0.0,0.0,0.0
2025/05/25 18:47:39.872218257,1748191659,871805818,mA1/imu,0.7910652082947482,0.6117309582080955,3.9214368011704316e-05,0.0010341458433608093,0.0,0.0,0.0,0.0,0.0,0.0,0.0,0.0,0.0,-0.0005249914153765367,-0.001339006846230164,0.003051248456306593,0.0,0.0,0.0,0.0,0.0,0.0,0.0,0.0,0.0,0.010926925512926929,0.5955088911200733,9.809105820431615,0.0,0.0,0.0,0.0,0.0,0.0,0.0,0.0,0.0
2025/05/25 18:47:39.921564101,1748191659,921361674,mA1/imu,0.7911101069275759,0.611672854468284,1.9277932660132988e-05,0.0010570960326757427,0.0,0.0,0.0,0.0,0.0,0.0,0.0,0.0,0.0,-0.0005835281638035486,-0.0010421561361576006,0.0028734601525617666,0.0,0.0,0.0,0.0,0.0,0.0,0.0,0.0,0.0,0.006813154686421477,0.20469133278489698,9.808600515862597,0.0,0.0,0.0,0.0,0.0,0.0,0.0,0.0,0.0
2025/05/25 18:47:39.972479222,1748191659,972323958,mA1/imu,0.7911526981359012,0.6116177542044677,-1.475730607558524e-06,0.0010634716683168952,0.0,0.0,0.0,0.0,0.0,0.0,0.0,0.0,0.0,0.0004509146324256231,-0.0006701741998034253,0.0027138793233070866,0.0,0.0,0.0,0.0,0.0,0.0,0.0,0.0,0.0,0.010695552202360877,-0.320774792033679,9.810755974690611,0.0,0.0,0.0,0.0,0.0,0.0,0.0,0.0,0.0
2025/05/25 18:47:40.22374019,1748191660,22181615,mA1/imu,0.7911928108989498,0.6115658757142122,-2.0095490119820627e-05,0.0010560491934065528,0.0,0.0,0.0,0.0,0.0,0.0,0.0,0.0,0.0,0.001780482539054314,-0.00019797056742886602,0.002596583915249205,0.0,0.0,0.0,0.0,0.0,0.0,0.0,0.0,0.0,0.002350199962719776,-0.318593701370826,9.8104410879956,0.0,0.0,0.0,0.0,0.0,0.0,0.0,0.0,0.0
2025/05/25 18:47:40.73337392,1748191660,73232033,mA1/imu,0.791231388807515,0.6115159880509379,-2.7485843573199194e-05,0.0010416181377717435,0.0,0.0,0.0,0.0,0.0,0.0,0.0,0.0,0.0,0.0012338921207430387,0.00025582617950829913,0.0024357755432429825,0.0,0.0,0.0,0.0,0.0,0.0,0.0,0.0,0.0,0.010650906277157875,0.35507049207904073,9.809695145781909,0.0,0.0,0.0,0.0,0.0,0.0,0.0,0.0,0.0
2025/05/25 18:47:40.123296106,1748191660,123111721,mA1/imu,0.7912666806811021,0.6114703517084693,-2.607266246398523e-05,0.0010238875172246687,0.0,0.0,0.0,0.0,0.0,0.0,0.0,0.0,0.0,8.852578342761992e-05,0.000621640359879735,0.002233511420836732,0.0,0.0,0.0,0.0,0.0,0.0,0.0,0.0,0.0,0.011620834271216206,0.4915952062404956,9.809542905115736,0.0,0.0,0.0,0.0,0.0,0.0,0.0,0.0,0.0
2025/05/25 18:47:40.174608276,1748191660,174198748,mA1/imu,0.7913043545527091,0.6114216589694691,-2.0444633146881437e-05,0.0009864030410987462,0.0,0.0,0.0,0.0,0.0,0.0,0.0,0.0,0.0,0.0010349633499493528,0.001347178697706534,0.002551298178142764,0.0,0.0,0.0,0.0,0.0,0.0,0.0,0.0,0.0,0.017399730504903684,-0.0009167650107503988,9.810736755834466,0.0,0.0,0.0,0.0,0.0,0.0,0.0,0.0,0.0
2025/05/25 18:47:40.214189135,1748191660,213925911,mA1/imu,0.7913421708097943,0.6113727870099306,-1.1698138651219123e-05,0.0009401408967787941,0.0,0.0,0.0,0.0,0.0,0.0,0.0,0.0,0.0,0.0019118572247083846,0.001449057228168279,0.002435198014776067,0.0,0.0,0.0,0.0,0.0,0.0,0.0,0.0,0.0,0.014030949882963007,-0.4651242041560909,9.810050024857773,0.0,0.0,0.0,0.0,0.0,0.0,0.0,0.0,0.0
2025/05/25 18:47:40.265913474,1748191660,264964216,mA1/imu,0.7913788006812746,0.6113254335580538,4.043329450371025e-06,0.0008989443679468185,0.0,0.0,0.0,0.0,0.0,0.0,0.0,0.0,0.0,0.0006543059911834849,0.0015192036602012886,0.0023694969411844997,0.0,0.0,0.0,0.0,0.0,0.0,0.0,0.0,0.0,0.01488622691360863,-0.20655042798842632,9.810745867262959,0.0,0.0,0.0,0.0,0.0,0.0,0.0,0.0,0.0
2025/05/25 18:47:40.314878687,1748191660,314723471,mA1/imu,0.7914144479518072,0.6112793533526579,1.482808159575694e-05,0.0008505986249580126,0.0,0.0,0.0,0.0,0.0,0.0,0.0,0.0,0.0,-2.3205736857263624e-05,0.0015180653841750896,0.0023050491483059105,0.0,0.0,0.0,0.0,0.0,0.0,0.0,0.0,0.0,0.014502262339963512,-0.0772729343809794,9.809569605830065,0.0,0.0,0.0,0.0,0.0,0.0,0.0,0.0,0.0
2025/05/25 18:47:40.366237254,1748191660,366062469,mA1/imu,0.791452053414367,0.6112307301360518,3.1788416757978755e-05,0.0008004205317208681,0.0,0.0,0.0,0.0,0.0,0.0,0.0,0.0,0.0,-0.0007827300256517812,0.0018642546453916107,0.002518191933561174,0.0,0.0,0.0,0.0,0.0,0.0,0.0,0.0,0.0,0.0165430770455827,0.5001479544704058,9.810460514976468,0.0,0.0,0.0,0.0,0.0,0.0,0.0,0.0,0.0
2025/05/25 18:47:40.418447226,1748191660,418215735,mA1/imu,0.7914900053602422,0.6111816447816978,4.923093856326475e-05,0.0007523782938805792,0.0,0.0,0.0,0.0,0.0,0.0,0.0,0.0,0.0,0.0010647255944675616,0.0016218544525597649,0.00245904416337071,0.0,0.0,0.0,0.0,0.0,0.0,0.0,0.0,0.0,0.01575173546786524,-0.27115386360711013,9.809679038217919,0.0,0.0,0.0,0.0,0.0,0.0,0.0,0.0,0.0
2025/05/25 18:47:40.469293129,1748191660,469197035,mA1/imu,0.7915276112946512,0.6111329904068542,6.401339320335413e-05,0.0007102794134286668,0.0,0.0,0.0,0.0,0.0,0.0,0.0,0.0,0.0,0.0011833562179858616,0.0013931121167352703,0.002453748864652141,0.0,0.0,0.0,0.0,0.0,0.0,0.0,0.0,0.0,0.01596602990024347,0.031482962636594024,9.810018608960696,0.0,0.0,0.0,0.0,0.0,0.0,0.0,0.0,0.0
2025/05/25 18:47:40.519944956,1748191660,519728710,mA1/imu,0.7915645875488798,0.6110851291840252,7.765796440529571e-05,0.0006801455400615188,0.0,0.0,0.0,0.0,0.0,0.0,0.0,0.0,0.0,0.00011534313623630926,0.0010065985079971602,0.0023975062210637955,0.0,0.0,0.0,0.0,0.0,0.0,0.0,0.0,0.0,0.016450751242746312,0.5999345370470708,9.810879562279238,0.0,0.0,0.0,0.0,0.0,0.0,0.0,0.0,0.0
2025/05/25 18:47:40.571120841,1748191660,570967906,mA1/imu,0.7916007193165243,0.6110383375452062,9.023292390506496e-05,0.0006656467317438534,0.0,0.0,0.0,0.0,0.0,0.0,0.0,0.0,0.0,-0.0013388318641431457,0.000581661770867874,0.0023435707666742364,0.0,0.0,0.0,0.0,0.0,0.0,0.0,0.0,0.0,0.016171397272346497,0.49649672785303406,9.810532024157215,0.0,0.0,0.0,0.0,0.0,0.0,0.0,0.0,0.0
2025/05/25 18:47:40.621052360,1748191660,620823537,mA1/imu,0.7916360374951501,0.610992587449526,9.453045159255415e-05,0.0006582436514105718,0.0,0.0,0.0,0.0,0.0,0.0,0.0,0.0,0.0,0.00013710107542278077,0.00013798038702237818,0.0022907736373189045,0.0,0.0,0.0,0.0,0.0,0.0,0.0,0.0,0.0,0.014954596368679294,-0.6173683331783729,9.809030024244882,0.0,0.0,0.0,0.0,0.0,0.0,0.0,0.0,0.0
2025/05/25 18:47:40.673191315,1748191660,671829591,mA1/imu,0.7916698293058915,0.6109488086518392,8.712963278286297e-05,0.0006534386781675277,0.0,0.0,0.0,0.0,0.0,0.0,0.0,0.0,0.0,0.0015197999409765621,-0.0002834843889875646,0.002178808837202249,0.0,0.0,0.0,0.0,0.0,0.0,0.0,0.0,0.0,0.014082738834928173,-0.47162121531117196,9.808928826415057,0.0,0.0,0.0,0.0,0.0,0.0,0.0,0.0,0.0
2025/05/25 18:47:40.721921958,1748191660,721722575,mA1/imu,0.7917027635745792,0.6109061085238466,8.642768538292568e-05,0.0006732361243422195,0.0,0.0,0.0,0.0,0.0,0.0,0.0,0.0,0.0,0.00026896139300514944,-0.0006437501948760075,0.0021632690589452196,0.0,0.0,0.0,0.0,0.0,0.0,0.0,0.0,0.0,0.010997938533784063,-0.04939348437751783,9.808610068216296,0.0,0.0,0.0,0.0,0.0,0.0,0.0,0.0,0.0
2025/05/25 18:47:40.773103378,1748191660,772797296,mA1/imu,0.7917356673446251,0.6108634342617594,8.24592969394754e-05,0.0007006687909165623,0.0,0.0,0.0,0.0,0.0,0.0,0.0,0.0,0.0,-0.0013506673632750824,-0.0009232432518677584,0.002135937086889086,0.0,0.0,0.0,0.0,0.0,0.0,0.0,0.0,0.0,0.014210399106269804,-0.043876246082918055,9.80924499083468,0.0,0.0,0.0,0.0,0.0,0.0,0.0,0.0,0.0
2025/05/25 18:47:40.822861358,1748191660,822722550,mA1/imu,0.7917677800743051,0.6108217772696809,7.121131909767109e-05,0.0007306013022695476,0.0,0.0,0.0,0.0,0.0,0.0,0.0,0.0,0.0,-0.0016492419287654765,-0.001183231571854864,0.002081712224290164,0.0,0.0,0.0,0.0,0.0,0.0,0.0,0.0,0.0,0.013526175556499124,-0.04961897714275066,9.809567762684129,0.0,0.0,0.0,0.0,0.0,0.0,0.0,0.0,0.0
2025/05/25 18:47:40.873901847,1748191660,873668146,mA1/imu,0.7917990766829252,0.6107811671006179,5.6060080337989e-05,0.0007648114421103442,0.0,0.0,0.0,0.0,0.0,0.0,0.0,0.0,0.0,-0.0018115635669378196,-0.0013825532426778183,0.0020294339561178335,0.0,0.0,0.0,0.0,0.0,0.0,0.0,0.0,0.0,0.013220902324830863,0.5751890473762308,9.810199716143183,0.0,0.0,0.0,0.0,0.0,0.0,0.0,0.0,0.0
2025/05/25 18:47:40.923754934,1748191660,923583978,mA1/imu,0.7918297572395021,0.6107413359947774,4.3793173939153966e-05,0.0008087889117646596,0.0,0.0,0.0,0.0,0.0,0.0,0.0,0.0,0.0,-0.000868717775080595,-0.0015012148365787055,0.0020189383922062498,0.0,0.0,0.0,0.0,0.0,0.0,0.0,0.0,0.0,0.012473469188397722,0.019842744237155624,9.811015267706667,0.0,0.0,0.0,0.0,0.0,0.0,0.0,0.0,0.0
2025/05/25 18:47:40.964896284,1748191660,964546195,mA1/imu,0.7918606739056404,0.6107011912556793,2.9681525203415523e-05,0.0008527834463889794,0.0,0.0,0.0,0.0,0.0,0.0,0.0,0.0,0.0,-0.0010976273183143038,-0.0015317397662719804,0.0020115298287494542,0.0,0.0,0.0,0.0,0.0,0.0,0.0,0.0,0.0,0.01315436096217415,0.002034890943767638,9.810611238828812,0.0,0.0,0.0,0.0,0.0,0.0,0.0,0.0,0.0
2025/05/25 18:47:41.15170234,1748191661,14610334,mA1/imu,0.7918909440501846,0.6106618760974835,1.6588745047666138e-05,0.0008975172550188988,0.0,0.0,0.0,0.0,0.0,0.0,0.0,0.0,0.0,-0.002042558661071246,-0.0014776203263008952,0.001965746564867531,0.0,0.0,0.0,0.0,0.0,0.0,0.0,0.0,0.0,0.013329372288395862,0.4987139836255672,9.809874045785158,0.0,0.0,0.0,0.0,0.0,0.0,0.0,0.0,0.0
2025/05/25 18:47:41.65933745,1748191661,65657444,mA1/imu,0.7919207478368799,0.6106231659723287,3.064064437910516e-06,0.000937184089940854,0.0,0.0,0.0,0.0,0.0,0.0,0.0,0.0,0.0,-0.0008120601582360371,-0.0013157942106048765,0.001952270782448135,0.0,0.0,0.0,0.0,0.0,0.0,0.0,0.0,0.0,0.011675968635884337,0.01842389291701277,9.810251080727655,0.0,0.0,0.0,0.0,0.0,0.0,0.0,0.0,0.0
2025/05/25 18:47:41.116829726,1748191661,115452110,mA1/imu,0.7919501797618079,0.6105849313274353,-3.8440458135059015e-06,0.0009769321033859515,0.0,0.0,0.0,0.0,0.0,0.0,0.0,0.0,0.0,0.00012714387074556265,-0.0011140401684715986,0.001913030721136425,0.0,0.0,0.0,0.0,0.0,0.0,0.0,0.0,0.0,0.012469281445519629,-0.5538369981757503,9.809009030249033,0.0,0.0,0.0,0.0,0.0,0.0,0.0,0.0,0.0
2025/05/25 18:47:41.166717530,1748191661,166448010,mA1/imu,0.7919789489253123,0.6105475629331436,-9.052888186387076e-06,0.0010088476602923607,0.0,0.0,0.0,0.0,0.0,0.0,0.0,0.0,0.0,-0.001488589694479226,-0.0008366063116207553,0.0018685219618794272,0.0,0.0,0.0,0.0,0.0,0.0,0.0,0.0,0.0,0.012591576737247926,0.16518376766565157,9.810053486003902,0.0,0.0,0.0,0.0,0.0,0.0,0.0,0.0,0.0
2025/05/25 18:47:41.216444963,1748191661,216297986,mA1/imu,0.7920070536868752,0.6105110636533676,-1.0814388176156415e-05,0.0010334167202849067,0.0,0.0,0.0,0.0,0.0,0.0,0.0,0.0,0.0,-0.0012743473841193204,-0.0005236528770952348,0.0018252117256449538,0.0,0.0,0.0,0.0,0.0,0.0,0.0,0.0,0.0,0.012145523270904467,-0.039417062762879575,9.80952710441789,0.0,0.0,0.0,0.0,0.0,0.0,0.0,0.0,0.0
2025/05/25 18:47:41.268377374,1748191661,268193503,mA1/imu,0.7920345112707688,0.6104754238853998,-1.3114330007069357e-05,0.0010438467463590173,0.0,0.0,0.0,0.0,0.0,0.0,0.0,0.0,0.0,0.0004961851791463701,-0.00019326799695652905,0.001782542254789535,0.0,0.0,0.0,0.0,0.0,0.0,0.0,0.0,0.0,0.012230053712999907,-0.564971512040481,9.810306162136058,0.0,0.0,0.0,0.0,0.0,0.0,0.0,0.0,0.0
2025/05/25 18:47:41.318322374,1748191661,318048982,mA1/imu,0.7920613294661638,0.6104406252077136,-1.1250476812591989e-05,0.0010456260017800032,0.0,0.0,0.0,0.0,0.0,0.0,0.0,0.0,0.0,0.0005711107639195991,0.00014845226686581366,0.0017405119275030125,0.0,0.0,0.0,0.0,0.0,0.0,0.0,0.0,0.0,0.012578307640331047,0.05209425306232922,9.811352572401919,0.0,0.0,0.0,0.0,0.0,0.0,0.0,0.0,0.0
2025/05/25 18:47:41.369237206,1748191661,369108654,mA1/imu,0.7920868854022302,0.610407469003505,6.496149261906153e-08,0.0010429566266911652,0.0,0.0,0.0,0.0,0.0,0.0,0.0,0.0,0.0,-0.0007907443572864301,0.0005706129299975465,0.001645881220764708,0.0,0.0,0.0,0.0,0.0,0.0,0.0,0.0,0.0,0.012129617959262751,0.5733408650152094,9.810380315990162,0.0,0.0,0.0,0.0,0.0,0.0,0.0,0.0,0.0
2025/05/25 18:47:41.419790572,1748191661,419316371,mA1/imu,0.7921115576985488,0.6103754754384826,1.3523775418654836e-05,0.0010290581774436204,0.0,0.0,0.0,0.0,0.0,0.0,0.0,0.0,0.0,-0.00023533412931314555,0.0008922265618008338,0.0015979158301814092,0.0,0.0,0.0,0.0,0.0,0.0,0.0,0.0,0.0,0.011677483322329131,-0.1013285282575265,9.80934055535664,0.0,0.0,0.0,0.0,0.0,0.0,0.0,0.0,0.0
2025/05/25 18:47:41.470749821,1748191661,470474719,mA1/imu,0.7921373820142946,0.6103420159194446,2.6310268940217844e-05,0.00099545301133915,0.0,0.0,0.0,0.0,0.0,0.0,0.0,0.0,0.0,0.0015134144089000495,0.00135014868010003,0.0016980759426749312,0.0,0.0,0.0,0.0,0.0,0.0,0.0,0.0,0.0,0.01288218887639487,-0.5604998234256345,9.809920267486925,0.0,0.0,0.0,0.0,0.0,0.0,0.0,0.0,0.0
2025/05/25 18:47:41.520489165,1748191661,520331367,mA1/imu,0.7921629485212551,0.6103088914255355,4.3432936936348534e-05,0.0009582017664708079,0.0,0.0,0.0,0.0,0.0,0.0,0.0,0.0,0.0,0.001403496660461312,0.001515102108748222,0.0016588954361440882,0.0,0.0,0.0,0.0,0.0,0.0,0.0,0.0,0.0,0.012401765303020024,-0.46507265393575836,9.809041293573921,0.0,0.0,0.0,0.0,0.0,0.0,0.0,0.0,0.0
2025/05/25 18:47:41.572156866,1748191661,572011528,mA1/imu,0.7921883593227058,0.6102759654188674,6.468255425814658e-05,0.0009193485933703631,0.0,0.0,0.0,0.0,0.0,0.0,0.0,0.0,0.0,0.0005643451509654092,0.0016525318764689795,0.0016556507481585011,0.0,0.0,0.0,0.0,0.0,0.0,0.0,0.0,0.0,0.01392739498229334,-0.025418719030657032,9.811109218125539,0.0,0.0,0.0,0.0,0.0,0.0,0.0,0.0,0.0
2025/05/25 18:47:41.622000493,1748191661,621781048,mA1/imu,0.7922133000477669,0.6102436626651591,7.726483964594957e-05,0.0008680060961428701,0.0,0.0,0.0,0.0,0.0,0.0,0.0,0.0,0.0,-0.00020659724766967856,0.0016409445378283833,0.0016181340524185645,0.0,0.0,0.0,0.0,0.0,0.0,0.0,0.0,0.0,0.014052310450597221,0.5423296062066444,9.809936024355624,0.0,0.0,0.0,0.0,0.0,0.0,0.0,0.0,0.0
2025/05/25 18:47:41.672907835,1748191661,672728396,mA1/imu,0.7922376724794324,0.6102120841616603,9.044307717349698e-05,0.0008212597057715594,0.0,0.0,0.0,0.0,0.0,0.0,0.0,0.0,0.0,0.0005711171575932612,0.0015022970515969182,0.0015815219125386096,0.0,0.0,0.0,0.0,0.0,0.0,0.0,0.0,0.0,0.014435695812781127,-0.040160549135359006,9.809102303674536,0.0,0.0,0.0,0.0,0.0,0.0,0.0,0.0,0.0
2025/05/25 18:47:41.722781183,1748191661,722634244,mA1/imu,0.7922616268116769,0.6101810483319416,9.533033996467281e-05,0.0007706168790115324,0.0,0.0,0.0,0.0,0.0,0.0,0.0,0.0,0.0,0.0004003764078559061,0.0013395602081778721,0.0015732374104920981,0.0,0.0,0.0,0.0,0.0,0.0,0.0,0.0,0.0,0.011054387031408099,0.576018089880568,9.81035495196266,0.0,0.0,0.0,0.0,0.0,0.0,0.0,0.0,0.0
2025/05/25 18:47:41.773819568,1748191661,773557852,mA1/imu,0.7922858838403116,0.6101496065648265,9.836528656778306e-05,0.0007253967425734073,0.0,0.0,0.0,0.0,0.0,0.0,0.0,0.0,0.0,0.0020931352004250293,0.0010887469575852303,0.0015788870171729232,0.0,0.0,0.0,0.0,0.0,0.0,0.0,0.0,0.0,0.013944867665621464,0.06576783662495568,9.809654468198232,0.0,0.0,0.0,0.0,0.0,0.0,0.0,0.0,0.0
2025/05/25 18:47:41.823657932,1748191661,823474498,mA1/imu,0.7923096771484506,0.6101187571644251,9.500318704913445e-05,0.0006845636931464004,0.0,0.0,0.0,0.0,0.0,0.0,0.0,0.0,0.0,0.002966851436926471,0.000740580057596467,0.0015448141225892842,0.0,0.0,0.0,0.0,0.0,0.0,0.0,0.0,0.0,0.014383574866074385,-0.26407968874643667,9.808706103965987,0.0,0.0,0.0,0.0,0.0,0.0,0.0,0.0,0.0
2025/05/25 18:47:41.874575444,1748191661,874408901,mA1/imu,0.7923329493408658,0.6100885673683868,8.955642678846765e-05,0.0006552364768716093,0.0,0.0,0.0,0.0,0.0,0.0,0.0,0.0,0.0,0.0017113850371635792,0.00039196875890839134,0.0015117983400080126,0.0,0.0,0.0,0.0,0.0,0.0,0.0,0.0,0.0,0.013983096564346497,0.05197278198839259,9.810167852732162,0.0,0.0,0.0,0.0,0.0,0.0,0.0,0.0,0.0
2025/05/25 18:47:41.914494486,1748191661,914214327,mA1/imu,0.7923557402332619,0.6100589869051875,8.173343770825236e-05,0.0006377579957490186,0.0,0.0,0.0,0.0,0.0,0.0,0.0,0.0,0.0,0.001789534560378691,3.091027801792411e-05,0.0014836698521438914,0.0,0.0,0.0,0.0,0.0,0.0,0.0,0.0,0.0,0.012526792822652233,-0.5625411681632636,9.809008734848247,0.0,0.0,0.0,0.0,0.0,0.0,0.0,0.0,0.0
2025/05/25 18:47:41.967782645,1748191661,966552232,mA1/imu,0.7923755642602089,0.6100332541391124,6.253653232327441e-05,0.0006245774112275384,0.0,0.0,0.0,0.0,0.0,0.0,0.0,0.0,0.0,-0.000331834593782017,-0.0004606187790610955,0.0012286976652514819,0.0,0.0,0.0,0.0,0.0,0.0,0.0,0.0,0.0,0.014538149914018566,0.29486302582438845,9.810871273938139,0.0,0.0,0.0,0.0,0.0,0.0,0.0,0.0,0.0
2025/05/25 18:47:42.16553559,1748191662,16327419,mA1/imu,0.7923934860640265,0.6100099828392224,3.6982280828567126e-05,0.0006186372944552455,0.0,0.0,0.0,0.0,0.0,0.0,0.0,0.0,0.0,0.000737271704226123,-0.0007944450544174785,0.0011389159641009754,0.0,0.0,0.0,0.0,0.0,0.0,0.0,0.0,0.0,0.01333841937410531,-0.6033075478694636,9.809035837657492,0.0,0.0,0.0,0.0,0.0,0.0,0.0,0.0,0.0
2025/05/25 18:47:42.67667124,1748191662,67336943,mA1/imu,0.7924108810650895,0.609987385122929,1.045973640972312e-05,0.0006208471100950265,0.0,0.0,0.0,0.0,0.0,0.0,0.0,0.0,0.0,0.0007321711365451981,-0.0009464667800652513,0.001147765042643214,0.0,0.0,0.0,0.0,0.0,0.0,0.0,0.0,0.0,0.009867247136219448,0.04050948488903417,9.809232509648695,0.0,0.0,0.0,0.0,0.0,0.0,0.0,0.0,0.0
2025/05/25 18:47:42.117567045,1748191662,117215647,mA1/imu,0.7924282117142082,0.6099648626913949,-1.6069932826366347e-05,0.0006287312995904294,0.0,0.0,0.0,0.0,0.0,0.0,0.0,0.0,0.0,0.0003300299575893999,-0.0010795952383700696,0.0011264595209254334,0.0,0.0,0.0,0.0,0.0,0.0,0.0,0.0,0.0,0.010698166874230884,0.6585220499319686,9.81074916234042,0.0,0.0,0.0,0.0,0.0,0.0,0.0,0.0,0.0
2025/05/25 18:47:42.168605708,1748191662,168264968,mA1/imu,0.7924451554818289,0.6099428189674485,-2.951219769551088e-05,0.000657474298113866,0.0,0.0,0.0,0.0,0.0,0.0,0.0,0.0,0.0,-0.0012873332886900201,-0.0011537419079823226,0.0011020528196879326,0.0,0.0,0.0,0.0,0.0,0.0,0.0,0.0,0.0,0.010250260018560995,0.5573792532208776,9.810325907897077,0.0,0.0,0.0,0.0,0.0,0.0,0.0,0.0,0.0
2025/05/25 18:47:42.218452254,1748191662,218228141,mA1/imu,0.792461744321146,0.609921244124965,-5.15324358030201e-05,0.0006760894537086405,0.0,0.0,0.0,0.0,0.0,0.0,0.0,0.0,0.0,0.0009055494047490301,-0.001153229867007369,0.0010787002934234164,0.0,0.0,0.0,0.0,0.0,0.0,0.0,0.0,0.0,0.00988545831376481,-0.4945201505656423,9.809865585526657,0.0,0.0,0.0,0.0,0.0,0.0,0.0,0.0,0.0
2025/05/25 18:47:42.270430690,1748191662,269400672,mA1/imu,0.7924786996985671,0.6098991841083078,-6.523673248784282e-05,0.0007010650881183115,0.0,0.0,0.0,0.0,0.0,0.0,0.0,0.0,0.0,0.00048804815410953675,-0.0009876857539086235,0.001129547214825435,0.0,0.0,0.0,0.0,0.0,0.0,0.0,0.0,0.0,0.008897516238045548,0.13207065174782484,9.810237811391433,0.0,0.0,0.0,0.0,0.0,0.0,0.0,0.0,0.0
2025/05/25 18:47:42.327880315,1748191662,322704610,mA1/imu,0.7924956876770451,0.6098770662548421,-6.54179366154458e-05,0.000738099023012196,0.0,0.0,0.0,0.0,0.0,0.0,0.0,0.0,0.0,-0.0010882092197070392,-0.000860812182602072,0.0011066157708457215,0.0,0.0,0.0,0.0,0.0,0.0,0.0,0.0,0.0,0.009513070967490798,-0.028958583364845324,9.80898900625355,0.0,0.0,0.0,0.0,0.0,0.0,0.0,0.0,0.0
2025/05/25 18:47:42.365547538,1748191662,365362791,mA1/imu,0.792512346664486,0.609855382807392,-6.7130530161452e-05,0.0007667716026640602,0.0,0.0,0.0,0.0,0.0,0.0,0.0,0.0,0.0,-0.00021356359711954104,-0.0006789240535867787,0.001085107525022282,0.0,0.0,0.0,0.0,0.0,0.0,0.0,0.0,0.0,0.009013237147705702,-0.5606336626816739,9.810178565233622,0.0,0.0,0.0,0.0,0.0,0.0,0.0,0.0,0.0
2025/05/25 18:47:42.416574743,1748191662,415556074,mA1/imu,0.7925286742245765,0.6098341315571375,-6.457360409706871e-05,0.0007926853326824133,0.0,0.0,0.0,0.0,0.0,0.0,0.0,0.0,0.0,-0.00033800161892239895,-0.00046638827362631207,0.0010634699304809623,0.0,0.0,0.0,0.0,0.0,0.0,0.0,0.0,0.0,0.009436536039554402,0.06358121946584624,9.811507113753246,0.0,0.0,0.0,0.0,0.0,0.0,0.0,0.0,0.0
2025/05/25 18:47:42.466931962,1748191662,466767925,mA1/imu,0.7925446665515788,0.6098133085165522,-5.095037116961855e-05,0.0008232137041868046,0.0,0.0,0.0,0.0,0.0,0.0,0.0,0.0,0.0,-0.0020227081259392293,-0.0002133260001035575,0.0010422256864881013,0.0,0.0,0.0,0.0,0.0,0.0,0.0,0.0,0.0,0.009075952125163883,0.5819595868310247,9.81059710031851,0.0,0.0,0.0,0.0,0.0,0.0,0.0,0.0,0.0
2025/05/25 18:47:42.517064855,1748191662,516693196,mA1/imu,0.7925603383147026,0.6097929094092072,-3.4888674345729114e-05,0.0008464912988419466,0.0,0.0,0.0,0.0,0.0,0.0,0.0,0.0,0.0,-0.0006540678089656531,3.737365256552136e-05,0.0010208234977871218,0.0,0.0,0.0,0.0,0.0,0.0,0.0,0.0,0.0,0.0087253872645454,-0.5818991174431954,9.80983217561125,0.0,0.0,0.0,0.0,0.0,0.0,0.0,0.0,0.0
2025/05/25 18:47:42.571236263,1748191662,571066585,mA1/imu,0.792575685492647,0.6097729441044607,-1.868447264421661e-05,0.0008596830402077261,0.0,0.0,0.0,0.0,0.0,0.0,0.0,0.0,0.0,-0.0003027907189939955,0.0002908405046544732,0.0009992001095508291,0.0,0.0,0.0,0.0,0.0,0.0,0.0,0.0,0.0,0.00874012122928071,0.06693426013397084,9.809577200083874,0.0,0.0,0.0,0.0,0.0,0.0,0.0,0.0,0.0
2025/05/25 18:47:42.621269197,1748191662,620980317,mA1/imu,0.7925906983211026,0.6097534090555821,6.423544974061568e-06,0.0008746649077063903,0.0,0.0,0.0,0.0,0.0,0.0,0.0,0.0,0.0,-0.0003849046196225941,0.0005165955519121725,0.000977875647364027,0.0,0.0,0.0,0.0,0.0,0.0,0.0,0.0,0.0,0.009391401479840657,0.3402472174733557,9.81135475763959,0.0,0.0,0.0,0.0,0.0,0.0,0.0,0.0,0.0
2025/05/25 18:47:42.672346616,1748191662,672198208,mA1/imu,0.7926053866535019,0.609734298666631,3.533933188256511e-05,0.0008859054666676273,0.0,0.0,0.0,0.0,0.0,0.0,0.0,0.0,0.0,-0.001722030708322105,0.0007173230774221951,0.0009565861738135671,0.0,0.0,0.0,0.0,0.0,0.0,0.0,0.0,0.0,0.009540860041983169,0.58070078835678,9.810329418922091,0.0,0.0,0.0,0.0,0.0,0.0,0.0,0.0,0.0
2025/05/25 18:47:42.722287748,1748191662,722044004,mA1/imu,0.7926197574877469,0.6097156114764708,6.291198550181581e-05,0.0008883715554107301,0.0,0.0,0.0,0.0,0.0,0.0,0.0,0.0,0.0,-0.000577771825112806,0.0008761211208948036,0.0009357675572608193,0.0,0.0,0.0,0.0,0.0,0.0,0.0,0.0,0.0,0.008739608357485641,-0.3491697135555396,9.809018721248911,0.0,0.0,0.0,0.0,0.0,0.0,0.0,0.0,0.0
2025/05/25 18:47:42.773413690,1748191662,773254689,mA1/imu,0.7926338304746386,0.6096973222122529,8.79206749660974e-05,0.0008822382133381488,0.0,0.0,0.0,0.0,0.0,0.0,0.0,0.0,0.0,0.000761218843985549,0.000973931887832509,0.0009161814651473567,0.0,0.0,0.0,0.0,0.0,0.0,0.0,0.0,0.0,0.00937492607581624,-0.5320330413914621,9.809715826011475,0.0,0.0,0.0,0.0,0.0,0.0,0.0,0.0,0.0
2025/05/25 18:47:42.824109879,1748191662,823860218,mA1/imu,0.7926476005725013,0.6096794214918915,0.00011632675567845475,0.0008779430818449082,0.0,0.0,0.0,0.0,0.0,0.0,0.0,0.0,0.0,0.00021924630636015367,0.0010083543496122178,0.0008965783206376871,0.0,0.0,0.0,0.0,0.0,0.0,0.0,0.0,0.0,0.010284786277304196,0.04310496049689963,9.80898592942558,0.0,0.0,0.0,0.0,0.0,0.0,0.0,0.0,0.0
2025/05/25 18:47:42.865677430,1748191662,865420044,mA1/imu,0.7926610801422368,0.609661906741354,0.00013979422537869455,0.0008671527049648393,0.0,0.0,0.0,0.0,0.0,0.0,0.0,0.0,0.0,0.0009540886120712718,0.0009873596633423105,0.0008771628976606701,0.0,0.0,0.0,0.0,0.0,0.0,0.0,0.0,0.0,0.009837901844335953,-0.5469236236524648,9.808010402730478,0.0,0.0,0.0,0.0,0.0,0.0,0.0,0.0,0.0
2025/05/25 18:47:42.915888449,1748191662,915262550,mA1/imu,0.7926742722820436,0.6096447715863577,0.0001580307351973652,0.0008518015245199147,0.0,0.0,0.0,0.0,0.0,0.0,0.0,0.0,0.0,0.001467933213627001,0.0008998919838739905,0.0008583353467631278,0.0,0.0,0.0,0.0,0.0,0.0,0.0,0.0,0.0,0.010778278965895843,-0.5302558095836012,9.809069058490731,0.0,0.0,0.0,0.0,0.0,0.0,0.0,0.0,0.0
2025/05/25 18:47:42.966454169,1748191662,966248873,mA1/imu,0.7926871778363229,0.6096280064203344,0.00017396155856810468,0.0008376271429410171,0.0,0.0,0.0,0.0,0.0,0.0,0.0,0.0,0.0,0.0006744974221108284,0.0007897064390200925,0.0008392535022164023,0.0,0.0,0.0,0.0,0.0,0.0,0.0,0.0,0.0,0.010583000864454122,-0.5960836511335467,9.809911759465082,0.0,0.0,0.0,0.0,0.0,0.0,0.0,0.0,0.0
2025/05/25 18:47:43.18879843,1748191663,17089837,mA1/imu,0.7926996653514403,0.6096117932779568,0.0001806337392870693,0.0008181806651183847,0.0,0.0,0.0,0.0,0.0,0.0,0.0,0.0,0.0,4.18023900267973e-05,0.0005784693871268833,0.0007913466345975115,0.0,0.0,0.0,0.0,0.0,0.0,0.0,0.0,0.0,0.01501197854756937,-0.0187916720962319,9.80980793258319,0.0,0.0,0.0,0.0,0.0,0.0,0.0,0.0,0.0
2025/05/25 18:47:43.68367614,1748191663,67774697,mA1/imu,0.7927140882838805,0.6095930656351601,0.00018278217937655152,0.0007969670373062991,0.0,0.0,0.0,0.0,0.0,0.0,0.0,0.0,0.0,-0.001181421245560115,0.00047778669185822155,0.000983196779369259,0.0,0.0,0.0,0.0,0.0,0.0,0.0,0.0,0.0,0.019711047208469584,0.5071553214610957,9.80995843384552,0.0,0.0,0.0,0.0,0.0,0.0,0.0,0.0,0.0
2025/05/25 18:47:43.117903530,1748191663,117623296,mA1/imu,0.7927290523093538,0.6095736423162486,0.00016880741360370102,0.0007718303395324123,0.0,0.0,0.0,0.0,0.0,0.0,0.0,0.0,0.0,0.000507347028685743,-1.8492319410822907e-05,0.0009752173200233888,0.0,0.0,0.0,0.0,0.0,0.0,0.0,0.0,0.0,0.018489814180619728,-0.012762570471348062,9.810067406591694,0.0,0.0,0.0,0.0,0.0,0.0,0.0,0.0,0.0
2025/05/25 18:47:43.169419076,1748191663,168820931,mA1/imu,0.792743751980023,0.6095545580818448,0.00014216063492500277,0.0007511382272955542,0.0,0.0,0.0,0.0,0.0,0.0,0.0,0.0,0.0,0.00214886615279745,-0.0005455513885235457,0.000936407329992872,0.0,0.0,0.0,0.0,0.0,0.0,0.0,0.0,0.0,0.020015323108357443,0.08408881213350976,9.810851680406387,0.0,0.0,0.0,0.0,0.0,0.0,0.0,0.0,0.0
2025/05/25 18:47:43.218904228,1748191663,218685541,mA1/imu,0.7927568639764462,0.6095375224989754,0.0001087274482737743,0.0007426051329852645,0.0,0.0,0.0,0.0,0.0,0.0,0.0,0.0,0.0,0.002288138955807094,-0.0010621416614688206,0.0008123496893295333,0.0,0.0,0.0,0.0,0.0,0.0,0.0,0.0,0.0,0.020415747106336507,0.08257324961194978,9.809556552163105,0.0,0.0,0.0,0.0,0.0,0.0,0.0,0.0,0.0
2025/05/25 18:47:43.272313078,1748191663,271430922,mA1/imu,0.7927722387752977,0.6095175355595753,7.461148465936481e-05,0.0007387189657620683,0.0,0.0,0.0,0.0,0.0,0.0,0.0,0.0,0.0,0.0013914779643683108,-0.0011208082846762702,0.001055633925712024,0.0,0.0,0.0,0.0,0.0,0.0,0.0,0.0,0.0,0.020797024689334566,-0.13755042763237182,9.80901960858232,0.0,0.0,0.0,0.0,0.0,0.0,0.0,0.0,0.0
2025/05/25 18:47:43.321766419,1748191663,321339593,mA1/imu,0.7927880048301539,0.6094970382936962,2.754360118748108e-05,0.0007341321315171157,0.0,0.0,0.0,0.0,0.0,0.0,0.0,0.0,0.0,0.0014422927786232314,-0.0015503299275754483,0.001028580568072597,0.0,0.0,0.0,0.0,0.0,0.0,0.0,0.0,0.0,0.02097569108277756,-0.6051390332400004,9.808035191540045,0.0,0.0,0.0,0.0,0.0,0.0,0.0,0.0,0.0
2025/05/25 18:47:43.372636456,1748191663,372480914,mA1/imu,0.7928036376506952,0.6094767032374767,-2.7937901140124015e-05,0.0007345461698993331,0.0,0.0,0.0,0.0,0.0,0.0,0.0,0.0,0.0,0.0007886266122121128,-0.0019104456812464193,0.0009953005673464653,0.0,0.0,0.0,0.0,0.0,0.0,0.0,0.0,0.0,0.021730428225256317,-0.19768153273579483,9.809548127745305,0.0,0.0,0.0,0.0,0.0,0.0,0.0,0.0,0.0
2025/05/25 18:47:43.423484228,1748191663,423271633,mA1/imu,0.7928182387698369,0.6094576918454575,-8.577466768600712e-05,0.0007448268308247976,0.0,0.0,0.0,0.0,0.0,0.0,0.0,0.0,0.0,0.0008752768688269054,-0.00218019794588853,0.0009324532904715555,0.0,0.0,0.0,0.0,0.0,0.0,0.0,0.0,0.0,0.020986626558097122,0.0004826742340715631,9.810065847720763,0.0,0.0,0.0,0.0,0.0,0.0,0.0,0.0,0.0
2025/05/25 18:47:43.466765402,1748191663,465478441,mA1/imu,0.7928360607640238,0.6094344819783156,-0.00013803333621954632,0.0007575452497703263,0.0,0.0,0.0,0.0,0.0,0.0,0.0,0.0,0.0,0.0014114925340678885,-0.001916650504203181,0.0012659987962706466,0.0,0.0,0.0,0.0,0.0,0.0,0.0,0.0,0.0,0.021913196712896744,-0.5755830392256834,9.80896859912846,0.0,0.0,0.0,0.0,0.0,0.0,0.0,0.0,0.0
2025/05/25 18:47:43.515458949,1748191663,515250034,mA1/imu,0.792854959836316,0.6094098549144221,-0.00018325167025352667,0.0007796248852960104,0.0,0.0,0.0,0.0,0.0,0.0,0.0,0.0,0.0,-1.6411351710077155e-05,-0.001985962005706436,0.001222499713401408,0.0,0.0,0.0,0.0,0.0,0.0,0.0,0.0,0.0,0.02145608083023126,0.14265082144124974,9.810937982018338,0.0,0.0,0.0,0.0,0.0,0.0,0.0,0.0,0.0
2025/05/25 18:47:43.568163390,1748191663,567531679,mA1/imu,0.7928730555591289,0.6093862575475056,-0.00022077136502952362,0.0008112586393852259,0.0,0.0,0.0,0.0,0.0,0.0,0.0,0.0,0.0,-0.002129757283540765,-0.001924701162838823,0.0011647058379514606,0.0,0.0,0.0,0.0,0.0,0.0,0.0,0.0,0.0,0.02163891472907288,0.48207562654849656,9.81022652322667,0.0,0.0,0.0,0.0,0.0,0.0,0.0,0.0,0.0
2025/05/25 18:47:43.617355602,1748191663,617234422,mA1/imu,0.7928903639084224,0.6093636913202419,-0.0002620187374658319,0.000832987346558675,0.0,0.0,0.0,0.0,0.0,0.0,0.0,0.0,0.0,-1.2192169573528951e-05,-0.0017440836669746073,0.0011136415771544864,0.0,0.0,0.0,0.0,0.0,0.0,0.0,0.0,0.0,0.020028353656054917,0.024805178508312556,9.811101225472598,0.0,0.0,0.0,0.0,0.0,0.0,0.0,0.0,0.0
2025/05/25 18:47:43.670537500,1748191663,669346346,mA1/imu,0.7929069147336454,0.6093420970941305,-0.00028600817984880206,0.0008668770499848015,0.0,0.0,0.0,0.0,0.0,0.0,0.0,0.0,0.0,0.00106729203619972,-0.0014794132166457896,0.0010687240608459971,0.0,0.0,0.0,0.0,0.0,0.0,0.0,0.0,0.0,0.018628213629040023,-0.4163579891436483,9.809413921758527,0.0,0.0,0.0,0.0,0.0,0.0,0.0,0.0,0.0
2025/05/25 18:47:43.719563327,1748191663,719386778,mA1/imu,0.792922797868922,0.6093213659184739,-0.00029480646149116646,0.0009070524330638977,0.0,0.0,0.0,0.0,0.0,0.0,0.0,0.0,0.0,0.0004213234384453298,-0.0011331144923091875,0.001025894789513595,0.0,0.0,0.0,0.0,0.0,0.0,0.0,0.0,0.0,0.02067093983237852,-0.36362810857520456,9.80800046149171,0.0,0.0,0.0,0.0,0.0,0.0,0.0,0.0,0.0
2025/05/25 18:47:43.770646265,1748191663,770412064,mA1/imu,0.7929379846486703,0.6093015486932107,-0.00029390838395829084,0.0009428039148752811,0.0,0.0,0.0,0.0,0.0,0.0,0.0,0.0,0.0,-0.00020725121684127295,-0.0006550995330653389,0.0009858030713418512,0.0,0.0,0.0,0.0,0.0,0.0,0.0,0.0,0.0,0.01790659908054467,-0.3923918012828948,9.809678803137974,0.0,0.0,0.0,0.0,0.0,0.0,0.0,0.0,0.0
2025/05/25 18:47:43.821205189,1748191663,820240744,mA1/imu,0.7929526387055649,0.6092824331047727,-0.0002800604084574334,0.000975215862111698,0.0,0.0,0.0,0.0,0.0,0.0,0.0,0.0,0.0,-0.0018083936452334749,-0.00015243365570443223,0.0009519128879873108,0.0,0.0,0.0,0.0,0.0,0.0,0.0,0.0,0.0,0.018687233586959555,0.4473745653857902,9.811586371606529,0.0,0.0,0.0,0.0,0.0,0.0,0.0,0.0,0.0
2025/05/25 18:47:43.871427159,1748191663,871319313,mA1/imu,0.792966804081706,0.6092639622460029,-0.00025309644225538674,0.0010039297472076237,0.0,0.0,0.0,0.0,0.0,0.0,0.0,0.0,0.0,-0.0023119390469298643,0.00035871981272104017,0.0009184692361948486,0.0,0.0,0.0,0.0,0.0,0.0,0.0,0.0,0.0,0.01831147773511259,-0.0512413881440934,9.811081021044432,0.0,0.0,0.0,0.0,0.0,0.0,0.0,0.0,0.0
2025/05/25 18:47:43.921649199,1748191663,921283895,mA1/imu,0.7929805413891582,0.609246063839339,-0.00021736999244198197,0.0010234376951770005,0.0,0.0,0.0,0.0,0.0,0.0,0.0,0.0,0.0,-0.0011861633711856125,0.0008603964734887003,0.0009037996802799139,0.0,0.0,0.0,0.0,0.0,0.0,0.0,0.0,0.0,0.015915347750913206,-0.026914350126641805,9.810761627485991,0.0,0.0,0.0,0.0,0.0,0.0,0.0,0.0,0.0
2025/05/25 18:47:43.972955089,1748191663,972846208,mA1/imu,0.7929915533521775,0.6092317146130581,-0.0001712540753725909,0.0010415823421019502,0.0,0.0,0.0,0.0,0.0,0.0,0.0,0.0,0.0,-0.0016568706827070907,0.0011560509444537555,0.0006578750608005475,0.0,0.0,0.0,0.0,0.0,0.0,0.0,0.0,0.0,0.01600838463366222,0.10429125848381197,9.809314012796436,0.0,0.0,0.0,0.0,0.0,0.0,0.0,0.0,0.0
2025/05/25 18:47:44.22882384,1748191664,22654394,mA1/imu,0.7930008683838693,0.6092195762284983,-0.00011401442717531867,0.0010572053293864947,0.0,0.0,0.0,0.0,0.0,0.0,0.0,0.0,0.0,-0.002114821804104962,0.0016250126674277028,0.0005921965074646373,0.0,0.0,0.0,0.0,0.0,0.0,0.0,0.0,0.0,0.01422112750311257,-0.029816588510112672,9.808956565753839,0.0,0.0,0.0,0.0,0.0,0.0,0.0,0.0,0.0
2025/05/25 18:47:44.74142213,1748191664,73777793,mA1/imu,0.7930059317937909,0.6092129755589961,-5.284413513243847e-05,0.001067594451544941,0.0,0.0,0.0,0.0,0.0,0.0,0.0,0.0,0.0,-0.0018644040928309019,0.00168399394386198,0.00014956278677970985,0.0,0.0,0.0,0.0,0.0,0.0,0.0,0.0,0.0,0.033145093411648126,-0.6674332082128583,9.809058226134141,0.0,0.0,0.0,0.0,0.0,0.0,0.0,0.0,0.0
2025/05/25 18:47:44.117119085,1748191664,115839599,mA1/imu,0.7930067396843367,0.6092119358649264,1.9692852936376666e-06,0.001062078645502286,0.0,0.0,0.0,0.0,0.0,0.0,0.0,0.0,0.0,-0.0009092298841477433,0.002156619054577068,8.99587987016723e-05,0.0,0.0,0.0,0.0,0.0,0.0,0.0,0.0,0.0,0.0006308599498241734,-0.3518545162272794,9.8107619295466,0.0,0.0,0.0,0.0,0.0,0.0,0.0,0.0,0.0
2025/05/25 18:47:44.168199256,1748191664,166854850,mA1/imu,0.7930056954774402,0.6092133123452732,6.688562916211426e-05,0.0010500133116238051,0.0,0.0,0.0,0.0,0.0,0.0,0.0,0.0,0.0,-0.0011511054974887803,0.002558587876104977,-7.89886769732348e-05,0.0,0.0,0.0,0.0,0.0,0.0,0.0,0.0,0.0,0.00041003969987026684,0.169534807338408,9.809875474263258,0.0,0.0,0.0,0.0,0.0,0.0,0.0,0.0,0.0
2025/05/25 18:47:44.216873869,1748191664,216696478,mA1/imu,0.7930053821835298,0.6092137520530393,0.0001390031246002422,0.0010241169578454647,0.0,0.0,0.0,0.0,0.0,0.0,0.0,0.0,0.0,-0.0018906909383435565,0.0031593552938927517,2.4690485018599227e-05,0.0,0.0,0.0,0.0,0.0,0.0,0.0,0.0,0.0,-0.0014900024184654088,0.5507515522289358,9.810223796998308,0.0,0.0,0.0,0.0,0.0,0.0,0.0,0.0,0.0
2025/05/25 18:47:44.268347047,1748191664,268231376,mA1/imu,0.7930052844104577,0.6092139262467132,0.00021064396406251645,0.0009831547555368336,0.0,0.0,0.0,0.0,0.0,0.0,0.0,0.0,0.0,-0.0013052668329256556,0.003384369292771384,7.079997064533128e-07,0.0,0.0,0.0,0.0,0.0,0.0,0.0,0.0,0.0,0.002660979095827104,0.5251729030854732,9.810947093418063,0.0,0.0,0.0,0.0,0.0,0.0,0.0,0.0,0.0
2025/05/25 18:47:44.318517435,1748191664,318175087,mA1/imu,0.7930056157323948,0.6092135536604517,0.00027861318457861887,0.0009283469084627989,0.0,0.0,0.0,0.0,0.0,0.0,0.0,0.0,0.0,0.00021057484228057815,0.003549627322672298,4.0503315250602676e-05,0.0,0.0,0.0,0.0,0.0,0.0,0.0,0.0,0.0,0.0012363657535163792,0.543539051824378,9.811137290616628,0.0,0.0,0.0,0.0,0.0,0.0,0.0,0.0,0.0
2025/05/25 18:47:44.370041657,1748191664,369518706,mA1/imu,0.7930003978833433,0.60922039332701,0.0003338334214211272,0.0008774204177088602,0.0,0.0,0.0,0.0,0.0,0.0,0.0,0.0,0.0,-0.00018010416549212282,0.0029063959172147126,-0.00040192400638591253,0.0,0.0,0.0,0.0,0.0,0.0,0.0,0.0,0.0,0.0004216132521768631,0.5844280921300213,9.812079244466917,0.0,0.0,0.0,0.0,0.0,0.0,0.0,0.0,0.0
2025/05/25 18:47:44.419703695,1748191664,419363962,mA1/imu,0.7929925987756011,0.6092305988183271,0.00037620986778788557,0.0008211070067442227,0.0,0.0,0.0,0.0,0.0,0.0,0.0,0.0,0.0,0.00011510713403313345,0.002312818608126443,-0.0008010103202274743,0.0,0.0,0.0,0.0,0.0,0.0,0.0,0.0,0.0,0.043869046495372585,0.5694527273031558,9.807453988601436,0.0,0.0,0.0,0.0,0.0,0.0,0.0,0.0,0.0
2025/05/25 18:47:44.470432194,1748191664,470245280,mA1/imu,0.7929748562158908,0.6092537302752087,0.00039799345033685507,0.0007817648906037893,0.0,0.0,0.0,0.0,0.0,0.0,0.0,0.0,0.0,0.0003412553530695299,0.0015355878788657872,-0.0011958211877517158,0.0,0.0,0.0,0.0,0.0,0.0,0.0,0.0,0.0,-0.002390233259674402,0.2880798315192702,9.810608755539848,0.0,0.0,0.0,0.0,0.0,0.0,0.0,0.0,0.0
2025/05/25 18:47:44.520304628,1748191664,520053295,mA1/imu,0.7929569344523908,0.6092771039084904,0.0004090916426495471,0.0007371572269031794,0.0,0.0,0.0,0.0,0.0,0.0,0.0,0.0,0.0,0.0019436925272330139,0.0013556137464805409,-0.0011622542676867557,0.0,0.0,0.0,0.0,0.0,0.0,0.0,0.0,0.0,-0.003384500779422017,-0.5879388115001406,9.808846499924325,0.0,0.0,0.0,0.0,0.0,0.0,0.0,0.0,0.0
2025/05/25 18:47:44.573929323,1748191664,573131937,mA1/imu,0.792930189003576,0.609311964432674,0.00039380535868635113,0.0007002023197606577,0.0,0.0,0.0,0.0,0.0,0.0,0.0,0.0,0.0,0.0011039822313265943,5.1019047228162494e-06,-0.002006367864213129,0.0,0.0,0.0,0.0,0.0,0.0,0.0,0.0,0.0,-0.005717186756439575,-0.1777882560680795,9.809593877168178,0.0,0.0,0.0,0.0,0.0,0.0,0.0,0.0,0.0
2025/05/25 18:47:44.625587195,1748191664,623727492,mA1/imu,0.7928958104257701,0.6093567437088792,0.0003624597242035712,0.0006792118381306652,0.0,0.0,0.0,0.0,0.0,0.0,0.0,0.0,0.0,0.00023994923484332086,-0.0014925409034921185,-0.002879372360880981,0.0,0.0,0.0,0.0,0.0,0.0,0.0,0.0,0.0,0.10315635870350853,0.3313910782549951,9.811892859386816,0.0,0.0,0.0,0.0,0.0,0.0,0.0,0.0,0.0
2025/05/25 18:47:44.667607823,1748191664,666897008,mA1/imu,0.7928383978463567,0.6094314680851277,0.000278332038144574,0.0006950822287489568,0.0,0.0,0.0,0.0,0.0,0.0,0.0,0.0,0.0,0.0011110079451883464,-0.003143255914436924,-0.0038570049677503116,0.0,0.0,0.0,0.0,0.0,0.0,0.0,0.0,0.0,-0.01187870734947681,-0.020834123391315726,9.810511416476524,0.0,0.0,0.0,0.0,0.0,0.0,0.0,0.0,0.0
2025/05/25 18:47:44.717006932,1748191664,716701572,mA1/imu,0.7927800869112046,0.6095073342160392,0.0001974450597107743,0.0007101755900769264,0.0,0.0,0.0,0.0,0.0,0.0,0.0,0.0,0.0,0.0015290674363343175,-0.002761133241277739,-0.003811314754024948,0.0,0.0,0.0,0.0,0.0,0.0,0.0,0.0,0.0,-0.012245097556043558,0.07078797168325923,9.81012434782068,0.0,0.0,0.0,0.0,0.0,0.0,0.0,0.0,0.0
2025/05/25 18:47:44.771844182,1748191664,768149589,mA1/imu,0.7927218915182687,0.6095830192188403,0.0001326335394500833,0.0007264957575067562,0.0,0.0,0.0,0.0,0.0,0.0,0.0,0.0,0.0,0.0008718353571488238,-0.002216011824298725,-0.00384584797834709,0.0,0.0,0.0,0.0,0.0,0.0,0.0,0.0,0.0,-0.01386297911203926,0.5262525779597269,9.810205631118166,0.0,0.0,0.0,0.0,0.0,0.0,0.0,0.0,0.0
2025/05/25 18:47:44.817757774,1748191664,817593285,mA1/imu,0.7926634365483772,0.6096590247872311,8.300690313956232e-05,0.0007368613525035961,0.0,0.0,0.0,0.0,0.0,0.0,0.0,0.0,0.0,-7.78925350316927e-05,-0.0015465998806057945,-0.003825218028230723,0.0,0.0,0.0,0.0,0.0,0.0,0.0,0.0,0.0,-0.013382800583733926,0.21071236588394118,9.809493874178916,0.0,0.0,0.0,0.0,0.0,0.0,0.0,0.0,0.0
2025/05/25 18:47:44.870126250,1748191664,869524558,mA1/imu,0.7926053890682335,0.6097344906277087,4.8615618172081294e-05,0.000738779726692882,0.0,0.0,0.0,0.0,0.0,0.0,0.0,0.0,0.0,0.0010497817117774409,-0.0008529383960348449,-0.0037989001293774155,0.0,0.0,0.0,0.0,0.0,0.0,0.0,0.0,0.0,-0.012238533368245043,-0.606952730214157,9.810211909104266,0.0,0.0,0.0,0.0,0.0,0.0,0.0,0.0,0.0
2025/05/25 18:47:44.919771695,1748191664,919371301,mA1/imu,0.7925476992329653,0.6098094831655653,3.1065351580502546e-05,0.0007332917722144652,0.0,0.0,0.0,0.0,0.0,0.0,0.0,0.0,0.0,-0.001006808571244552,-0.00013439547362005189,-0.003782651944440154,0.0,0.0,0.0,0.0,0.0,0.0,0.0,0.0,0.0,-0.00900215380289953,0.5295306877851881,9.810108291139796,0.0,0.0,0.0,0.0,0.0,0.0,0.0,0.0,0.0
2025/05/25 18:47:44.970520641,1748191664,970309579,mA1/imu,0.7924947284463204,0.6098783386977364,3.570397826119898e-05,0.0007183991285732011,0.0,0.0,0.0,0.0,0.0,0.0,0.0,0.0,0.0,-0.00048698710460791687,0.0010988038884517555,-0.0031938677348951846,0.0,0.0,0.0,0.0,0.0,0.0,0.0,0.0,0.0,-0.05570897030172597,0.1543121339506108,9.808856324244246,0.0,0.0,0.0,0.0,0.0,0.0,0.0,0.0,0.0
2025/05/25 18:47:45.20627304,1748191665,20190237,mA1/imu,0.7924543239145947,0.6099308776810913,7.364319618256745e-05,0.000680835454412761,0.0,0.0,0.0,0.0,0.0,0.0,0.0,0.0,0.0,0.00015947783008158565,0.0024391207612895617,-0.0024781128845147373,0.0,0.0,0.0,0.0,0.0,0.0,0.0,0.0,0.0,-0.0004394201908549363,0.0102658399486165,9.807665302044498,0.0,0.0,0.0,0.0,0.0,0.0,0.0,0.0,0.0
2025/05/25 18:47:45.71435780,1748191665,71204574,mA1/imu,0.7924170920172917,0.6099792821009801,0.00012121991929960052,0.0006426446632459566,0.0,0.0,0.0,0.0,0.0,0.0,0.0,0.0,0.0,-0.0006232889637638631,0.0024276871534954806,-0.0024109783225170498,0.0,0.0,0.0,0.0,0.0,0.0,0.0,0.0,0.0,0.005645510014993835,0.5361866846842676,9.80832950513416,0.0,0.0,0.0,0.0,0.0,0.0,0.0,0.0,0.0
2025/05/25 18:47:45.121325298,1748191665,121024159,mA1/imu,0.7923812130568171,0.6100259131640996,0.0001689370424861326,0.0006082131117099868,0.0,0.0,0.0,0.0,0.0,0.0,0.0,0.0,0.0,-0.0009398009829003756,0.0022907936605976497,-0.0023352566085642697,0.0,0.0,0.0,0.0,0.0,0.0,0.0,0.0,0.0,0.005002476593847973,0.5837459913756898,9.811144869933056,0.0,0.0,0.0,0.0,0.0,0.0,0.0,0.0,0.0
2025/05/25 18:47:45.172355788,1748191665,172130398,mA1/imu,0.7923494155645391,0.6100672192749557,0.00022455821963389004,0.000584118363758159,0.0,0.0,0.0,0.0,0.0,0.0,0.0,0.0,0.0,-0.00024815288174109894,0.002293081159186558,-0.0019790407953279424,0.0,0.0,0.0,0.0,0.0,0.0,0.0,0.0,0.0,0.011258815406101746,-0.32505298474385097,9.810335135104534,0.0,0.0,0.0,0.0,0.0,0.0,0.0,0.0,0.0
2025/05/25 18:47:45.222718132,1748191665,222380041,mA1/imu,0.7923188881477032,0.6101068709518501,0.0002670909238376885,0.0005605034954774002,0.0,0.0,0.0,0.0,0.0,0.0,0.0,0.0,0.0,-1.738302492528376e-05,0.0016626815541588328,-0.002005611287322297,0.0,0.0,0.0,0.0,0.0,0.0,0.0,0.0,0.0,0.01129030200287575,0.03700841989259298,9.810878613225357,0.0,0.0,0.0,0.0,0.0,0.0,0.0,0.0,0.0
2025/05/25 18:47:45.273971193,1748191665,273769418,mA1/imu,0.7922910017511408,0.6101430813501149,0.00030078941092369523,0.0005462146934026385,0.0,0.0,0.0,0.0,0.0,0.0,0.0,0.0,0.0,-0.0003721943369869363,0.0011193731124509838,-0.001808021738697513,0.0,0.0,0.0,0.0,0.0,0.0,0.0,0.0,0.0,0.01617975898533961,0.6535417202380127,9.812040156391292,0.0,0.0,0.0,0.0,0.0,0.0,0.0,0.0,0.0
2025/05/25 18:47:45.315613703,1748191665,314384167,mA1/imu,0.7922636821858344,0.6101785272660504,0.00033099749820836874,0.0005596368762355265,0.0,0.0,0.0,0.0,0.0,0.0,0.0,0.0,0.0,-0.0017985699696142395,0.00040660676320190446,-0.0016721986392925468,0.0,0.0,0.0,0.0,0.0,0.0,0.0,0.0,0.0,-0.0004671630716172998,0.5677296423189335,9.809245014014163,0.0,0.0,0.0,0.0,0.0,0.0,0.0,0.0,0.0
2025/05/25 18:47:45.368440352,1748191665,367770881,mA1/imu,0.7922405682794639,0.6102085209682446,0.0003389460959965742,0.0005727351249033273,0.0,0.0,0.0,0.0,0.0,0.0,0.0,0.0,0.0,-0.00042506724730593517,-0.000475212233939761,-0.0015115088598489632,0.0,0.0,0.0,0.0,0.0,0.0,0.0,0.0,0.0,0.018924206884237117,-0.29605836837462557,9.810196227728236,0.0,0.0,0.0,0.0,0.0,0.0,0.0,0.0,0.0
2025/05/25 18:47:45.416525779,1748191665,416205600,mA1/imu,0.7922170854601415,0.6102389871273689,0.00032618835408105667,0.0006014116389520623,0.0,0.0,0.0,0.0,0.0,0.0,0.0,0.0,0.0,0.0003514404159820829,-0.0015309697786902606,-0.0015605953916028898,0.0,0.0,0.0,0.0,0.0,0.0,0.0,0.0,0.0,0.020765787326488344,-0.42171827776766874,9.810145643083947,0.0,0.0,0.0,0.0,0.0,0.0,0.0,0.0,0.0
2025/05/25 18:47:45.468063728,1748191665,467436524,mA1/imu,0.7921971238440977,0.6102648667911864,0.0003038214693816465,0.0006457754949654318,0.0,0.0,0.0,0.0,0.0,0.0,0.0,0.0,0.0,-0.0007286493091722481,-0.002074187784266415,-0.0012063121001912778,0.0,0.0,0.0,0.0,0.0,0.0,0.0,0.0,0.0,0.021678503549092235,0.1107140997372285,9.80937051197843,0.0,0.0,0.0,0.0,0.0,0.0,0.0,0.0,0.0
2025/05/25 18:47:45.517582538,1748191665,517327247,mA1/imu,0.7921784569388537,0.6102890506874573,0.0002658002891778059,0.0007045020832236892,0.0,0.0,0.0,0.0,0.0,0.0,0.0,0.0,0.0,-0.0012702327391976125,-0.0029886004612640566,-0.00123718011539619,0.0,0.0,0.0,0.0,0.0,0.0,0.0,0.0,0.0,0.021738849063129336,-0.0333503022299416,9.809411981985427,0.0,0.0,0.0,0.0,0.0,0.0,0.0,0.0,0.0
2025/05/25 18:47:45.568362542,1748191665,568255261,mA1/imu,0.7921606226933474,0.610312134902568,0.00021404120787250327,0.0007746167563206116,0.0,0.0,0.0,0.0,0.0,0.0,0.0,0.0,0.0,-0.0009879635536050094,-0.003606472433294661,-0.001143261255160046,0.0,0.0,0.0,0.0,0.0,0.0,0.0,0.0,0.0,0.01924477970099945,-0.6531230408459482,9.809754737398336,0.0,0.0,0.0,0.0,0.0,0.0,0.0,0.0,0.0
2025/05/25 18:47:45.618808011,1748191665,618250690,mA1/imu,0.7921436137004714,0.6103341520624171,0.0001378681844435611,0.0008361173197976117,0.0,0.0,0.0,0.0,0.0,0.0,0.0,0.0,0.0,-0.00046276796056743733,-0.0040736735912443095,-0.0010973695696334287,0.0,0.0,0.0,0.0,0.0,0.0,0.0,0.0,0.0,0.017875523487944814,0.008460551904691995,9.811062591892572,0.0,0.0,0.0,0.0,0.0,0.0,0.0,0.0,0.0
2025/05/25 18:47:45.669597592,1748191665,669356766,mA1/imu,0.7921272967343376,0.6103552291584249,6.48336957691556e-05,0.000914223117752942,0.0,0.0,0.0,0.0,0.0,0.0,0.0,0.0,0.0,-0.0012474387595580703,-0.0042809365114242805,-0.0010503823105997459,0.0,0.0,0.0,0.0,0.0,0.0,0.0,0.0,0.0,0.016147306272057762,0.5752321032621287,9.811910314683809,0.0,0.0,0.0,0.0,0.0,0.0,0.0,0.0,0.0
2025/05/25 18:47:45.719429212,1748191665,719095188,mA1/imu,0.7921117058113837,0.6103753608886838,-1.7964794419965174e-05,0.000981842072371592,0.0,0.0,0.0,0.0,0.0,0.0,0.0,0.0,0.0,-0.000740519773824748,-0.004227992739366842,-0.001002255063594214,0.0,0.0,0.0,0.0,0.0,0.0,0.0,0.0,0.0,0.015479530132984238,0.2860797112218185,9.808670001531635,0.0,0.0,0.0,0.0,0.0,0.0,0.0,0.0,0.0
2025/05/25 18:47:45.770305582,1748191665,770109866,mA1/imu,0.7920968352360529,0.6103945361461733,-9.322663484435148e-05,0.0010512662468783384,0.0,0.0,0.0,0.0,0.0,0.0,0.0,0.0,0.0,-0.00023406595475504972,-0.00394317523416282,-0.0009542364495552325,0.0,0.0,0.0,0.0,0.0,0.0,0.0,0.0,0.0,0.014032914926250998,0.22063835096759005,9.809492652533255,0.0,0.0,0.0,0.0,0.0,0.0,0.0,0.0,0.0
2025/05/25 18:47:45.820186512,1748191665,819952518,mA1/imu,0.7920827014587221,0.6104127588327157,-0.0001631901540419353,0.0011096274417497208,0.0,0.0,0.0,0.0,0.0,0.0,0.0,0.0,0.0,-1.6603500033528923e-05,-0.003412313846582854,-0.0009054358642894047,0.0,0.0,0.0,0.0,0.0,0.0,0.0,0.0,0.0,0.013799348926528572,0.0019458000756808046,9.808491811501694,0.0,0.0,0.0,0.0,0.0,0.0,0.0,0.0,0.0
2025/05/25 18:47:45.871606418,1748191665,871219540,mA1/imu,0.7920693320592522,0.6104300029692559,-0.00022197455459125156,0.0011556009091102863,0.0,0.0,0.0,0.0,0.0,0.0,0.0,0.0,0.0,-0.00017911615269104088,-0.002677870631197011,-0.0008549424531086358,0.0,0.0,0.0,0.0,0.0,0.0,0.0,0.0,0.0,0.012933901924903339,-0.022173120504176032,9.81120830566801,0.0,0.0,0.0,0.0,0.0,0.0,0.0,0.0,0.0
2025/05/25 18:47:45.921349770,1748191665,921023428,mA1/imu,0.7920568830435274,0.6104460840796955,-0.00026842924557447887,0.0011833853462690832,0.0,0.0,0.0,0.0,0.0,0.0,0.0,0.0,0.0,0.0005530525531028675,-0.0017580399076737607,-0.0007736890725152723,0.0,0.0,0.0,0.0,0.0,0.0,0.0,0.0,0.0,0.009001044145087147,-0.6095539704213506,9.809362442889078,0.0,0.0,0.0,0.0,0.0,0.0,0.0,0.0,0.0
2025/05/25 18:47:45.972279078,1748191665,972042829,mA1/imu,0.7920459826192771,0.610460198825754,-0.0002986330856848868,0.0011907495811109218,0.0,0.0,0.0,0.0,0.0,0.0,0.0,0.0,0.0,0.0014560175281382397,-0.0007416495031439576,-0.0006902497619548103,0.0,0.0,0.0,0.0,0.0,0.0,0.0,0.0,0.0,0.012250283819267457,-0.559367342057578,9.808433302891133,0.0,0.0,0.0,0.0,0.0,0.0,0.0,0.0,0.0
2025/05/25 18:47:46.22214952,1748191666,21873197,mA1/imu,0.7920359223912303,0.6104732722101519,-0.00031429864014233727,0.0011759146515470083,0.0,0.0,0.0,0.0,0.0,0.0,0.0,0.0,0.0,0.0012821392126598718,0.00026573961144940193,-0.0006448349813756116,0.0,0.0,0.0,0.0,0.0,0.0,0.0,0.0,0.0,0.013243705834083437,0.045781747778558174,9.809479234760186,0.0,0.0,0.0,0.0,0.0,0.0,0.0,0.0,0.0
2025/05/25 18:47:46.73122895,1748191666,72957532,mA1/imu,0.7920266802903361,0.610485314617747,-0.00030941084098476374,0.0011500475085161727,0.0,0.0,0.0,0.0,0.0,0.0,0.0,0.0,0.0,0.0017548155767861697,0.0011135593384708875,-0.000603781450760846,0.0,0.0,0.0,0.0,0.0,0.0,0.0,0.0,0.0,0.01711873556656238,0.19299506093217045,9.810337432596898,0.0,0.0,0.0,0.0,0.0,0.0,0.0,0.0,0.0
2025/05/25 18:47:46.123224198,1748191666,122801143,mA1/imu,0.792017166849798,0.6104977306067776,-0.0002852853562477421,0.0011166698076017078,0.0,0.0,0.0,0.0,0.0,0.0,0.0,0.0,0.0,0.0007982751128070751,0.0018491941884582182,-0.000641659980284749,0.0,0.0,0.0,0.0,0.0,0.0,0.0,0.0,0.0,0.019749240469299507,-0.0006034064562073019,9.807670549663271,0.0,0.0,0.0,0.0,0.0,0.0,0.0,0.0,0.0
2025/05/25 18:47:46.174752220,1748191666,174452495,mA1/imu,0.7920083213408974,0.6105093175652624,-0.0002582052488482564,0.0010608594726615242,0.0,0.0,0.0,0.0,0.0,0.0,0.0,0.0,0.0,0.0011457892119640185,0.0024421053472592816,-0.0005576948552550585,0.0,0.0,0.0,0.0,0.0,0.0,0.0,0.0,0.0,0.02011763431908784,0.019453191702276662,9.808590080399346,0.0,0.0,0.0,0.0,0.0,0.0,0.0,0.0,0.0
2025/05/25 18:47:46.214805485,1748191666,214415534,mA1/imu,0.7919997847655448,0.6105205130291549,-0.0002204831277351199,0.0009977420201594583,0.0,0.0,0.0,0.0,0.0,0.0,0.0,0.0,0.0,0.0021528657118338695,0.002923695118838276,-0.000549842715919407,0.0,0.0,0.0,0.0,0.0,0.0,0.0,0.0,0.0,0.017384287847913224,-0.12735837306192727,9.809625841434658,0.0,0.0,0.0,0.0,0.0,0.0,0.0,0.0,0.0
2025/05/25 18:47:46.266400453,1748191666,266044444,mA1/imu,0.7919953159201667,0.6105264371191219,-0.00016320607640472776,0.0009287103544685458,0.0,0.0,0.0,0.0,0.0,0.0,0.0,0.0,0.0,0.00045914395616255383,0.0037498375211922675,-0.00016965804241689787,0.0,0.0,0.0,0.0,0.0,0.0,0.0,0.0,0.0,0.01956641105888308,0.6033674983171943,9.810870235041774,0.0,0.0,0.0,0.0,0.0,0.0,0.0,0.0,0.0
2025/05/25 18:47:46.320474106,1748191666,318570580,mA1/imu,0.7919933946472724,0.6105290484516878,-9.776428712513229e-05,0.0008568978415641043,0.0,0.0,0.0,0.0,0.0,0.0,0.0,0.0,0.0,0.0014476024498172898,0.0038373332363737214,-9.905192777371328e-05,0.0,0.0,0.0,0.0,0.0,0.0,0.0,0.0,0.0,0.020278986244059702,-0.054458764316626024,9.809482945606085,0.0,0.0,0.0,0.0,0.0,0.0,0.0,0.0,0.0
2025/05/25 18:47:46.370615981,1748191666,370154341,mA1/imu,0.7919925591214519,0.6105302378116411,-3.527290555731445e-05,0.0007834345772567205,0.0,0.0,0.0,0.0,0.0,0.0,0.0,0.0,0.0,0.0008000627791915106,0.0036954555772539767,-2.8147551473877045e-05,0.0,0.0,0.0,0.0,0.0,0.0,0.0,0.0,0.0,0.021209532050508365,0.0050212092803562335,9.80976904912921,0.0,0.0,0.0,0.0,0.0,0.0,0.0,0.0,0.0
2025/05/25 18:47:46.419649699,1748191666,419412938,mA1/imu,0.7919927797725206,0.6105300339893476,2.4003614304043323e-05,0.0007168047072516699,0.0,0.0,0.0,0.0,0.0,0.0,0.0,0.0,0.0,0.0005234187179456295,0.0033503460275579773,4.111642137973292e-05,0.0,0.0,0.0,0.0,0.0,0.0,0.0,0.0,0.0,0.021286759431953593,0.03375914401868933,9.81024521780598,0.0,0.0,0.0,0.0,0.0,0.0,0.0,0.0,0.0
2025/05/25 18:47:46.471834434,1748191666,471299231,mA1/imu,0.7919931794192253,0.6105295749274113,7.681737842871585e-05,0.0006602965029759449,0.0,0.0,0.0,0.0,0.0,0.0,0.0,0.0,0.0,0.0007070467216385237,0.0028347473025447387,3.4588976127765973e-05,0.0,0.0,0.0,0.0,0.0,0.0,0.0,0.0,0.0,0.021187804071007794,0.022464698124034902,9.80989227064668,0.0,0.0,0.0,0.0,0.0,0.0,0.0,0.0,0.0
2025/05/25 18:47:46.520437519,1748191666,520241529,mA1/imu,0.7919941660037654,0.6105283318478446,0.00012171569634429575,0.0006182332711878115,0.0,0.0,0.0,0.0,0.0,0.0,0.0,0.0,0.0,0.0006651330054858777,0.0021731032888567766,8.540508614454527e-05,0.0,0.0,0.0,0.0,0.0,0.0,0.0,0.0,0.0,0.020853923766097696,-0.5954525406918942,9.808588691248653,0.0,0.0,0.0,0.0,0.0,0.0,0.0,0.0,0.0
2025/05/25 18:47:46.571431957,1748191666,571306279,mA1/imu,0.7919959379060826,0.6105260538977558,0.00015424807512832094,0.0005899659569266437,0.0,0.0,0.0,0.0,0.0,0.0,0.0,0.0,0.0,-0.001112613717636489,0.0014061305259847274,0.0001369508187735807,0.0,0.0,0.0,0.0,0.0,0.0,0.0,0.0,0.0,0.022038264910035407,0.35186157539377233,9.809936361454005,0.0,0.0,0.0,0.0,0.0,0.0,0.0,0.0,0.0
2025/05/25 18:47:46.621376185,1748191666,621111515,mA1/imu,0.7919985165769997,0.6105227243495289,0.0001672035802662472,0.0005699435268924399,0.0,0.0,0.0,0.0,0.0,0.0,0.0,0.0,0.0,-0.0009010364874928143,0.0005657275232174881,0.00019044865212181978,0.0,0.0,0.0,0.0,0.0,0.0,0.0,0.0,0.0,0.021494470903702583,0.5752128033178274,9.811459048145952,0.0,0.0,0.0,0.0,0.0,0.0,0.0,0.0,0.0
2025/05/25 18:47:46.672426725,1748191666,672200835,mA1/imu,0.792001905073579,0.6105183204689044,0.0001733302000216839,0.0005767913763517444,0.0,0.0,0.0,0.0,0.0,0.0,0.0,0.0,0.0,-0.0007596409433920084,-0.0003177052296795541,0.0002434238330568108,0.0,0.0,0.0,0.0,0.0,0.0,0.0,0.0,0.0,0.020947110525521125,0.5423847358876211,9.81119144326704,0.0,0.0,0.0,0.0,0.0,0.0,0.0,0.0,0.0
2025/05/25 18:47:46.722191176,1748191666,721916208,mA1/imu,0.7920061119691627,0.6105128416325326,0.0001662326019968242,0.0006009758583755831,0.0,0.0,0.0,0.0,0.0,0.0,0.0,0.0,0.0,-0.0025032357253908996,-0.0011354103953542909,0.0002980511440275341,0.0,0.0,0.0,0.0,0.0,0.0,0.0,0.0,0.0,0.020655831872495478,0.49189395702072225,9.811084976314499,0.0,0.0,0.0,0.0,0.0,0.0,0.0,0.0,0.0
