time,header_stamp_secs,header_stamp_nsecs,header_frame_id,orientation_x,orientation_y,orientation_z,orientation_w,orientation_covariance_0,orientation_covariance_1,orientation_covariance_2,orientation_covariance_3,orientation_covariance_4,orientation_covariance_5,orientation_covariance_6,orientation_covariance_7,orientation_covariance_8,angular_velocity_x,angular_velocity_y,angular_velocity_z,angular_velocity_covariance_0,angular_velocity_covariance_1,angular_velocity_covariance_2,angular_velocity_covariance_3,angular_velocity_covariance_4,angular_velocity_covariance_5,angular_velocity_covariance_6,angular_velocity_covariance_7,angular_velocity_covariance_8,linear_acceleration_x,linear_acceleration_y,linear_acceleration_z,linear_acceleration_covariance_0,linear_acceleration_covariance_1,linear_acceleration_covariance_2,linear_acceleration_covariance_3,linear_acceleration_covariance_4,linear_acceleration_covariance_5,linear_acceleration_covariance_6,linear_acceleration_covariance_7,linear_acceleration_covariance_8
2025/05/20 12:56:12.477584960,1747738572,420450094,mA1/imu,0.9987087229171343,0.050793664197485926,0.0002741270177117751,0.0009029401960789604,0.0,0.0,0.0,0.0,0.0,0.0,0.0,0.0,0.0,-2.4337840835796556e-05,0.0028088305081809695,-0.005347500846894581,0.0,0.0,0.0,0.0,0.0,0.0,0.0,0.0,0.0,0.007166539950033114,0.005388977626436146,9.85143486038439,0.0,0.0,0.0,0.0,0.0,0.0,0.0,0.0,0.0
2025/05/20 12:56:12.516235952,1747738572,471104398,mA1/imu,0.9987021046299829,0.05092292919564134,0.00034828229937853216,0.0009166183603894266,0.0,0.0,0.0,0.0,0.0,0.0,0.0,0.0,0.0,-0.0007877170649471352,0.0036141928988349006,-0.005113931789356958,0.0,0.0,0.0,0.0,0.0,0.0,0.0,0.0,0.0,0.024643070932003682,0.07920552382365328,9.847295165027006,0.0,0.0,0.0,0.0,0.0,0.0,0.0,0.0,0.0
2025/05/20 12:56:12.547612621,1747738572,515643667,mA1/imu,0.9986956359150333,0.05104833827357842,0.0004159772067757923,0.0009596492780363951,0.0,0.0,0.0,0.0,0.0,0.0,0.0,0.0,0.0,-0.002755935931731354,0.0023856104422368125,-0.004910515373501987,0.0,0.0,0.0,0.0,0.0,0.0,0.0,0.0,0.0,-0.03330742045936129,0.44933993320208715,9.840965597614606,0.0,0.0,0.0,0.0,0.0,0.0,0.0,0.0,0.0
2025/05/20 12:56:12.623821184,1747738572,568956321,mA1/imu,0.998689221324812,0.051172295754533005,0.0004733454282764492,0.0010056346041485257,0.0,0.0,0.0,0.0,0.0,0.0,0.0,0.0,0.0,-0.0015457287902414152,0.0017801158395236286,-0.004857491252565827,0.0,0.0,0.0,0.0,0.0,0.0,0.0,0.0,0.0,0.018940968955763055,-0.6207174013151036,9.824069427194013,0.0,0.0,0.0,0.0,0.0,0.0,0.0,0.0,0.0
2025/05/20 12:56:12.642247551,1747738572,615165136,mA1/imu,0.998683104072924,0.051290069360291006,0.0005231290991543185,0.0010548745097952094,0.0,0.0,0.0,0.0,0.0,0.0,0.0,0.0,0.0,-0.002513678538217382,0.0009150782511099945,-0.004717661836501118,0.0,0.0,0.0,0.0,0.0,0.0,0.0,0.0,0.0,0.030103711996717276,0.5811330954024145,9.812627211320564,0.0,0.0,0.0,0.0,0.0,0.0,0.0,0.0,0.0
2025/05/20 12:56:12.678991129,1747738572,665511563,mA1/imu,0.9986770980775983,0.05140548074313087,0.000537206390710074,0.0011143312651494504,0.0,0.0,0.0,0.0,0.0,0.0,0.0,0.0,0.0,-0.001680018912561011,0.00022338567413740648,-0.004480320102879948,0.0,0.0,0.0,0.0,0.0,0.0,0.0,0.0,0.0,0.017988058867637637,-0.171477490045813,9.798487472897898,0.0,0.0,0.0,0.0,0.0,0.0,0.0,0.0,0.0
2025/05/20 12:56:12.733017565,1747738572,720256205,mA1/imu,0.9986714568856151,0.0515137858166072,0.0005292318619928272,0.0011708913015246593,0.0,0.0,0.0,0.0,0.0,0.0,0.0,0.0,0.0,-0.0017902151182374645,-0.001072736236346219,-0.004317844960716252,0.0,0.0,0.0,0.0,0.0,0.0,0.0,0.0,0.0,0.03458172331572526,-0.489716714847624,9.78956358599798,0.0,0.0,0.0,0.0,0.0,0.0,0.0,0.0,0.0
2025/05/20 12:56:12.788569522,1747738572,767406799,mA1/imu,0.9986661003757955,0.0516168438451449,0.0004850231669976084,0.0012190751391559559,0.0,0.0,0.0,0.0,0.0,0.0,0.0,0.0,0.0,-0.0029343267300290608,-0.002231044283391026,-0.003984506258571956,0.0,0.0,0.0,0.0,0.0,0.0,0.0,0.0,0.0,-0.018529670080424825,0.26650727096660254,9.78151334307368,0.0,0.0,0.0,0.0,0.0,0.0,0.0,0.0,0.0
2025/05/20 12:56:12.862408942,1747738572,816646261,mA1/imu,0.9986610629191109,0.05171417415225907,0.00040014481087483967,0.0012511934909277156,0.0,0.0,0.0,0.0,0.0,0.0,0.0,0.0,0.0,-0.00044860260406562753,-0.004230119659950663,-0.003845567952586764,0.0,0.0,0.0,0.0,0.0,0.0,0.0,0.0,0.0,0.015641689924422053,0.012180431642411203,9.775348669258786,0.0,0.0,0.0,0.0,0.0,0.0,0.0,0.0,0.0
2025/05/20 12:56:12.903834801,1747738572,872422744,mA1/imu,0.9986562738835233,0.051806449505631375,0.00031568477445163926,0.0012801428908395503,0.0,0.0,0.0,0.0,0.0,0.0,0.0,0.0,0.0,-0.0010496422979329092,-0.0022407691623003156,-0.003701399154815819,0.0,0.0,0.0,0.0,0.0,0.0,0.0,0.0,0.0,0.01218620983778346,0.014234084423100514,9.772952074751396,0.0,0.0,0.0,0.0,0.0,0.0,0.0,0.0,0.0
2025/05/20 12:56:12.970480311,1747738572,917190435,mA1/imu,0.9986511859624775,0.05190405986446487,0.00023234771627157882,0.0013127680152555552,0.0,0.0,0.0,0.0,0.0,0.0,0.0,0.0,0.0,0.0005174050317495829,-0.0039376886981899485,-0.0039228144802292125,0.0,0.0,0.0,0.0,0.0,0.0,0.0,0.0,0.0,0.01111786763615102,-0.32764783783415596,9.773897821632353,0.0,0.0,0.0,0.0,0.0,0.0,0.0,0.0,0.0
2025/05/20 12:56:13.89444268,1747738572,967312813,mA1/imu,0.9986462719124948,0.05199830682770634,0.00013706862757962318,0.0013345015992908334,0.0,0.0,0.0,0.0,0.0,0.0,0.0,0.0,0.0,-0.0003359828099547377,-0.003607395806764785,-0.003718778016849023,0.0,0.0,0.0,0.0,0.0,0.0,0.0,0.0,0.0,0.011488303758803444,-0.012019995266418585,9.777761927245214,0.0,0.0,0.0,0.0,0.0,0.0,0.0,0.0,0.0
2025/05/20 12:56:13.268698586,1747738573,22985810,mA1/imu,0.9986415453858049,0.05208886853098592,3.267320882183818e-05,0.001346304970821002,0.0,0.0,0.0,0.0,0.0,0.0,0.0,0.0,0.0,0.0010023965227682764,-0.004529918615726453,-0.0035592344944929866,0.0,0.0,0.0,0.0,0.0,0.0,0.0,0.0,0.0,0.00724353310987579,-0.6171178579315255,9.783036828787592,0.0,0.0,0.0,0.0,0.0,0.0,0.0,0.0,0.0
2025/05/20 12:56:13.306210204,1747738573,63317113,mA1/imu,0.9986373725583161,0.052169068293944194,-3.7947694252038854e-05,0.0013360400956312403,0.0,0.0,0.0,0.0,0.0,0.0,0.0,0.0,0.0,0.000958512853372702,-0.0031145624541847085,-0.0031757879852878897,0.0,0.0,0.0,0.0,0.0,0.0,0.0,0.0,0.0,0.012052450138847214,-0.003898299967204335,9.792202127598799,0.0,0.0,0.0,0.0,0.0,0.0,0.0,0.0,0.0
2025/05/20 12:56:13.360480395,1747738573,115455343,mA1/imu,0.9986332261175455,0.052248819188489955,-0.00013081894097124002,0.0013128114397786663,0.0,0.0,0.0,0.0,0.0,0.0,0.0,0.0,0.0,0.0011946278652208446,-0.004049591129478951,-0.003252838024413518,0.0,0.0,0.0,0.0,0.0,0.0,0.0,0.0,0.0,0.01355531839971496,0.3222348226330709,9.806044436496308,0.0,0.0,0.0,0.0,0.0,0.0,0.0,0.0,0.0
2025/05/20 12:56:13.360552319,1747738573,167778332,mA1/imu,0.9986290765982967,0.05232878252000928,-0.00024075474415459887,0.0012680416238444187,0.0,0.0,0.0,0.0,0.0,0.0,0.0,0.0,0.0,0.002442385409473643,-0.0044065177995040745,-0.003169030201146869,0.0,0.0,0.0,0.0,0.0,0.0,0.0,0.0,0.0,0.008955705852749973,0.006833842654014575,9.81388171093121,0.0,0.0,0.0,0.0,0.0,0.0,0.0,0.0,0.0
2025/05/20 12:56:13.367191383,1747738573,221186045,mA1/imu,0.9986250667229544,0.052405864666091574,-0.0003545998469817004,0.0012147922139179354,0.0,0.0,0.0,0.0,0.0,0.0,0.0,0.0,0.0,0.0034947128584561335,-0.0044070013850948725,-0.003036239095163829,0.0,0.0,0.0,0.0,0.0,0.0,0.0,0.0,0.0,0.005775665889777695,-0.6186196293032434,9.823773075677584,0.0,0.0,0.0,0.0,0.0,0.0,0.0,0.0,0.0
2025/05/20 12:56:13.406250054,1747738573,270344577,mA1/imu,0.9986212285214625,0.052479990092063195,-0.0004665945191138456,0.0011291039707429645,0.0,0.0,0.0,0.0,0.0,0.0,0.0,0.0,0.0,0.004334606623539806,-0.004188793556322481,-0.002939022188374105,0.0,0.0,0.0,0.0,0.0,0.0,0.0,0.0,0.0,0.0062815785522446835,-0.5991254824549187,9.831386179933284,0.0,0.0,0.0,0.0,0.0,0.0,0.0,0.0,0.0
2025/05/20 12:56:13.453137608,1747738573,314901638,mA1/imu,0.998617495866543,0.05255185479516043,-0.0005699614020244257,0.0010366536661535093,0.0,0.0,0.0,0.0,0.0,0.0,0.0,0.0,0.0,0.0046541952574457495,-0.003734319973552303,-0.0028495004406553395,0.0,0.0,0.0,0.0,0.0,0.0,0.0,0.0,0.0,0.004960391243545575,0.028093725568140736,9.841572741680984,0.0,0.0,0.0,0.0,0.0,0.0,0.0,0.0,0.0
2025/05/20 12:56:13.670874205,1747738573,365941408,mA1/imu,0.9986138640332933,0.0526215394273156,-0.0006590634940694945,0.0009432836822935238,0.0,0.0,0.0,0.0,0.0,0.0,0.0,0.0,0.0,0.003307238347769016,-0.003089614340581263,-0.002762184764803581,0.0,0.0,0.0,0.0,0.0,0.0,0.0,0.0,0.0,0.006781490921049975,0.5494177927900459,9.846379072403241,0.0,0.0,0.0,0.0,0.0,0.0,0.0,0.0,0.0
2025/05/20 12:56:13.670927655,1747738573,418957618,mA1/imu,0.9986103388027477,0.05268911259616878,-0.000730613458316504,0.0008454904281695871,0.0,0.0,0.0,0.0,0.0,0.0,0.0,0.0,0.0,0.0034658376831053993,-0.002333306159355591,-0.0026782186304537513,0.0,0.0,0.0,0.0,0.0,0.0,0.0,0.0,0.0,0.005796689862541147,-0.07235800169921026,9.848616617606407,0.0,0.0,0.0,0.0,0.0,0.0,0.0,0.0,0.0
2025/05/20 12:56:13.708924706,1747738573,462753763,mA1/imu,0.9986069247241214,0.05275462205174148,-0.0007816960751701683,0.0007407404786834059,0.0,0.0,0.0,0.0,0.0,0.0,0.0,0.0,0.0,0.004901063260745419,-0.0014654087102982235,-0.0025961430106322923,0.0,0.0,0.0,0.0,0.0,0.0,0.0,0.0,0.0,0.0052354610343808144,-0.589781355653669,9.8479475245095,0.0,0.0,0.0,0.0,0.0,0.0,0.0,0.0,0.0
2025/05/20 12:56:13.729043396,1747738573,516171319,mA1/imu,0.9986039280995638,0.05281230736289374,-0.0008018347285891095,0.0006419004570232161,0.0,0.0,0.0,0.0,0.0,0.0,0.0,0.0,0.0,0.004423810320971982,0.00011709402318894576,-0.0020290722166560375,0.0,0.0,0.0,0.0,0.0,0.0,0.0,0.0,0.0,-0.0020689395546085454,0.03404687254175983,9.847106221411744,0.0,0.0,0.0,0.0,0.0,0.0,0.0,0.0,0.0
2025/05/20 12:56:13.756960687,1747738573,570935304,mA1/imu,0.9986014089792626,0.052861049880013604,-0.0007886117069851039,0.0005598944453058598,0.0,0.0,0.0,0.0,0.0,0.0,0.0,0.0,0.0,0.0023474105362670003,0.0010489642192424609,-0.001930014164244649,0.0,0.0,0.0,0.0,0.0,0.0,0.0,0.0,0.0,0.007618198064138458,0.5506155224730813,9.843382382446283,0.0,0.0,0.0,0.0,0.0,0.0,0.0,0.0,0.0
2025/05/20 12:56:13.757563120,1747738573,618879254,mA1/imu,0.9985989449674252,0.052908755855038556,-0.0007548853420355278,0.0004907259290728015,0.0,0.0,0.0,0.0,0.0,0.0,0.0,0.0,0.0,0.0018426685472068575,0.001769360996556325,-0.0019091747438685332,0.0,0.0,0.0,0.0,0.0,0.0,0.0,0.0,0.0,0.010858087817578167,-0.07252120472077879,9.833737030200934,0.0,0.0,0.0,0.0,0.0,0.0,0.0,0.0,0.0
2025/05/20 12:56:13.757803018,1747738573,667460985,mA1/imu,0.9985965245848853,0.05295564537608866,-0.000703973958212629,0.00043026788946677846,0.0,0.0,0.0,0.0,0.0,0.0,0.0,0.0,0.0,0.002689598154488852,0.002406068748771385,-0.0018560290595129709,0.0,0.0,0.0,0.0,0.0,0.0,0.0,0.0,0.0,0.009937752298884068,-0.5909628091411956,9.825958205995985,0.0,0.0,0.0,0.0,0.0,0.0,0.0,0.0,0.0
2025/05/20 12:56:13.785196938,1747738573,722093524,mA1/imu,0.9985941714254662,0.053001151380768496,-0.0006379641766604159,0.0003895498797105087,0.0,0.0,0.0,0.0,0.0,0.0,0.0,0.0,0.0,0.0017359365608076293,0.0029078151306481167,-0.0018008962144570077,0.0,0.0,0.0,0.0,0.0,0.0,0.0,0.0,0.0,0.009900338865927732,0.03247635808206299,9.81615634592471,0.0,0.0,0.0,0.0,0.0,0.0,0.0,0.0,0.0
2025/05/20 12:56:13.813987155,1747738573,764160165,mA1/imu,0.998591876052118,0.05304534506643774,-0.0005604689943286361,0.00037725853260729534,0.0,0.0,0.0,0.0,0.0,0.0,0.0,0.0,0.0,-0.0007045272602420192,0.0032488736886914825,-0.0017488270792001262,0.0,0.0,0.0,0.0,0.0,0.0,0.0,0.0,0.0,0.010285833832134874,0.5516870280051949,9.809077575561677,0.0,0.0,0.0,0.0,0.0,0.0,0.0,0.0,0.0
2025/05/20 12:56:13.866225241,1747738573,819956480,mA1/imu,0.9985896340899229,0.05308829922372078,-0.0004765051298840842,0.0003848591272998005,0.0,0.0,0.0,0.0,0.0,0.0,0.0,0.0,0.0,-0.0014085418635180786,0.003381486012751829,-0.001699869557232517,0.0,0.0,0.0,0.0,0.0,0.0,0.0,0.0,0.0,0.012964520806578188,-0.0703398373095081,9.795941875763607,0.0,0.0,0.0,0.0,0.0,0.0,0.0,0.0,0.0
2025/05/20 12:56:13.901921440,1747738573,863348994,mA1/imu,0.998587440574572,0.0531300917022936,-0.00039099030653487563,0.00040498026065310824,0.0,0.0,0.0,0.0,0.0,0.0,0.0,0.0,0.0,-0.0006003161375751781,0.003336072935828461,-0.0016540705615113408,0.0,0.0,0.0,0.0,0.0,0.0,0.0,0.0,0.0,0.01243844489147671,-0.5872311579155867,9.787930995590484,0.0,0.0,0.0,0.0,0.0,0.0,0.0,0.0,0.0
2025/05/20 12:56:13.935444652,1747738573,917592301,mA1/imu,0.998585287056065,0.05317077686576052,-0.0003082491804080376,0.000444910204831441,0.0,0.0,0.0,0.0,0.0,0.0,0.0,0.0,0.0,-0.001476570497210145,0.003111735384401814,-0.0016102269386717592,0.0,0.0,0.0,0.0,0.0,0.0,0.0,0.0,0.0,0.011637566703530666,0.034874322545891984,9.781368329777731,0.0,0.0,0.0,0.0,0.0,0.0,0.0,0.0,0.0
2025/05/20 12:56:13.983635077,1747738573,969182758,mA1/imu,0.998583166503247,0.053210389945142426,-0.0002324750400010434,0.0005098368268999297,0.0,0.0,0.0,0.0,0.0,0.0,0.0,0.0,0.0,-0.0036513625959379314,0.0027218564269809974,-0.0015675120804373604,0.0,0.0,0.0,0.0,0.0,0.0,0.0,0.0,0.0,0.011913914786459503,0.5386127437831747,9.778045864241085,0.0,0.0,0.0,0.0,0.0,0.0,0.0,0.0,0.0
2025/05/20 12:56:14.23182319,1747738574,13664912,mA1/imu,0.9985810804379005,0.05324896195844373,-0.0001682404780994634,0.0005878239235440998,0.0,0.0,0.0,0.0,0.0,0.0,0.0,0.0,0.0,-0.004024485355527417,0.002171510364297972,-0.0015265702409032872,0.0,0.0,0.0,0.0,0.0,0.0,0.0,0.0,0.0,0.012567235262502967,-0.06736790755081183,9.773043385631413,0.0,0.0,0.0,0.0,0.0,0.0,0.0,0.0,0.0
2025/05/20 12:56:14.69064860,1747738574,66999129,mA1/imu,0.9985790344224511,0.05328650079973479,-0.00011931850796007741,0.0006682870182177363,0.0,0.0,0.0,0.0,0.0,0.0,0.0,0.0,0.0,-0.0027236886995262856,0.00150826720392006,-0.001485955708602214,0.0,0.0,0.0,0.0,0.0,0.0,0.0,0.0,0.0,0.011636118899460536,-0.5833293383532764,9.771586624268993,0.0,0.0,0.0,0.0,0.0,0.0,0.0,0.0,0.0
2025/05/20 12:56:14.125405073,1747738574,123118392,mA1/imu,0.9985770261025388,0.053323014020887426,-8.771256166854272e-05,0.0007559248931424926,0.0,0.0,0.0,0.0,0.0,0.0,0.0,0.0,0.0,-0.0030438089007582348,0.0007768864079449673,-0.001445424801542427,0.0,0.0,0.0,0.0,0.0,0.0,0.0,0.0,0.0,0.011950795398009305,0.03673577715421406,9.775846693422984,0.0,0.0,0.0,0.0,0.0,0.0,0.0,0.0,0.0
2025/05/20 12:56:14.169017696,1747738574,165666415,mA1/imu,0.9985750515203043,0.053358513509011975,-7.45330354191673e-05,0.0008543782280969426,0.0,0.0,0.0,0.0,0.0,0.0,0.0,0.0,0.0,-0.004635591994028851,1.399809210812887e-05,-0.001405560669463876,0.0,0.0,0.0,0.0,0.0,0.0,0.0,0.0,0.0,0.01256027499166591,0.5547510949296157,9.78016486814812,0.0,0.0,0.0,0.0,0.0,0.0,0.0,0.0,0.0
2025/05/20 12:56:14.215980077,1747738574,212549634,mA1/imu,0.9985731195624458,0.05339302401465588,-8.064141561967147e-05,0.0009504582358209533,0.0,0.0,0.0,0.0,0.0,0.0,0.0,0.0,0.0,-0.004322723958654642,-0.0007453834332632505,-0.0013671039395766972,0.0,0.0,0.0,0.0,0.0,0.0,0.0,0.0,0.0,0.013011759925680894,-0.06815137170100868,9.7866295052771,0.0,0.0,0.0,0.0,0.0,0.0,0.0,0.0,0.0
2025/05/20 12:56:14.270541510,1747738574,269478366,mA1/imu,0.9985712418426563,0.05342656252797147,-0.00010556312460399721,0.0010325878589250677,0.0,0.0,0.0,0.0,0.0,0.0,0.0,0.0,0.0,-0.0023886621157413464,-0.0014454199508547045,-0.0013292259732253452,0.0,0.0,0.0,0.0,0.0,0.0,0.0,0.0,0.0,0.012396843616279187,-0.5871559169518645,9.792286257986198,0.0,0.0,0.0,0.0,0.0,0.0,0.0,0.0,0.0
2025/05/20 12:56:14.324479532,1747738574,321448956,mA1/imu,0.9985694152267134,0.05345913477146405,-0.0001467067119956585,0.0011056040913953334,0.0,0.0,0.0,0.0,0.0,0.0,0.0,0.0,0.0,-0.002067136189025228,-0.002021418447676401,-0.0012913203016751466,0.0,0.0,0.0,0.0,0.0,0.0,0.0,0.0,0.0,0.011009037510248471,0.04888199796179948,9.804936757378405,0.0,0.0,0.0,0.0,0.0,0.0,0.0,0.0,0.0
2025/05/20 12:56:14.361593632,1747738574,361045784,mA1/imu,0.998567633958794,0.05349077090796523,-0.00020120870523979183,0.0011736066907245902,0.0,0.0,0.0,0.0,0.0,0.0,0.0,0.0,0.0,-0.0030305538511154876,-0.00253263476323815,-0.0012552421865346401,0.0,0.0,0.0,0.0,0.0,0.0,0.0,0.0,0.0,0.016049366826586847,0.5536253196138072,9.813070814939184,0.0,0.0,0.0,0.0,0.0,0.0,0.0,0.0,0.0
2025/05/20 12:56:14.414466245,1747738574,412027861,mA1/imu,0.9985658651541974,0.05352232911692405,-0.00027051629212114926,0.00122476760433393,0.0,0.0,0.0,0.0,0.0,0.0,0.0,0.0,0.0,-0.002190173704163187,-0.003051292843176038,-0.0012606326146193307,0.0,0.0,0.0,0.0,0.0,0.0,0.0,0.0,0.0,0.015011973233390399,-0.06965021334650788,9.822728005203516,0.0,0.0,0.0,0.0,0.0,0.0,0.0,0.0,0.0
2025/05/20 12:56:14.468126795,1747738574,464864719,mA1/imu,0.998564174071065,0.05355283399906724,-0.0003494197324167628,0.0012498553080267313,0.0,0.0,0.0,0.0,0.0,0.0,0.0,0.0,0.0,0.0001640195984027613,-0.0032488151286952146,-0.001179631672944347,0.0,0.0,0.0,0.0,0.0,0.0,0.0,0.0,0.0,0.008162808252923362,-0.586164340508502,9.828140812802134,0.0,0.0,0.0,0.0,0.0,0.0,0.0,0.0,0.0
2025/05/20 12:56:14.516193234,1747738574,515771034,mA1/imu,0.9985626402795561,0.053580672055895485,-0.0004292732740606357,0.0012572765871873106,0.0,0.0,0.0,0.0,0.0,0.0,0.0,0.0,0.0,0.000787607753332745,-0.003199352949048218,-0.0011020631248186855,0.0,0.0,0.0,0.0,0.0,0.0,0.0,0.0,0.0,0.011259302098450209,0.032500800903485616,9.837686715199757,0.0,0.0,0.0,0.0,0.0,0.0,0.0,0.0,0.0
2025/05/20 12:56:14.567715406,1747738574,565612014,mA1/imu,0.9985611821759847,0.0536072768800208,-0.0005071836721025973,0.0012522306223944981,0.0,0.0,0.0,0.0,0.0,0.0,0.0,0.0,0.0,1.4420583607570809e-06,-0.00295785378391778,-0.0010251612709446581,0.0,0.0,0.0,0.0,0.0,0.0,0.0,0.0,0.0,0.004335128814971447,0.555433050013447,9.842502242240652,0.0,0.0,0.0,0.0,0.0,0.0,0.0,0.0,0.0
2025/05/20 12:56:14.623427479,1747738574,622845813,mA1/imu,0.998559881969633,0.05363134270031481,-0.0005766089472532801,0.0012283008897725134,0.0,0.0,0.0,0.0,0.0,0.0,0.0,0.0,0.0,0.0008225108436983741,-0.002569825392942388,-0.0009528219251043928,0.0,0.0,0.0,0.0,0.0,0.0,0.0,0.0,0.0,0.010675928074492507,-0.07229744950847367,9.844275867348626,0.0,0.0,0.0,0.0,0.0,0.0,0.0,0.0,0.0
2025/05/20 12:56:14.662999019,1747738574,662793202,mA1/imu,0.9985586541186506,0.053654645382295266,-0.0006368758347601178,0.001178007988284893,0.0,0.0,0.0,0.0,0.0,0.0,0.0,0.0,0.0,0.0030871754279201994,-0.00210158377515663,-0.0009276731740718147,0.0,0.0,0.0,0.0,0.0,0.0,0.0,0.0,0.0,0.009621101066430904,-0.5884222650466278,9.84362740171993,0.0,0.0,0.0,0.0,0.0,0.0,0.0,0.0,0.0
2025/05/20 12:56:14.714388674,1747738574,714177435,mA1/imu,0.9985574778980281,0.05367734439369493,-0.0006840370328679837,0.0011127111519374031,0.0,0.0,0.0,0.0,0.0,0.0,0.0,0.0,0.0,0.0035002504249769593,-0.0014961492068999373,-0.000903599143265065,0.0,0.0,0.0,0.0,0.0,0.0,0.0,0.0,0.0,0.008721100968188067,0.03379534394722425,9.842866713208036,0.0,0.0,0.0,0.0,0.0,0.0,0.0,0.0,0.0
2025/05/20 12:56:14.764634159,1747738574,764059136,mA1/imu,0.9985563605797477,0.05369913351415025,-0.0007146164519402879,0.0010426547294151536,0.0,0.0,0.0,0.0,0.0,0.0,0.0,0.0,0.0,0.0023380068236795747,-0.0007308416390974375,-0.0008349145292929372,0.0,0.0,0.0,0.0,0.0,0.0,0.0,0.0,0.0,0.00315288574494243,0.5555602030850635,9.840393758550194,0.0,0.0,0.0,0.0,0.0,0.0,0.0,0.0,0.0
2025/05/20 12:56:14.817396093,1747738574,816368361,mA1/imu,0.9985553850720222,0.053718592348461394,-0.0007252650668873789,0.0009642459995991524,0.0,0.0,0.0,0.0,0.0,0.0,0.0,0.0,0.0,0.002890713764210081,2.9447221259633083e-05,-0.0007695967041313148,0.0,0.0,0.0,0.0,0.0,0.0,0.0,0.0,0.0,0.010975043365628118,-0.2103284397728974,9.83162349723841,0.0,0.0,0.0,0.0,0.0,0.0,0.0,0.0,0.0
2025/05/20 12:56:14.875523007,1747738574,868894147,mA1/imu,0.9985544599397399,0.05373745992751817,-0.0007192448791643006,0.0008709889762077602,0.0,0.0,0.0,0.0,0.0,0.0,0.0,0.0,0.0,0.004009973511255806,0.0007090392860651515,-0.0007504745214795802,0.0,0.0,0.0,0.0,0.0,0.0,0.0,0.0,0.0,0.011092103314258715,-0.41003203377629466,9.82475894123846,0.0,0.0,0.0,0.0,0.0,0.0,0.0,0.0,0.0
2025/05/20 12:56:14.925017770,1747738574,920542326,mA1/imu,0.9985535587309028,0.053755865928534326,-0.0006967240493342331,0.0007821762729601578,0.0,0.0,0.0,0.0,0.0,0.0,0.0,0.0,0.0,0.003015044079165387,0.00133697755720779,-0.000731262439399251,0.0,0.0,0.0,0.0,0.0,0.0,0.0,0.0,0.0,0.010794969848611575,0.5793458466847977,9.816408190116864,0.0,0.0,0.0,0.0,0.0,0.0,0.0,0.0,0.0
2025/05/20 12:56:14.966573067,1747738574,966312681,mA1/imu,0.9985526819153447,0.05377381903818178,-0.0006593761221404885,0.0006950171585762216,0.0,0.0,0.0,0.0,0.0,0.0,0.0,0.0,0.0,0.0018792838189634357,0.0019082547059873253,-0.0007131569293600619,0.0,0.0,0.0,0.0,0.0,0.0,0.0,0.0,0.0,0.01121993838127118,0.5178681174476839,9.808054306170614,0.0,0.0,0.0,0.0,0.0,0.0,0.0,0.0,0.0
2025/05/20 12:56:15.18150347,1747738575,17815135,mA1/imu,0.9985518218269996,0.05379133636204522,-0.0006097966849427715,0.0006159597133196756,0.0,0.0,0.0,0.0,0.0,0.0,0.0,0.0,0.0,0.00277397256458163,0.0023111856458150467,-0.0006949978828176257,0.0,0.0,0.0,0.0,0.0,0.0,0.0,0.0,0.0,0.012145955730333571,0.27255272103751005,9.799856548105693,0.0,0.0,0.0,0.0,0.0,0.0,0.0,0.0,0.0
2025/05/20 12:56:15.74400645,1747738575,71247316,mA1/imu,0.9985509691421025,0.05380853216576494,-0.0005508798562326554,0.0005481084910903891,0.0,0.0,0.0,0.0,0.0,0.0,0.0,0.0,0.0,0.0012303581415961037,0.0026232040686245454,-0.0006914507018333783,0.0,0.0,0.0,0.0,0.0,0.0,0.0,0.0,0.0,0.009954090502241723,0.528505466290721,9.792860062996763,0.0,0.0,0.0,0.0,0.0,0.0,0.0,0.0,0.0
2025/05/20 12:56:15.121327116,1747738575,117719992,mA1/imu,0.9985500969172978,0.05382599111073648,-0.000484944022206833,0.00048109946736864213,0.0,0.0,0.0,0.0,0.0,0.0,0.0,0.0,0.0,0.0024394868461491245,0.0029197301203288026,-0.0006851520529575576,0.0,0.0,0.0,0.0,0.0,0.0,0.0,0.0,0.0,0.003576184101424619,0.021747383662993596,9.78195200901524,0.0,0.0,0.0,0.0,0.0,0.0,0.0,0.0,0.0
2025/05/20 12:56:15.162153039,1747738575,160751901,mA1/imu,0.998549359107047,0.05384065733060983,-0.00040953488306926926,0.0004396888593453546,0.0,0.0,0.0,0.0,0.0,0.0,0.0,0.0,0.0,0.0015141952707365051,0.003109090389274717,-0.0005747130572412592,0.0,0.0,0.0,0.0,0.0,0.0,0.0,0.0,0.0,0.01548390378397994,0.3412269265757588,9.781856814085689,0.0,0.0,0.0,0.0,0.0,0.0,0.0,0.0,0.0
2025/05/20 12:56:15.213175042,1747738575,212298692,mA1/imu,0.9985483149135457,0.05386070645606317,-0.0003431130001465827,0.00041152987892558677,0.0,0.0,0.0,0.0,0.0,0.0,0.0,0.0,0.0,0.0002484544228778683,0.0024529287510154023,-0.00095763593236751,0.0,0.0,0.0,0.0,0.0,0.0,0.0,0.0,0.0,0.027171595739758844,0.5884790289037172,9.778933782036056,0.0,0.0,0.0,0.0,0.0,0.0,0.0,0.0,0.0
2025/05/20 12:56:15.265053366,1747738575,262506921,mA1/imu,0.9985469422043851,0.053886545845685495,-0.00028981980301355157,0.0004004941633680326,0.0,0.0,0.0,0.0,0.0,0.0,0.0,0.0,0.0,-0.00026875158580568577,0.001990767138292491,-0.0010297254678521914,0.0,0.0,0.0,0.0,0.0,0.0,0.0,0.0,0.0,0.013277435351960609,-0.025871474954150868,9.77705270850713,0.0,0.0,0.0,0.0,0.0,0.0,0.0,0.0,0.0
2025/05/20 12:56:15.318710397,1747738575,317710048,mA1/imu,0.9985452372977028,0.053918287053932715,-0.00025532115581879486,0.00040274353062363705,0.0,0.0,0.0,0.0,0.0,0.0,0.0,0.0,0.0,-0.0006254528959324031,0.0009677188143637819,-0.0014305820331212407,0.0,0.0,0.0,0.0,0.0,0.0,0.0,0.0,0.0,0.03137505437303302,-0.13413019247123348,9.777582586682527,0.0,0.0,0.0,0.0,0.0,0.0,0.0,0.0,0.0
2025/05/20 12:56:15.368449009,1747738575,367744092,mA1/imu,0.9985432146806978,0.05395571118985001,-0.00024103235082528448,0.0004141841875111859,0.0,0.0,0.0,0.0,0.0,0.0,0.0,0.0,0.0,-0.0005700406023850122,0.0003324530998628147,-0.001487378887367919,0.0,0.0,0.0,0.0,0.0,0.0,0.0,0.0,0.0,0.01502641789793296,0.024004600808058465,9.78210995897288,0.0,0.0,0.0,0.0,0.0,0.0,0.0,0.0,0.0
2025/05/20 12:56:15.422761765,1747738575,421298356,mA1/imu,0.9985410734767418,0.05399508154686552,-0.00024009398151356276,0.00044508824221312494,0.0,0.0,0.0,0.0,0.0,0.0,0.0,0.0,0.0,-0.0015180152250290225,-0.0003584831347940968,-0.001722038029981784,0.0,0.0,0.0,0.0,0.0,0.0,0.0,0.0,0.0,0.024328691417315203,-0.008615206848248035,9.792525637332432,0.0,0.0,0.0,0.0,0.0,0.0,0.0,0.0,0.0
2025/05/20 12:56:15.465998793,1747738575,464365000,mA1/imu,0.9985384639626126,0.05404280477402567,-0.00025734242547959457,0.0004949891096388523,0.0,0.0,0.0,0.0,0.0,0.0,0.0,0.0,0.0,-0.003958295192337796,-0.000975153164566228,-0.0019506377931615873,0.0,0.0,0.0,0.0,0.0,0.0,0.0,0.0,0.0,0.009602766843122034,0.4465414806060119,9.796464006262894,0.0,0.0,0.0,0.0,0.0,0.0,0.0,0.0,0.0
2025/05/20 12:56:15.516347396,1747738575,515961305,mA1/imu,0.9985358031660743,0.05409138851428929,-0.00028288537691909156,0.0005398703016099652,0.0,0.0,0.0,0.0,0.0,0.0,0.0,0.0,0.0,-0.002320568261326316,-0.0011325956105345404,-0.0019480614370280386,0.0,0.0,0.0,0.0,0.0,0.0,0.0,0.0,0.0,0.0034475763614556874,-0.007200161437084256,9.803918456865715,0.0,0.0,0.0,0.0,0.0,0.0,0.0,0.0,0.0
2025/05/20 12:56:15.566534632,1747738575,566369328,mA1/imu,0.9985330693424673,0.0541411636648367,-0.00031119996203514855,0.0005890510267657922,0.0,0.0,0.0,0.0,0.0,0.0,0.0,0.0,0.0,-0.0012852795125065867,-0.0014331261992285977,-0.0021050059825852997,0.0,0.0,0.0,0.0,0.0,0.0,0.0,0.0,0.0,0.024082540038967298,0.07959317797256416,9.81001253847398,0.0,0.0,0.0,0.0,0.0,0.0,0.0,0.0,0.0
2025/05/20 12:56:15.625323711,1747738575,619791552,mA1/imu,0.9985304792660282,0.054187924749028726,-0.00033265412382360604,0.0006634224773468881,0.0,0.0,0.0,0.0,0.0,0.0,0.0,0.0,0.0,-0.003041384994668252,-0.0008585136512496207,-0.0017775225369398445,0.0,0.0,0.0,0.0,0.0,0.0,0.0,0.0,0.0,0.004463857529166837,0.5953294558635361,9.82185710787293,0.0,0.0,0.0,0.0,0.0,0.0,0.0,0.0,0.0
2025/05/20 12:56:15.666300793,1747738575,664427826,mA1/imu,0.9985279227693068,0.05423397727456614,-0.0003505462335570084,0.0007350349196409536,0.0,0.0,0.0,0.0,0.0,0.0,0.0,0.0,0.0,-0.0031959975963043044,-0.0008765963081588351,-0.0018998985824584204,0.0,0.0,0.0,0.0,0.0,0.0,0.0,0.0,0.0,0.0077553429298807515,-0.030417342963793108,9.827040484201216,0.0,0.0,0.0,0.0,0.0,0.0,0.0,0.0,0.0
2025/05/20 12:56:15.721481555,1747738575,719266278,mA1/imu,0.9985253618721326,0.054280021815133056,-0.0003645585146022391,0.00080500122043024,0.0,0.0,0.0,0.0,0.0,0.0,0.0,0.0,0.0,-0.0024869402299295545,-0.0004320223710577567,-0.001698502705722807,0.0,0.0,0.0,0.0,0.0,0.0,0.0,0.0,0.0,-0.017767399055196073,-0.6293012842820976,9.833212301905451,0.0,0.0,0.0,0.0,0.0,0.0,0.0,0.0,0.0
2025/05/20 12:56:15.788493743,1747738575,767424795,mA1/imu,0.9985233324181061,0.054316551985067026,-0.0003600329991388287,0.0008585879883063123,0.0,0.0,0.0,0.0,0.0,0.0,0.0,0.0,0.0,-0.000794388791333418,0.0003648771238126872,-0.0013024781680707148,0.0,0.0,0.0,0.0,0.0,0.0,0.0,0.0,0.0,-0.01653165905353682,-0.5224336489419144,9.83623723200357,0.0,0.0,0.0,0.0,0.0,0.0,0.0,0.0,0.0
2025/05/20 12:56:15.822270353,1747738575,821431586,mA1/imu,0.9985218132893855,0.05434364931413478,-0.0003345615193593952,0.0009188215765825915,0.0,0.0,0.0,0.0,0.0,0.0,0.0,0.0,0.0,-0.002121239681686172,0.0011767524286368102,-0.0009324403168728068,0.0,0.0,0.0,0.0,0.0,0.0,0.0,0.0,0.0,-0.016972258316731957,0.3805270636505462,9.842170595911726,0.0,0.0,0.0,0.0,0.0,0.0,0.0,0.0,0.0
2025/05/20 12:56:15.862204538,1747738575,861312720,mA1/imu,0.998520805312241,0.05436150041427521,-0.0002918009660018835,0.0009713307876184237,0.0,0.0,0.0,0.0,0.0,0.0,0.0,0.0,0.0,-0.0033406042349619592,0.0019093005883740442,-0.0005751619855223106,0.0,0.0,0.0,0.0,0.0,0.0,0.0,0.0,0.0,-0.019508011056701826,0.5285420646627709,9.84081179969756,0.0,0.0,0.0,0.0,0.0,0.0,0.0,0.0,0.0
2025/05/20 12:56:15.913446342,1747738575,912108153,mA1/imu,0.9985206950541229,0.05436323539725366,-0.00022693338221320284,0.0010043341149116852,0.0,0.0,0.0,0.0,0.0,0.0,0.0,0.0,0.0,-0.0010331465622610185,0.0027634853868643157,0.00010705149600600415,0.0,0.0,0.0,0.0,0.0,0.0,0.0,0.0,0.0,-0.013533561687913653,0.023021010958430167,9.836374272834032,0.0,0.0,0.0,0.0,0.0,0.0,0.0,0.0,0.0
2025/05/20 12:56:15.964452241,1747738575,963879766,mA1/imu,0.9985211147959725,0.05435543107901049,-0.00015126799806164306,0.0010234924602171317,0.0,0.0,0.0,0.0,0.0,0.0,0.0,0.0,0.0,0.0011231968120731625,0.0030421405106750565,0.00045173665541636723,0.0,0.0,0.0,0.0,0.0,0.0,0.0,0.0,0.0,-0.008512543663594021,-0.49857860952759714,9.83458011389099,0.0,0.0,0.0,0.0,0.0,0.0,0.0,0.0,0.0
2025/05/20 12:56:16.16991838,1747738576,16715966,mA1/imu,0.9985218217123988,0.05434229010860694,-7.48619034700342e-05,0.0010399353826419167,0.0,0.0,0.0,0.0,0.0,0.0,0.0,0.0,0.0,6.262309553867785e-05,0.0029997014849282785,0.0006596868859280157,0.0,0.0,0.0,0.0,0.0,0.0,0.0,0.0,0.0,-0.00833085439438356,0.022447247618534942,9.831416545914319,0.0,0.0,0.0,0.0,0.0,0.0,0.0,0.0,0.0
2025/05/20 12:56:16.68280134,1747738576,66522008,mA1/imu,0.9985227415137632,0.054325386227296005,-7.5020524885630196e-06,0.001042609616636344,0.0,0.0,0.0,0.0,0.0,0.0,0.0,0.0,0.0,-0.0007158467961834624,0.0023292267409567185,0.0006374491492334913,0.0,0.0,0.0,0.0,0.0,0.0,0.0,0.0,0.0,0.01684948354554383,-0.10265880346771854,9.825756868312512,0.0,0.0,0.0,0.0,0.0,0.0,0.0,0.0,0.0
2025/05/20 12:56:16.118110877,1747738576,117813290,mA1/imu,0.9985238660273522,0.054305084071576026,4.5568512206286074e-05,0.0010221258630882329,0.0,0.0,0.0,0.0,0.0,0.0,0.0,0.0,0.0,-0.0002565958972426236,0.001978108428551358,0.0008642636924929042,0.0,0.0,0.0,0.0,0.0,0.0,0.0,0.0,0.0,0.015113847838549457,-0.08351489101414933,9.816496067141374,0.0,0.0,0.0,0.0,0.0,0.0,0.0,0.0,0.0
2025/05/20 12:56:16.176648822,1747738576,170096515,mA1/imu,0.9985249680793917,0.054285531092588664,7.686195207713673e-05,0.0009814928861144507,0.0,0.0,0.0,0.0,0.0,0.0,0.0,0.0,0.0,0.0016373596548697753,0.000932023901432291,0.0007263207422103455,0.0,0.0,0.0,0.0,0.0,0.0,0.0,0.0,0.0,0.013093185910342966,0.0160367272788904,9.806978642054872,0.0,0.0,0.0,0.0,0.0,0.0,0.0,0.0,0.0
2025/05/20 12:56:16.214567469,1747738576,213358231,mA1/imu,0.9985262397704052,0.054262885712387514,9.09511481626531e-05,0.0009377910365381239,0.0,0.0,0.0,0.0,0.0,0.0,0.0,0.0,0.0,0.001975817066335737,0.000385809992809606,0.0009587560183551646,0.0,0.0,0.0,0.0,0.0,0.0,0.0,0.0,0.0,0.01149562929466247,0.6421094815988813,9.7996763622763,0.0,0.0,0.0,0.0,0.0,0.0,0.0,0.0,0.0
2025/05/20 12:56:16.262733067,1747738576,261558197,mA1/imu,0.9985274383650794,0.05424159436663552,8.169134789679465e-05,0.0008930840731828526,0.0,0.0,0.0,0.0,0.0,0.0,0.0,0.0,0.0,0.0025398095471299044,-0.0007508456116643118,0.0007755600733513163,0.0,0.0,0.0,0.0,0.0,0.0,0.0,0.0,0.0,0.017368977368602864,0.02410085049861021,9.795836695789538,0.0,0.0,0.0,0.0,0.0,0.0,0.0,0.0,0.0
2025/05/20 12:56:16.313877611,1747738576,313276994,mA1/imu,0.9985283766196621,0.05422515528649287,4.356574548754728e-05,0.0008436358715917671,0.0,0.0,0.0,0.0,0.0,0.0,0.0,0.0,0.0,0.002978037231939171,-0.0018238220515244003,0.0006041344057340555,0.0,0.0,0.0,0.0,0.0,0.0,0.0,0.0,0.0,0.010570784338332714,-0.5952280440552641,9.7872140516982,0.0,0.0,0.0,0.0,0.0,0.0,0.0,0.0,0.0
2025/05/20 12:56:16.364952852,1747738576,364460121,mA1/imu,0.9985291678068987,0.0542115261089218,-1.7193490887528627e-05,0.0007817801403487498,0.0,0.0,0.0,0.0,0.0,0.0,0.0,0.0,0.0,0.0031833315763427766,-0.00265251669631248,0.0005047608350079819,0.0,0.0,0.0,0.0,0.0,0.0,0.0,0.0,0.0,0.01633811072717771,-0.5933232803882279,9.784018061328913,0.0,0.0,0.0,0.0,0.0,0.0,0.0,0.0,0.0
2025/05/20 12:56:16.416376338,1747738576,415932118,mA1/imu,0.9985298071537498,0.05420054643492774,-9.69084470021852e-05,0.0007180532037226335,0.0,0.0,0.0,0.0,0.0,0.0,0.0,0.0,0.0,0.0019177135980482359,-0.0032602289692145628,0.0003976161723923761,0.0,0.0,0.0,0.0,0.0,0.0,0.0,0.0,0.0,0.005894258000592609,-0.06033891008575941,9.7824585258407,0.0,0.0,0.0,0.0,0.0,0.0,0.0,0.0,0.0
2025/05/20 12:56:16.466753898,1747738576,466359207,mA1/imu,0.9985304609756342,0.05418908573399944,-0.00018486942247541418,0.0006536928922906978,0.0,0.0,0.0,0.0,0.0,0.0,0.0,0.0,0.0,0.0018601796779511663,-0.003446555990165992,0.00045802168054832697,0.0,0.0,0.0,0.0,0.0,0.0,0.0,0.0,0.0,0.0062956477199405895,-0.05734356221556584,9.779214968139861,0.0,0.0,0.0,0.0,0.0,0.0,0.0,0.0,0.0
2025/05/20 12:56:16.519035755,1747738576,518152763,mA1/imu,0.9985309938800538,0.054179639304930714,-0.0002794522675513012,0.0005855357630637794,0.0,0.0,0.0,0.0,0.0,0.0,0.0,0.0,0.0,0.0030088610475886555,-0.003712108837957713,0.00032295261785046485,0.0,0.0,0.0,0.0,0.0,0.0,0.0,0.0,0.0,0.007644206089267428,-0.37379344526548886,9.782356297967105,0.0,0.0,0.0,0.0,0.0,0.0,0.0,0.0,0.0
2025/05/20 12:56:16.568422210,1747738576,568140494,mA1/imu,0.9985313652733842,0.05417271798449331,-0.0003773196524199969,0.0005355570219085039,0.0,0.0,0.0,0.0,0.0,0.0,0.0,0.0,0.0,0.0012739020488357403,-0.0038184076221355837,0.00023698533653918746,0.0,0.0,0.0,0.0,0.0,0.0,0.0,0.0,0.0,0.0074274926088161615,0.5135939707101265,9.78704146655741,0.0,0.0,0.0,0.0,0.0,0.0,0.0,0.0,0.0
2025/05/20 12:56:16.622799096,1747738576,621835979,mA1/imu,0.9985315783315312,0.05416848287749654,-0.0004746539406731773,0.00048707404808022523,0.0,0.0,0.0,0.0,0.0,0.0,0.0,0.0,0.0,0.0017874050989701027,-0.0037559489738335896,0.00012807798669528997,0.0,0.0,0.0,0.0,0.0,0.0,0.0,0.0,0.0,0.011077425602776808,-0.35739511718260825,9.79096302014144,0.0,0.0,0.0,0.0,0.0,0.0,0.0,0.0,0.0
2025/05/20 12:56:16.668823914,1747738576,667450135,mA1/imu,0.9985316658104809,0.05416628028533858,-0.0005673233735164056,0.000452325088702278,0.0,0.0,0.0,0.0,0.0,0.0,0.0,0.0,0.0,0.0010723931351866243,-0.0034753121445481824,7.920958375995134e-05,0.0,0.0,0.0,0.0,0.0,0.0,0.0,0.0,0.0,0.005673176506387407,-0.021544919644293236,9.796790850408735,0.0,0.0,0.0,0.0,0.0,0.0,0.0,0.0,0.0
2025/05/20 12:56:16.720085677,1747738576,719232374,mA1/imu,0.9985317414379856,0.05416424574700827,-0.000648111063133881,0.00041925592578082466,0.0,0.0,0.0,0.0,0.0,0.0,0.0,0.0,0.0,0.0020005453660140817,-0.002955513139771994,5.064782055039632e-05,0.0,0.0,0.0,0.0,0.0,0.0,0.0,0.0,0.0,0.010034528099321718,0.07819875542555255,9.805324865991796,0.0,0.0,0.0,0.0,0.0,0.0,0.0,0.0,0.0
2025/05/20 12:56:16.769300155,1747738576,769065348,mA1/imu,0.9985317161841567,0.05416384455276015,-0.0007123736474540139,0.0004268973805234992,0.0,0.0,0.0,0.0,0.0,0.0,0.0,0.0,0.0,0.0003061094378069965,-0.0023115896357134196,1.7426121278225874e-05,0.0,0.0,0.0,0.0,0.0,0.0,0.0,0.0,0.0,0.004333263285719639,-0.6297520630656651,9.807826785078115,0.0,0.0,0.0,0.0,0.0,0.0,0.0,0.0,0.0
2025/05/20 12:56:16.815649734,1747738576,812999445,mA1/imu,0.9985316950427946,0.05416364713621693,-0.0007580191267678919,0.00042276573949192665,0.0,0.0,0.0,0.0,0.0,0.0,0.0,0.0,0.0,-0.0021074646093870164,-0.0015020820487452605,-2.0579921951619615e-05,0.0,0.0,0.0,0.0,0.0,0.0,0.0,0.0,0.0,0.010548740291595138,0.279732546047947,9.819815243519889,0.0,0.0,0.0,0.0,0.0,0.0,0.0,0.0,0.0
2025/05/20 12:56:16.863061116,1747738576,862827318,mA1/imu,0.9985314992308876,0.05416680966904808,-0.0007844303165085964,0.0004317905413783678,0.0,0.0,0.0,0.0,0.0,0.0,0.0,0.0,0.0,-0.001964069242277425,-0.0008020623536972469,-0.0002977144135380374,0.0,0.0,0.0,0.0,0.0,0.0,0.0,0.0,0.0,0.021320085101333392,0.5508368629752621,9.822875724110272,0.0,0.0,0.0,0.0,0.0,0.0,0.0,0.0,0.0
2025/05/20 12:56:16.914868724,1747738576,914337227,mA1/imu,0.9985307940270939,0.05417935602686818,-0.0007959331387291343,0.000466101463154332,0.0,0.0,0.0,0.0,0.0,0.0,0.0,0.0,0.0,-0.0023925448557763,-0.00022391231122372712,-0.0005495881736735591,0.0,0.0,0.0,0.0,0.0,0.0,0.0,0.0,0.0,0.009806848274929149,0.5234535184348725,9.830678233233566,0.0,0.0,0.0,0.0,0.0,0.0,0.0,0.0,0.0
2025/05/20 12:56:16.967869253,1747738576,967443974,mA1/imu,0.9985300478159947,0.05419295133534698,-0.0007846668870664799,0.0005019283099442226,0.0,0.0,0.0,0.0,0.0,0.0,0.0,0.0,0.0,-0.002307642593967655,0.0009368353916367327,-0.0004537315390244614,0.0,0.0,0.0,0.0,0.0,0.0,0.0,0.0,0.0,-0.014065363919075775,-0.030187733682352377,9.836492845504294,0.0,0.0,0.0,0.0,0.0,0.0,0.0,0.0,0.0
2025/05/20 12:56:17.21042975,1747738577,19255855,mA1/imu,0.9985295553164067,0.05420216277613612,-0.0007424739256986994,0.000549037774707537,0.0,0.0,0.0,0.0,0.0,0.0,0.0,0.0,0.0,-0.0027655128968219725,0.0018935055693177151,-0.0003815524193926618,0.0,0.0,0.0,0.0,0.0,0.0,0.0,0.0,0.0,0.011052832693411604,-0.04009031766599605,9.836952130922525,0.0,0.0,0.0,0.0,0.0,0.0,0.0,0.0,0.0
2025/05/20 12:56:17.78647842,1747738577,71104621,mA1/imu,0.998528977339074,0.05421306614003455,-0.0006836626317130807,0.0005978957144880656,0.0,0.0,0.0,0.0,0.0,0.0,0.0,0.0,0.0,-0.001642853742516077,0.0024471774138994907,-0.0004823021489240965,0.0,0.0,0.0,0.0,0.0,0.0,0.0,0.0,0.0,0.013874212816110437,0.060775488310576255,9.8368821852307,0.0,0.0,0.0,0.0,0.0,0.0,0.0,0.0,0.0
2025/05/20 12:56:17.113178485,1747738577,112821823,mA1/imu,0.9985282219200715,0.05422694119549561,-0.000611843882946206,0.0006741845323077775,0.0,0.0,0.0,0.0,0.0,0.0,0.0,0.0,0.0,-0.002620253771412961,0.0028610898330750888,-0.0005835413311547167,0.0,0.0,0.0,0.0,0.0,0.0,0.0,0.0,0.0,0.012173938991555642,0.0042726384917350785,9.836448311722434,0.0,0.0,0.0,0.0,0.0,0.0,0.0,0.0,0.0
2025/05/20 12:56:17.169111950,1747738577,168737265,mA1/imu,0.9985273582161988,0.054242906089887195,-0.0005326097684363772,0.0007337298802153355,0.0,0.0,0.0,0.0,0.0,0.0,0.0,0.0,0.0,-0.004281581088510692,0.003117881546918072,-0.0006877846051198079,0.0,0.0,0.0,0.0,0.0,0.0,0.0,0.0,0.0,0.015998159636255237,0.40613156743845896,9.833924530887796,0.0,0.0,0.0,0.0,0.0,0.0,0.0,0.0,0.0
2025/05/20 12:56:17.223526086,1747738577,221001327,mA1/imu,0.9985263187198626,0.05426186483023542,-0.0004509941346251158,0.0007984066601535324,0.0,0.0,0.0,0.0,0.0,0.0,0.0,0.0,0.0,-0.0035894303456333186,0.0031335138725745062,-0.0007861362105482897,0.0,0.0,0.0,0.0,0.0,0.0,0.0,0.0,0.0,0.014022567571791064,0.05185465446788062,9.828284784663571,0.0,0.0,0.0,0.0,0.0,0.0,0.0,0.0,0.0
2025/05/20 12:56:17.262239218,1747738577,261640620,mA1/imu,0.9985251788031743,0.05428259565241553,-0.0003705760432730917,0.000854270871185267,0.0,0.0,0.0,0.0,0.0,0.0,0.0,0.0,0.0,-0.0020217529593204216,0.0030426909134297704,-0.0008538660538538044,0.0,0.0,0.0,0.0,0.0,0.0,0.0,0.0,0.0,0.013558373827311574,-0.5754325703380052,9.822804577261511,0.0,0.0,0.0,0.0,0.0,0.0,0.0,0.0,0.0
2025/05/20 12:56:17.314115229,1747738577,313231964,mA1/imu,0.9985241398101121,0.05430140737688941,-0.00028970453229904664,0.0009030197388121657,0.0,0.0,0.0,0.0,0.0,0.0,0.0,0.0,0.0,-0.002406719777112232,0.003040464131472005,-0.0007467521858367718,0.0,0.0,0.0,0.0,0.0,0.0,0.0,0.0,0.0,0.015605567310441923,0.615938783501753,9.81589304695159,0.0,0.0,0.0,0.0,0.0,0.0,0.0,0.0,0.0
2025/05/20 12:56:17.368127804,1747738577,366252109,mA1/imu,0.9985234296406632,0.05431412968906612,-0.00020647670840614408,0.000945061974690766,0.0,0.0,0.0,0.0,0.0,0.0,0.0,0.0,0.0,-0.0011592322016901152,0.004120659903607687,0.00012566145834834368,0.0,0.0,0.0,0.0,0.0,0.0,0.0,0.0,0.0,-0.10285660466049083,0.47437728679004115,9.815009956056729,0.0,0.0,0.0,0.0,0.0,0.0,0.0,0.0,0.0
2025/05/20 12:56:17.417997160,1747738577,417782058,mA1/imu,0.9985249900198624,0.05428512623988767,-7.101952743916975e-05,0.0009820036557368918,0.0,0.0,0.0,0.0,0.0,0.0,0.0,0.0,0.0,-0.0013908933086521917,0.005643748518336081,0.0016167225785266688,0.0,0.0,0.0,0.0,0.0,0.0,0.0,0.0,0.0,-0.025319096040254525,0.3419614429772983,9.80338325535992,0.0,0.0,0.0,0.0,0.0,0.0,0.0,0.0,0.0
2025/05/20 12:56:17.467872415,1747738577,467498691,mA1/imu,0.99852752622518,0.0542381897156799,6.520157507364646e-05,0.0009969431993619214,0.0,0.0,0.0,0.0,0.0,0.0,0.0,0.0,0.0,-0.0004297325715582514,0.005318877681644895,0.002144960497130095,0.0,0.0,0.0,0.0,0.0,0.0,0.0,0.0,0.0,-0.026938780159506615,-0.09568305510579489,9.798588240824824,0.0,0.0,0.0,0.0,0.0,0.0,0.0,0.0,0.0
2025/05/20 12:56:17.518851050,1747738577,518441974,mA1/imu,0.9985311960173103,0.054170229522172576,0.00019638876626733027,0.0009991222185338018,0.0,0.0,0.0,0.0,0.0,0.0,0.0,0.0,0.0,-0.0002193121575840534,0.005110257199401038,0.0031130405507288437,0.0,0.0,0.0,0.0,0.0,0.0,0.0,0.0,0.0,-0.018660318132058477,0.3548984750668086,9.789864371242203,0.0,0.0,0.0,0.0,0.0,0.0,0.0,0.0,0.0
2025/05/20 12:56:17.571117014,1747738577,569010340,mA1/imu,0.9985356492531364,0.054087867942817384,0.00030303384359782926,0.0009838101989164698,0.0,0.0,0.0,0.0,0.0,0.0,0.0,0.0,0.0,0.0015556372426077866,0.0036076912444827822,0.003379317700283497,0.0,0.0,0.0,0.0,0.0,0.0,0.0,0.0,0.0,0.011181985317848418,-0.41765082588990693,9.786794795970636,0.0,0.0,0.0,0.0,0.0,0.0,0.0,0.0,0.0
2025/05/20 12:56:17.622969409,1747738577,620506795,mA1/imu,0.9985407537950014,0.05399348785589865,0.0003746220370952543,0.0009622567197506721,0.0,0.0,0.0,0.0,0.0,0.0,0.0,0.0,0.0,0.0015557623790574352,0.002613364777124646,0.004172773846930846,0.0,0.0,0.0,0.0,0.0,0.0,0.0,0.0,0.0,-0.027013023555246846,0.0498347516939103,9.78797308217539,0.0,0.0,0.0,0.0,0.0,0.0,0.0,0.0,0.0
2025/05/20 12:56:17.663420856,1747738577,661662321,mA1/imu,0.998546729962488,0.053883008801033035,0.0004165696130731474,0.0009359025201979773,0.0,0.0,0.0,0.0,0.0,0.0,0.0,0.0,0.0,0.002218283680843846,0.0008126629941798524,0.004393058185392244,0.0,0.0,0.0,0.0,0.0,0.0,0.0,0.0,0.0,0.029615089062417617,-0.5792308481412217,9.783417381924068,0.0,0.0,0.0,0.0,0.0,0.0,0.0,0.0,0.0
2025/05/20 12:56:17.715613369,1747738577,715400210,mA1/imu,0.998552385199714,0.05377890250401987,0.0003957423150150083,0.0008983570810020587,0.0,0.0,0.0,0.0,0.0,0.0,0.0,0.0,0.0,-0.0010087988647514143,-0.0017043133098781024,0.004113739869263581,0.0,0.0,0.0,0.0,0.0,0.0,0.0,0.0,0.0,0.0287942399311425,0.43369421830849403,9.786084306040134,0.0,0.0,0.0,0.0,0.0,0.0,0.0,0.0,0.0
2025/05/20 12:56:17.766927094,1747738577,765190506,mA1/imu,0.9985579773491091,0.05367627554842811,0.0003192191923608796,0.000849361414500385,0.0,0.0,0.0,0.0,0.0,0.0,0.0,0.0,0.0,0.0007943987551506218,-0.0035662568657727008,0.004187742096493328,0.0,0.0,0.0,0.0,0.0,0.0,0.0,0.0,0.0,0.0032708102286799646,0.5493836813913977,9.788303733063016,0.0,0.0,0.0,0.0,0.0,0.0,0.0,0.0,0.0
2025/05/20 12:56:17.817212805,1747738577,816949162,mA1/imu,0.9985637854003382,0.053569355204515307,0.00020277895975954867,0.0008059470288954537,0.0,0.0,0.0,0.0,0.0,0.0,0.0,0.0,0.0,0.001392991914993741,-0.005286973152044766,0.004261069840480942,0.0,0.0,0.0,0.0,0.0,0.0,0.0,0.0,0.0,0.024725132514481843,-0.05692750708372034,9.79186500990936,0.0,0.0,0.0,0.0,0.0,0.0,0.0,0.0,0.0
2025/05/20 12:56:17.869294978,1747738577,868129537,mA1/imu,0.9985694171084138,0.05346531115705548,4.248585070775627e-05,0.0007602062838877172,0.0,0.0,0.0,0.0,0.0,0.0,0.0,0.0,0.0,0.0014061776394622466,-0.0069897847576897345,0.0040157904798098065,0.0,0.0,0.0,0.0,0.0,0.0,0.0,0.0,0.0,0.03406982565272562,-0.05817079214138239,9.79475558564818,0.0,0.0,0.0,0.0,0.0,0.0,0.0,0.0,0.0
2025/05/20 12:56:17.919370501,1747738577,919106550,mA1/imu,0.9985745536620597,0.05336969779226179,-0.0001557748123031293,0.0007154511786026011,0.0,0.0,0.0,0.0,0.0,0.0,0.0,0.0,0.0,0.0006376850327737891,-0.00821809368640115,0.003778649020416818,0.0,0.0,0.0,0.0,0.0,0.0,0.0,0.0,0.0,0.018864202449425084,0.336880017689339,9.804618760838467,0.0,0.0,0.0,0.0,0.0,0.0,0.0,0.0,0.0
2025/05/20 12:56:17.971919257,1747738577,971110118,mA1/imu,0.9985795152078798,0.0532762371684873,-0.0003730889678873466,0.000674659162135773,0.0,0.0,0.0,0.0,0.0,0.0,0.0,0.0,0.0,0.0013098511408241235,-0.008765552402524187,0.003710264657809649,0.0,0.0,0.0,0.0,0.0,0.0,0.0,0.0,0.0,0.01687017244836069,-0.0500882957670611,9.810185522484083,0.0,0.0,0.0,0.0,0.0,0.0,0.0,0.0,0.0
2025/05/20 12:56:18.16324237,1747738578,15389357,mA1/imu,0.99858432781954,0.053184410662779576,-0.0005957391468820574,0.000635445134642804,0.0,0.0,0.0,0.0,0.0,0.0,0.0,0.0,0.0,0.0023135000648257615,-0.00876365370953666,0.0036462424757126603,0.0,0.0,0.0,0.0,0.0,0.0,0.0,0.0,0.0,0.013361833373147352,-0.10790016861496456,9.81941097229972,0.0,0.0,0.0,0.0,0.0,0.0,0.0,0.0,0.0
2025/05/20 12:56:18.65532487,1747738578,65243538,mA1/imu,0.998588993587303,0.05309431591181238,-0.0008105760352037423,0.0005987241813685352,0.0,0.0,0.0,0.0,0.0,0.0,0.0,0.0,0.0,0.003647773124709154,-0.008292900873121583,0.003562002351329104,0.0,0.0,0.0,0.0,0.0,0.0,0.0,0.0,0.0,0.015417141322441864,-0.4776301401135119,9.822483643857934,0.0,0.0,0.0,0.0,0.0,0.0,0.0,0.0,0.0
2025/05/20 12:56:18.117862074,1747738578,116281253,mA1/imu,0.9985934620591176,0.053007086295799796,-0.001005002600331775,0.0005799180880088106,0.0,0.0,0.0,0.0,0.0,0.0,0.0,0.0,0.0,0.001691831871010538,-0.0072926681596407585,0.0034617951430298203,0.0,0.0,0.0,0.0,0.0,0.0,0.0,0.0,0.0,0.00973538674613916,0.03212174406297752,9.827962616348172,0.0,0.0,0.0,0.0,0.0,0.0,0.0,0.0,0.0
2025/05/20 12:56:18.167577508,1747738578,166171364,mA1/imu,0.9985978436595678,0.05292126125982538,-0.0011666131946978548,0.0005707528228801964,0.0,0.0,0.0,0.0,0.0,0.0,0.0,0.0,0.0,0.00026501102837725183,-0.005746917594372236,0.003420799544424032,0.0,0.0,0.0,0.0,0.0,0.0,0.0,0.0,0.0,-0.0005286055751428341,-0.038363499677871865,9.830166384857401,0.0,0.0,0.0,0.0,0.0,0.0,0.0,0.0,0.0
2025/05/20 12:56:18.217665737,1747738578,217409721,mA1/imu,0.9986021957289817,0.052836384997397914,-0.0012826016688847206,0.0005709979180921861,0.0,0.0,0.0,0.0,0.0,0.0,0.0,0.0,0.0,-7.425191441687836e-06,-0.003924515872499049,0.003376851586315909,0.0,0.0,0.0,0.0,0.0,0.0,0.0,0.0,0.0,0.009166581577627491,-0.6539395346983221,9.834403635425714,0.0,0.0,0.0,0.0,0.0,0.0,0.0,0.0,0.0
2025/05/20 12:56:18.267349043,1747738578,267106653,mA1/imu,0.9986067224346717,0.05274926592243154,-0.0013474196405420587,0.0005597439052773195,0.0,0.0,0.0,0.0,0.0,0.0,0.0,0.0,0.0,5.1227090362457015e-05,-0.0012519254950870715,0.003797091598048705,0.0,0.0,0.0,0.0,0.0,0.0,0.0,0.0,0.0,-0.04819224228824367,0.019235955467083912,9.839754529381207,0.0,0.0,0.0,0.0,0.0,0.0,0.0,0.0,0.0
2025/05/20 12:56:18.318962252,1747738578,318296001,mA1/imu,0.9986122303531685,0.05264509478437427,-0.001335828287776128,0.0005682842600440712,0.0,0.0,0.0,0.0,0.0,0.0,0.0,0.0,0.0,-0.00042830146011082885,0.0012328327343940318,0.004193887465643044,0.0,0.0,0.0,0.0,0.0,0.0,0.0,0.0,0.0,0.012693483639093797,0.6333364805839062,9.835392308663366,0.0,0.0,0.0,0.0,0.0,0.0,0.0,0.0,0.0
2025/05/20 12:56:18.368696094,1747738578,368349908,mA1/imu,0.9986177537704001,0.05254140843662389,-0.0012777640823441322,0.0005912469926518359,0.0,0.0,0.0,0.0,0.0,0.0,0.0,0.0,0.0,-0.0013750614396791287,0.0029376509288551265,0.004130700648742876,0.0,0.0,0.0,0.0,0.0,0.0,0.0,0.0,0.0,0.013286933740907208,-0.028998163112854844,9.8310835176318,0.0,0.0,0.0,0.0,0.0,0.0,0.0,0.0,0.0
2025/05/20 12:56:18.423815064,1747738578,423074870,mA1/imu,0.9986232227057311,0.05243930399593391,-0.0011798585888473446,0.0006216131852588629,0.0,0.0,0.0,0.0,0.0,0.0,0.0,0.0,0.0,-0.0016590528706201377,0.004408125472604491,0.004069382427477304,0.0,0.0,0.0,0.0,0.0,0.0,0.0,0.0,0.0,0.015836944666163106,-0.6536088665464747,9.826553220655914,0.0,0.0,0.0,0.0,0.0,0.0,0.0,0.0,0.0
2025/05/20 12:56:18.464086365,1747738578,463413630,mA1/imu,0.9986286142135851,0.05233897024620585,-0.0010497200867297142,0.0006489646838049243,0.0,0.0,0.0,0.0,0.0,0.0,0.0,0.0,0.0,-0.0022884725523592614,0.005574535006062459,0.00397723555131467,0.0,0.0,0.0,0.0,0.0,0.0,0.0,0.0,0.0,0.019630663571526947,-0.04075766210401571,9.823905218232207,0.0,0.0,0.0,0.0,0.0,0.0,0.0,0.0,0.0
2025/05/20 12:56:18.521958385,1747738578,519130965,mA1/imu,0.9986338529477313,0.05224137703509323,-0.0008963604229990018,0.000680301578782542,0.0,0.0,0.0,0.0,0.0,0.0,0.0,0.0,0.0,-0.0007350610195951922,0.006364496356193168,0.0038882453629662216,0.0,0.0,0.0,0.0,0.0,0.0,0.0,0.0,0.0,0.01848981933067559,0.013438145252651924,9.816084618948862,0.0,0.0,0.0,0.0,0.0,0.0,0.0,0.0,0.0
2025/05/20 12:56:18.569637772,1747738578,569240024,mA1/imu,0.9986389746162886,0.052145324152334645,-0.0007262518884856228,0.0007321916211403548,0.0,0.0,0.0,0.0,0.0,0.0,0.0,0.0,0.0,-0.002399914339595034,0.0068370089795075075,0.003832126836154021,0.0,0.0,0.0,0.0,0.0,0.0,0.0,0.0,0.0,0.019274430803878514,-0.0201353586250223,9.808774824801421,0.0,0.0,0.0,0.0,0.0,0.0,0.0,0.0,0.0
2025/05/20 12:56:18.621095639,1747738578,620248484,mA1/imu,0.9986439906463052,0.05205060894259938,-0.0005508349366988795,0.0007814317626210456,0.0,0.0,0.0,0.0,0.0,0.0,0.0,0.0,0.0,-0.002218531541443382,0.006885776926741393,0.003779313188769783,0.0,0.0,0.0,0.0,0.0,0.0,0.0,0.0,0.0,0.02139242266313662,-0.6328723219164292,9.801958331936303,0.0,0.0,0.0,0.0,0.0,0.0,0.0,0.0,0.0
2025/05/20 12:56:18.676711550,1747738578,673207683,mA1/imu,0.9986488973185923,0.05195710652035639,-0.0003788588905100346,0.0008339258560261008,0.0,0.0,0.0,0.0,0.0,0.0,0.0,0.0,0.0,-0.003779665710637443,0.006678684026719242,0.003738766016846786,0.0,0.0,0.0,0.0,0.0,0.0,0.0,0.0,0.0,0.012267430117237228,-0.11306262671783801,9.799505899914983,0.0,0.0,0.0,0.0,0.0,0.0,0.0,0.0,0.0
2025/05/20 12:56:18.714364664,1747738578,713798020,mA1/imu,0.9986537400295,0.05186424113187412,-0.00021748409348146543,0.0008721912496697021,0.0,0.0,0.0,0.0,0.0,0.0,0.0,0.0,0.0,-0.0037269956731979088,0.006070014378979911,0.003708216537258669,0.0,0.0,0.0,0.0,0.0,0.0,0.0,0.0,0.0,0.023746017797641277,0.5140598105533131,9.792969939889238,0.0,0.0,0.0,0.0,0.0,0.0,0.0,0.0,0.0
2025/05/20 12:56:18.764422509,1747738578,763394980,mA1/imu,0.9986584952964211,0.0517724347405616,-7.876609952849242e-05,0.000904748154876424,0.0,0.0,0.0,0.0,0.0,0.0,0.0,0.0,0.0,-0.0021069114912616307,0.005050889980675415,0.003665603155656074,0.0,0.0,0.0,0.0,0.0,0.0,0.0,0.0,0.0,0.02289027035968113,0.6121531524591245,9.788732876516654,0.0,0.0,0.0,0.0,0.0,0.0,0.0,0.0,0.0
2025/05/20 12:56:18.818736113,1747738578,817432523,mA1/imu,0.9986631719797737,0.051681577277856,3.0417667971907208e-05,0.0009394552331969682,0.0,0.0,0.0,0.0,0.0,0.0,0.0,0.0,0.0,-9.248107630319328e-05,0.0037547068729325136,0.003628112910830961,0.0,0.0,0.0,0.0,0.0,0.0,0.0,0.0,0.0,0.02273356994242817,0.09999924253279793,9.785714288658983,0.0,0.0,0.0,0.0,0.0,0.0,0.0,0.0,0.0
2025/05/20 12:56:18.874263244,1747738578,871109881,mA1/imu,0.9986677736281079,0.05159181595961284,0.00010455607029983429,0.0009754540972143153,0.0,0.0,0.0,0.0,0.0,0.0,0.0,0.0,0.0,0.0005605052596632798,0.0022327624090707457,0.0035632066378533406,0.0,0.0,0.0,0.0,0.0,0.0,0.0,0.0,0.0,0.02701623000852949,-0.5135449145132553,9.783791674099492,0.0,0.0,0.0,0.0,0.0,0.0,0.0,0.0,0.0
2025/05/20 12:56:18.914360403,1747738578,913658818,mA1/imu,0.9986722740017461,0.0515040051866631,0.000138856971348522,0.0010036476746930398,0.0,0.0,0.0,0.0,0.0,0.0,0.0,0.0,0.0,-0.00040187352819032754,0.0006847125309552843,0.0035058455768978408,0.0,0.0,0.0,0.0,0.0,0.0,0.0,0.0,0.0,0.02186031100413617,-0.6123656499969328,9.78561208319748,0.0,0.0,0.0,0.0,0.0,0.0,0.0,0.0,0.0
2025/05/20 12:56:18.968365594,1747738578,967527889,mA1/imu,0.9986767356983427,0.05141724622418044,0.00013396511869495178,0.001013123374259603,0.0,0.0,0.0,0.0,0.0,0.0,0.0,0.0,0.0,-0.0013328090430948115,-0.0008124084179627659,0.0034243340454500316,0.0,0.0,0.0,0.0,0.0,0.0,0.0,0.0,0.0,0.02053792493641618,-0.20248643191258175,9.790283711756466,0.0,0.0,0.0,0.0,0.0,0.0,0.0,0.0,0.0
2025/05/20 12:56:19.19351709,1747738579,19101777,mA1/imu,0.9986810507843005,0.05133352657961228,9.163376801447376e-05,0.0010096813944243672,0.0,0.0,0.0,0.0,0.0,0.0,0.0,0.0,0.0,-0.0013430578888475172,-0.0022263319001810055,0.003336402821027689,0.0,0.0,0.0,0.0,0.0,0.0,0.0,0.0,0.0,0.019689549976601193,0.27103480351611653,9.794597741435865,0.0,0.0,0.0,0.0,0.0,0.0,0.0,0.0,0.0
2025/05/20 12:56:19.69692879,1747738579,68995099,mA1/imu,0.9986853392000308,0.051250414784921094,1.628698847452686e-05,0.000993974862465611,0.0,0.0,0.0,0.0,0.0,0.0,0.0,0.0,0.0,-0.0009583138522834902,-0.003439672504625823,0.0033187576195358504,0.0,0.0,0.0,0.0,0.0,0.0,0.0,0.0,0.0,0.0181999616504619,0.5086973363887243,9.797148846372151,0.0,0.0,0.0,0.0,0.0,0.0,0.0,0.0,0.0
2025/05/20 12:56:19.120938255,1747738579,119930254,mA1/imu,0.9986896094709494,0.05116763699830864,-8.72596779533803e-05,0.0009639732986111266,0.0,0.0,0.0,0.0,0.0,0.0,0.0,0.0,0.0,0.0010132528766101992,-0.0044406856935696485,0.003305772190340191,0.0,0.0,0.0,0.0,0.0,0.0,0.0,0.0,0.0,0.016034147577725325,0.6093337817762101,9.804775070631084,0.0,0.0,0.0,0.0,0.0,0.0,0.0,0.0,0.0
2025/05/20 12:56:19.177109511,1747738579,172435428,mA1/imu,0.9986939115078046,0.051083904504046505,-0.00020897109571064337,0.0009285197595054553,0.0,0.0,0.0,0.0,0.0,0.0,0.0,0.0,0.0,0.0023698610618351204,-0.004832519571509244,0.0034616864720414787,0.0,0.0,0.0,0.0,0.0,0.0,0.0,0.0,0.0,-0.0070234180151321135,0.044731094749793816,9.811966406177259,0.0,0.0,0.0,0.0,0.0,0.0,0.0,0.0,0.0
2025/05/20 12:56:19.214339439,1747738579,213714814,mA1/imu,0.9986985090301299,0.050993983003418945,-0.0003332744179112156,0.0008892056031354211,0.0,0.0,0.0,0.0,0.0,0.0,0.0,0.0,0.0,0.0028841459379516424,-0.005014133630274365,0.0036101591663474813,0.0,0.0,0.0,0.0,0.0,0.0,0.0,0.0,0.0,0.014032913689865673,0.05325305759573999,9.818071863553985,0.0,0.0,0.0,0.0,0.0,0.0,0.0,0.0,0.0
2025/05/20 12:56:19.264572929,1747738579,263584552,mA1/imu,0.998702719112782,0.05091111464918714,-0.0004749998012277916,0.0008435740051751108,0.0,0.0,0.0,0.0,0.0,0.0,0.0,0.0,0.0,0.0032556434506139905,-0.006683259297810842,0.0026312941266174745,0.0,0.0,0.0,0.0,0.0,0.0,0.0,0.0,0.0,0.1314800754211176,-0.5776069834255897,9.820034169602124,0.0,0.0,0.0,0.0,0.0,0.0,0.0,0.0,0.0
2025/05/20 12:56:19.317378639,1747738579,316803728,mA1/imu,0.9987047673211401,0.050869539673693315,-0.0006709462538242657,0.0007921455285051272,0.0,0.0,0.0,0.0,0.0,0.0,0.0,0.0,0.0,0.0019998337786666666,-0.007630897812524641,0.0014966763317813844,0.0,0.0,0.0,0.0,0.0,0.0,0.0,0.0,0.0,0.006740545214960016,-0.04217147593858378,9.828118605583787,0.0,0.0,0.0,0.0,0.0,0.0,0.0,0.0,0.0
2025/05/20 12:56:19.367028757,1747738579,366627108,mA1/imu,0.9987065467548397,0.050832781373549886,-0.000852547564249093,0.000731416094033087,0.0,0.0,0.0,0.0,0.0,0.0,0.0,0.0,0.0,0.0018906644950451355,-0.00673381212223749,0.0014630586622488716,0.0,0.0,0.0,0.0,0.0,0.0,0.0,0.0,0.0,0.0058697917791364525,-0.0449253194370708,9.829199596043209,0.0,0.0,0.0,0.0,0.0,0.0,0.0,0.0,0.0
2025/05/20 12:56:19.420773414,1747738579,418887570,mA1/imu,0.9987083115526205,0.050796118861799945,-0.0010056677858517537,0.0006718456640441963,0.0,0.0,0.0,0.0,0.0,0.0,0.0,0.0,0.0,0.0011147849371147282,-0.005448022272265299,0.001460767714008553,0.0,0.0,0.0,0.0,0.0,0.0,0.0,0.0,0.0,0.004745050578506653,0.5297142182096093,9.832893614030064,0.0,0.0,0.0,0.0,0.0,0.0,0.0,0.0,0.0
2025/05/20 12:56:19.469900769,1747738579,469454179,mA1/imu,0.9987100865367171,0.05075951169137583,-0.0011220229919018472,0.0006132593918736121,0.0,0.0,0.0,0.0,0.0,0.0,0.0,0.0,0.0,0.001896621322282209,-0.0038731137422917624,0.0014607897201825068,0.0,0.0,0.0,0.0,0.0,0.0,0.0,0.0,0.0,0.003764888208676438,-0.03035481271808575,9.833839311434255,0.0,0.0,0.0,0.0,0.0,0.0,0.0,0.0,0.0
2025/05/20 12:56:19.512297367,1747738579,511934196,mA1/imu,0.9987118962017675,0.0507229159086015,-0.0011955506363496397,0.0005521281326167897,0.0,0.0,0.0,0.0,0.0,0.0,0.0,0.0,0.0,0.0013508179622779887,-0.0020753038233001044,0.0014613258861023092,0.0,0.0,0.0,0.0,0.0,0.0,0.0,0.0,0.0,0.0038256429939386404,0.5746421429889088,9.833772981912519,0.0,0.0,0.0,0.0,0.0,0.0,0.0,0.0,0.0
2025/05/20 12:56:19.562836924,1747738579,562400816,mA1/imu,0.9987137455080777,0.0506863455619913,-0.0012219471419290123,0.0005057192695341554,0.0,0.0,0.0,0.0,0.0,0.0,0.0,0.0,0.0,0.002314580545376766,-0.00020745167835686703,0.0014618427820054665,0.0,0.0,0.0,0.0,0.0,0.0,0.0,0.0,0.0,0.0037716103049967274,0.03888859565524281,9.829228964533494,0.0,0.0,0.0,0.0,0.0,0.0,0.0,0.0,0.0
2025/05/20 12:56:19.615051208,1747738579,614274396,mA1/imu,0.9987156422696125,0.05064981478394772,-0.001200757475086864,0.0004693930475059149,0.0,0.0,0.0,0.0,0.0,0.0,0.0,0.0,0.0,0.002024919614969343,0.0016495174621629254,0.001461715134682149,0.0,0.0,0.0,0.0,0.0,0.0,0.0,0.0,0.0,0.0050612333509847535,-0.5826206781808426,9.825202384267147,0.0,0.0,0.0,0.0,0.0,0.0,0.0,0.0,0.0
2025/05/20 12:56:19.665112111,1747738579,664797618,mA1/imu,0.9987175563463958,0.050613906807975624,-0.0011349836661970678,0.0004323137689697567,0.0,0.0,0.0,0.0,0.0,0.0,0.0,0.0,0.0,0.0018387797114170644,0.003356276639438823,0.0013827133304044996,0.0,0.0,0.0,0.0,0.0,0.0,0.0,0.0,0.0,0.005928698727004987,-0.5653787252705181,9.822173799924004,0.0,0.0,0.0,0.0,0.0,0.0,0.0,0.0,0.0
2025/05/20 12:56:19.717785617,1747738579,717532945,mA1/imu,0.9987193509138713,0.05058097276041324,-0.0010279180022209808,0.0004082760912510857,0.0,0.0,0.0,0.0,0.0,0.0,0.0,0.0,0.0,0.0010836506336181341,0.004909588869158748,0.0013091650824801511,0.0,0.0,0.0,0.0,0.0,0.0,0.0,0.0,0.0,0.006950516631110815,0.05796695156909397,9.814272811374833,0.0,0.0,0.0,0.0,0.0,0.0,0.0,0.0,0.0
2025/05/20 12:56:19.767867157,1747738579,767351730,mA1/imu,0.9987211211761653,0.05054870547331993,-0.0008865598133232228,0.0004055900543374315,0.0,0.0,0.0,0.0,0.0,0.0,0.0,0.0,0.0,-0.0011011787858585854,0.006089044145430542,0.0012732409330010195,0.0,0.0,0.0,0.0,0.0,0.0,0.0,0.0,0.0,0.010684067396425322,0.5753870874990361,9.810208979776277,0.0,0.0,0.0,0.0,0.0,0.0,0.0,0.0,0.0
2025/05/20 12:56:19.818646247,1747738579,818357422,mA1/imu,0.9987228194956606,0.05051769201432591,-0.0007216456421586711,0.00041453558514503995,0.0,0.0,0.0,0.0,0.0,0.0,0.0,0.0,0.0,-0.001452124212559693,0.006859709017211891,0.0012382194140353677,0.0,0.0,0.0,0.0,0.0,0.0,0.0,0.0,0.0,0.010961557746112516,-0.042641545640579,9.803658713312561,0.0,0.0,0.0,0.0,0.0,0.0,0.0,0.0,0.0
2025/05/20 12:56:19.869428491,1747738579,868600583,mA1/imu,0.9987244771858976,0.050487056884066926,-0.0005423212425040558,0.0004261978535359445,0.0,0.0,0.0,0.0,0.0,0.0,0.0,0.0,0.0,-0.00026716051180542796,0.007263905240261197,0.0012251442073542224,0.0,0.0,0.0,0.0,0.0,0.0,0.0,0.0,0.0,0.011239754084569533,-0.5541899972010864,9.798272953579175,0.0,0.0,0.0,0.0,0.0,0.0,0.0,0.0,0.0
2025/05/20 12:56:19.920815174,1747738579,919536819,mA1/imu,0.9987260776914804,0.05045677917354452,-0.00035850779903917764,0.0004545839650834015,0.0,0.0,0.0,0.0,0.0,0.0,0.0,0.0,0.0,-0.0017414364895106688,0.007235720433260879,0.0012105731898674952,0.0,0.0,0.0,0.0,0.0,0.0,0.0,0.0,0.0,0.013773345892371136,0.3141477120177537,9.792897538012598,0.0,0.0,0.0,0.0,0.0,0.0,0.0,0.0,0.0
2025/05/20 12:56:19.971568027,1747738579,970602287,mA1/imu,0.9987276143960023,0.05042687788290792,-0.0001810172255064473,0.0004994623276865159,0.0,0.0,0.0,0.0,0.0,0.0,0.0,0.0,0.0,-0.002149649377336447,0.00678909134722616,0.0011952473298288216,0.0,0.0,0.0,0.0,0.0,0.0,0.0,0.0,0.0,0.01374884947971639,-0.3577244044956333,9.788833972107405,0.0,0.0,0.0,0.0,0.0,0.0,0.0,0.0,0.0
2025/05/20 12:56:20.15003873,1747738580,14826152,mA1/imu,0.9987290964096235,0.05039735080848588,-2.0502206285027042e-05,0.0005464393497377758,0.0,0.0,0.0,0.0,0.0,0.0,0.0,0.0,0.0,-0.0032417889828408385,0.005952666467410453,0.0011797706579048772,0.0,0.0,0.0,0.0,0.0,0.0,0.0,0.0,0.0,0.01656758365909109,-0.051963717676068125,9.787750851281714,0.0,0.0,0.0,0.0,0.0,0.0,0.0,0.0,0.0
2025/05/20 12:56:20.65026319,1747738580,64653066,mA1/imu,0.9987305238100928,0.05036820829833759,0.00011473620954963277,0.0006092933901551348,0.0,0.0,0.0,0.0,0.0,0.0,0.0,0.0,0.0,-0.0036561577543401313,0.004791387378935022,0.0011636502968501538,0.0,0.0,0.0,0.0,0.0,0.0,0.0,0.0,0.0,0.015979140857823405,-0.06470897848511913,9.7881285193842,0.0,0.0,0.0,0.0,0.0,0.0,0.0,0.0,0.0
2025/05/20 12:56:20.117453006,1747738580,116025113,mA1/imu,0.9987319275826828,0.050339443220083734,0.00021575883035924293,0.0006563013013151878,0.0,0.0,0.0,0.0,0.0,0.0,0.0,0.0,0.0,-0.003131225614159931,0.0033605795228581242,0.0011477403675291338,0.0,0.0,0.0,0.0,0.0,0.0,0.0,0.0,0.0,0.017128938649843925,0.3541363523900054,9.787693644960838,0.0,0.0,0.0,0.0,0.0,0.0,0.0,0.0,0.0
2025/05/20 12:56:20.166736078,1747738580,165974585,mA1/imu,0.9987332939179456,0.05031104406656081,0.0002796367498556992,0.000726820494444894,0.0,0.0,0.0,0.0,0.0,0.0,0.0,0.0,0.0,-0.0019423070907940774,0.0017494818257464473,0.001132127263301367,0.0,0.0,0.0,0.0,0.0,0.0,0.0,0.0,0.0,0.017271456447773458,0.04985929241871406,9.790471900678984,0.0,0.0,0.0,0.0,0.0,0.0,0.0,0.0,0.0
2025/05/20 12:56:20.218447146,1747738580,216977105,mA1/imu,0.9987346489446445,0.0502830011085065,0.000302045046043276,0.0007934517817128352,0.0,0.0,0.0,0.0,0.0,0.0,0.0,0.0,0.0,-0.0036163281415327207,8.725376845650677e-05,0.001116945874354989,0.0,0.0,0.0,0.0,0.0,0.0,0.0,0.0,0.0,0.017153622776717788,-0.002527881804213549,9.795918225906632,0.0,0.0,0.0,0.0,0.0,0.0,0.0,0.0,0.0
2025/05/20 12:56:20.269294185,1747738580,268731121,mA1/imu,0.9987360097036624,0.05025529603340037,0.0002816236035306549,0.0008419203925929082,0.0,0.0,0.0,0.0,0.0,0.0,0.0,0.0,0.0,-0.0026605288810702425,-0.0015499821911178918,0.0011024527856061807,0.0,0.0,0.0,0.0,0.0,0.0,0.0,0.0,0.0,0.015746948176159348,0.6011107031544558,9.798653422617845,0.0,0.0,0.0,0.0,0.0,0.0,0.0,0.0,0.0
2025/05/20 12:56:20.315464127,1747738580,313855550,mA1/imu,0.9987373504643502,0.05022789450842741,0.00022239734279183598,0.00090218630115369,0.0,0.0,0.0,0.0,0.0,0.0,0.0,0.0,0.0,-0.002050149076442905,-0.00308965584619132,0.0010897923037290255,0.0,0.0,0.0,0.0,0.0,0.0,0.0,0.0,0.0,0.014696823405020563,-0.012406925072052065,9.805219973172298,0.0,0.0,0.0,0.0,0.0,0.0,0.0,0.0,0.0
2025/05/20 12:56:20.369548671,1747738580,368381121,mA1/imu,0.9987390247038892,0.050194190202562085,0.0001376321726447333,0.000940670408997108,0.0,0.0,0.0,0.0,0.0,0.0,0.0,0.0,0.0,-0.0023033958545587603,-0.002910492286389424,0.0019793356690876213,0.0,0.0,0.0,0.0,0.0,0.0,0.0,0.0,0.0,-0.10167244007735976,0.2406952843596461,9.811539804021725,0.0,0.0,0.0,0.0,0.0,0.0,0.0,0.0,0.0
2025/05/20 12:56:20.420656510,1747738580,419351573,mA1/imu,0.9987431469615902,0.050111730639890543,9.509902879829477e-05,0.0009653008388844935,0.0,0.0,0.0,0.0,0.0,0.0,0.0,0.0,0.0,0.0013861683462245851,-0.0009615841731702903,0.004159894576549209,0.0,0.0,0.0,0.0,0.0,0.0,0.0,0.0,0.0,-0.08440665001413863,-0.4627588248446432,9.814507664815805,0.0,0.0,0.0,0.0,0.0,0.0,0.0,0.0,0.0
2025/05/20 12:56:20.475222749,1747738580,469468464,mA1/imu,0.9987490839083232,0.04999273731734491,7.684956015872047e-05,0.000993831952318024,0.0,0.0,0.0,0.0,0.0,0.0,0.0,0.0,0.0,-0.000402779703816648,-0.0005202132892192008,0.005321156110144976,0.0,0.0,0.0,0.0,0.0,0.0,0.0,0.0,0.0,-0.07780444780513826,-0.31445109844305796,9.822804043898376,0.0,0.0,0.0,0.0,0.0,0.0,0.0,0.0,0.0
2025/05/20 12:56:20.529281872,1747738580,522026292,mA1/imu,0.9987573483815769,0.04982749827670397,9.399043164392933e-05,0.0009852081430094806,0.0,0.0,0.0,0.0,0.0,0.0,0.0,0.0,0.0,-0.000415436264237315,0.0014515360572308785,0.007467556342762223,0.0,0.0,0.0,0.0,0.0,0.0,0.0,0.0,0.0,-0.08025192011509544,0.6064766094612467,9.829686085207545,0.0,0.0,0.0,0.0,0.0,0.0,0.0,0.0,0.0
2025/05/20 12:56:20.568933501,1747738580,566840967,mA1/imu,0.9987669955074596,0.04963367394813764,0.00011965916972292731,0.0009862946290277728,0.0,0.0,0.0,0.0,0.0,0.0,0.0,0.0,0.0,0.0010571242675740148,0.00021494809249087633,0.007673774876299629,0.0,0.0,0.0,0.0,0.0,0.0,0.0,0.0,0.0,0.03423085721222963,0.039873692991638995,9.829754217323684,0.0,0.0,0.0,0.0,0.0,0.0,0.0,0.0,0.0
2025/05/20 12:56:20.619321579,1747738580,617934106,mA1/imu,0.9987778337431658,0.049415295133633345,0.00014024996545628364,0.0009735297182172589,0.0,0.0,0.0,0.0,0.0,0.0,0.0,0.0,0.0,-0.00030901128901528494,0.0008495293631134139,0.009248609387457954,0.0,0.0,0.0,0.0,0.0,0.0,0.0,0.0,0.0,-0.00904747103399712,-0.03104443939413772,9.833192360823501,0.0,0.0,0.0,0.0,0.0,0.0,0.0,0.0,0.0
2025/05/20 12:56:20.672985635,1747738580,670691184,mA1/imu,0.9987895171993146,0.04917920009575076,0.0001356939534784032,0.0009424424931825245,0.0,0.0,0.0,0.0,0.0,0.0,0.0,0.0,0.0,0.001593218057559513,-0.0008538963847759604,0.009529147913130549,0.0,0.0,0.0,0.0,0.0,0.0,0.0,0.0,0.0,0.02360633435229888,0.035038501968518626,9.830710440529366,0.0,0.0,0.0,0.0,0.0,0.0,0.0,0.0,0.0
2025/05/20 12:56:20.717152928,1747738580,715548964,mA1/imu,0.9988013468497691,0.048938802997936355,8.668543109687749e-05,0.000924974514484209,0.0,0.0,0.0,0.0,0.0,0.0,0.0,0.0,0.0,0.0016508142397265854,-0.002725066207671587,0.009645555182962725,0.0,0.0,0.0,0.0,0.0,0.0,0.0,0.0,0.0,0.03478926665594942,-0.21346684979996136,9.831543856538563,0.0,0.0,0.0,0.0,0.0,0.0,0.0,0.0,0.0
2025/05/20 12:56:20.764130281,1747738580,763745052,mA1/imu,0.9988131998753071,0.048697033775593174,-9.847166418067968e-06,0.0008891340404985565,0.0,0.0,0.0,0.0,0.0,0.0,0.0,0.0,0.0,0.0007540511980948317,-0.004454363564967845,0.009712168402899233,0.0,0.0,0.0,0.0,0.0,0.0,0.0,0.0,0.0,0.032194735667105276,-0.050970278288967635,9.82812203061449,0.0,0.0,0.0,0.0,0.0,0.0,0.0,0.0,0.0
2025/05/20 12:56:20.816116166,1747738580,815463872,mA1/imu,0.9988250906841789,0.04845299080318493,-0.00014585255682362792,0.0008512514317281732,0.0,0.0,0.0,0.0,0.0,0.0,0.0,0.0,0.0,0.002406321657750472,-0.005900778731625832,0.00980731561951474,0.0,0.0,0.0,0.0,0.0,0.0,0.0,0.0,0.0,0.02987669736099306,0.0628421888841356,9.823072675442258,0.0,0.0,0.0,0.0,0.0,0.0,0.0,0.0,0.0
2025/05/20 12:56:20.866030174,1747738580,865429032,mA1/imu,0.9988370187239055,0.04820629035842292,-0.00031136976618189796,0.0008164836118620776,0.0,0.0,0.0,0.0,0.0,0.0,0.0,0.0,0.0,0.002390455524594842,-0.006929139557754386,0.009917363985598298,0.0,0.0,0.0,0.0,0.0,0.0,0.0,0.0,0.0,0.028104355893202242,0.3251189898715856,9.821963543047762,0.0,0.0,0.0,0.0,0.0,0.0,0.0,0.0,0.0
2025/05/20 12:56:20.918015615,1747738580,917199824,mA1/imu,0.9988490027541698,0.04795619605687838,-0.0004956736343878284,0.0007920002544224837,0.0,0.0,0.0,0.0,0.0,0.0,0.0,0.0,0.0,0.0025261486079750256,-0.00754892784498431,0.01007628720529072,0.0,0.0,0.0,0.0,0.0,0.0,0.0,0.0,0.0,0.023779853666293746,0.06459728654002965,9.814913364317553,0.0,0.0,0.0,0.0,0.0,0.0,0.0,0.0,0.0
2025/05/20 12:56:20.967403607,1747738580,967029197,mA1/imu,0.9988609401811985,0.04770497880911603,-0.0006890888082650634,0.000763107966315623,0.0,0.0,0.0,0.0,0.0,0.0,0.0,0.0,0.0,0.0016989064292334453,-0.007797386454886992,0.009930461218234047,0.0,0.0,0.0,0.0,0.0,0.0,0.0,0.0,0.0,0.03639101583543118,0.0051755517639458775,9.81319384290328,0.0,0.0,0.0,0.0,0.0,0.0,0.0,0.0,0.0
2025/05/20 12:56:21.19607991,1747738581,19138743,mA1/imu,0.9988724470713494,0.04746055760396182,-0.0008832620933008838,0.00074148613603612,0.0,0.0,0.0,0.0,0.0,0.0,0.0,0.0,0.0,0.0007297474523054344,-0.007528998748488373,0.00976616495760517,0.0,0.0,0.0,0.0,0.0,0.0,0.0,0.0,0.0,0.019760550538983124,0.5890734681587719,9.804201434623911,0.0,0.0,0.0,0.0,0.0,0.0,0.0,0.0,0.0
2025/05/20 12:56:21.72429825,1747738581,71792104,mA1/imu,0.9988838522239456,0.04721649517883582,-0.001060451640293747,0.0007264926678229004,0.0,0.0,0.0,0.0,0.0,0.0,0.0,0.0,0.0,0.0008361912429627022,-0.006688703206718338,0.009766001603506035,0.0,0.0,0.0,0.0,0.0,0.0,0.0,0.0,0.0,0.018918852510082056,-0.3054142698480165,9.798462421243086,0.0,0.0,0.0,0.0,0.0,0.0,0.0,0.0,0.0
2025/05/20 12:56:21.115443255,1747738581,113499995,mA1/imu,0.9988951961460805,0.04697252210556885,-0.0012107667073323989,0.0007094556404264485,0.0,0.0,0.0,0.0,0.0,0.0,0.0,0.0,0.0,0.0016361912312061425,-0.0054609886870163145,0.009762662457765222,0.0,0.0,0.0,0.0,0.0,0.0,0.0,0.0,0.0,0.016962807859726398,-0.18838676273196395,9.79328751188232,0.0,0.0,0.0,0.0,0.0,0.0,0.0,0.0,0.0
2025/05/20 12:56:21.165362332,1747738581,164262592,mA1/imu,0.9989064290662579,0.04672997102575938,-0.0013259787206306918,0.000705378240056266,0.0,0.0,0.0,0.0,0.0,0.0,0.0,0.0,0.0,-0.0006046454526361312,-0.004050901307948252,0.00958911271689254,0.0,0.0,0.0,0.0,0.0,0.0,0.0,0.0,0.0,0.02806965964519097,0.5540447100617426,9.791377777430492,0.0,0.0,0.0,0.0,0.0,0.0,0.0,0.0,0.0
2025/05/20 12:56:21.223677184,1747738581,222590320,mA1/imu,0.998917318767027,0.04649432688837807,-0.0014049635825488127,0.0007027886039827382,0.0,0.0,0.0,0.0,0.0,0.0,0.0,0.0,0.0,-0.00022275343655129635,-0.002448705278614358,0.009410959326117106,0.0,0.0,0.0,0.0,0.0,0.0,0.0,0.0,0.0,0.0159130334907902,-0.02063214257676105,9.787822007175045,0.0,0.0,0.0,0.0,0.0,0.0,0.0,0.0,0.0
2025/05/20 12:56:21.263851291,1747738581,262044774,mA1/imu,0.9989281241462471,0.04626035703927306,-0.0014379890779007026,0.0007171775727838835,0.0,0.0,0.0,0.0,0.0,0.0,0.0,0.0,0.0,-0.0007973097235523812,-0.0006843232675066902,0.009260151991764462,0.0,0.0,0.0,0.0,0.0,0.0,0.0,0.0,0.0,0.02758329460073449,-0.045735827480037,9.786396322368084,0.0,0.0,0.0,0.0,0.0,0.0,0.0,0.0,0.0
2025/05/20 12:56:21.315038084,1747738581,314722174,mA1/imu,0.9989383351547773,0.046039100499659764,-0.0014359545364100142,0.0007360828440311392,0.0,0.0,0.0,0.0,0.0,0.0,0.0,0.0,0.0,-0.00214051633130124,0.00034374080197897724,0.008471468581400807,0.0,0.0,0.0,0.0,0.0,0.0,0.0,0.0,0.0,0.05445195733322929,0.22016486362051732,9.788901420771486,0.0,0.0,0.0,0.0,0.0,0.0,0.0,0.0,0.0
2025/05/20 12:56:21.369625068,1747738581,366485672,mA1/imu,0.9989478777407548,0.045832405450910225,-0.0014012117469400125,0.0007515141154326978,0.0,0.0,0.0,0.0,0.0,0.0,0.0,0.0,0.0,-0.0012765989347933036,0.002193668632652682,0.008204211648678274,0.0,0.0,0.0,0.0,0.0,0.0,0.0,0.0,0.0,0.01690590735703494,-0.025793113792651624,9.792070581932423,0.0,0.0,0.0,0.0,0.0,0.0,0.0,0.0,0.0
2025/05/20 12:56:21.421650730,1747738581,420456358,mA1/imu,0.9989571518030715,0.04563167364020157,-0.0013179446694884115,0.000788824528863829,0.0,0.0,0.0,0.0,0.0,0.0,0.0,0.0,0.0,-0.0020122011841290396,0.003933406616049527,0.007924911119990363,0.0,0.0,0.0,0.0,0.0,0.0,0.0,0.0,0.0,0.017179487703898266,-0.06323712098151112,9.797819246734907,0.0,0.0,0.0,0.0,0.0,0.0,0.0,0.0,0.0
2025/05/20 12:56:21.470535341,1747738581,469362752,mA1/imu,0.9989662876311317,0.04543429687514387,-0.0011886012030662974,0.0008173561747154665,0.0,0.0,0.0,0.0,0.0,0.0,0.0,0.0,0.0,-0.0023189345104516795,0.005882791876723406,0.00789185097118757,0.0,0.0,0.0,0.0,0.0,0.0,0.0,0.0,0.0,0.009364977891177925,0.04645121043798694,9.797893622182254,0.0,0.0,0.0,0.0,0.0,0.0,0.0,0.0,0.0
2025/05/20 12:56:21.521975207,1747738581,520476780,mA1/imu,0.9989752041833471,0.0452414529483715,-0.0010187927596821361,0.0008452356318470688,0.0,0.0,0.0,0.0,0.0,0.0,0.0,0.0,0.0,-0.0016441927759091586,0.007297445987370903,0.00764092132545894,0.0,0.0,0.0,0.0,0.0,0.0,0.0,0.0,0.0,0.00993121898617382,-0.011432497939800331,9.803067283940724,0.0,0.0,0.0,0.0,0.0,0.0,0.0,0.0,0.0
2025/05/20 12:56:21.565222477,1747738581,563305416,mA1/imu,0.9989838979369672,0.04505254620987491,-0.0008155454492845841,0.0008801297009454664,0.0,0.0,0.0,0.0,0.0,0.0,0.0,0.0,0.0,-0.0019557962479460718,0.008454700426987372,0.007495160049966792,0.0,0.0,0.0,0.0,0.0,0.0,0.0,0.0,0.0,0.013282401827769744,0.5980744367811266,9.808285487616855,0.0,0.0,0.0,0.0,0.0,0.0,0.0,0.0,0.0
2025/05/20 12:56:21.615192138,1747738581,614957682,mA1/imu,0.998992223259741,0.04487027481600211,-0.0005952669154745044,0.0009175847621115252,0.0,0.0,0.0,0.0,0.0,0.0,0.0,0.0,0.0,-0.0011864248720461872,0.008849081935469755,0.00717100185235837,0.0,0.0,0.0,0.0,0.0,0.0,0.0,0.0,0.0,0.01287734399234934,-0.17734661487230716,9.813415232942601,0.0,0.0,0.0,0.0,0.0,0.0,0.0,0.0,0.0
2025/05/20 12:56:21.666175183,1747738581,665158129,mA1/imu,0.9990002183525337,0.0446935764567725,-0.00036807120631033056,0.0009552374991333077,0.0,0.0,0.0,0.0,0.0,0.0,0.0,0.0,0.0,-0.0011106951052852459,0.008925471194681938,0.006955221927613891,0.0,0.0,0.0,0.0,0.0,0.0,0.0,0.0,0.0,0.020493547683562624,-0.6134748973548263,9.821092217145493,0.0,0.0,0.0,0.0,0.0,0.0,0.0,0.0,0.0
2025/05/20 12:56:21.719253110,1747738581,718940880,mA1/imu,0.9990077257609062,0.04452605227413277,-0.0001501678340205666,0.0009858947839509497,0.0,0.0,0.0,0.0,0.0,0.0,0.0,0.0,0.0,-0.0010452647276502796,0.008358329990353252,0.006544010061289449,0.0,0.0,0.0,0.0,0.0,0.0,0.0,0.0,0.0,0.020182299796544328,-0.6177776475872824,9.826616009264539,0.0,0.0,0.0,0.0,0.0,0.0,0.0,0.0,0.0
2025/05/20 12:56:21.769026898,1747738581,767986585,mA1/imu,0.9990146538470995,0.04436996724749018,4.5621471083841826e-05,0.001012582785683693,0.0,0.0,0.0,0.0,0.0,0.0,0.0,0.0,0.0,-0.0025913198505355746,0.007330559412801269,0.0060607181049643485,0.0,0.0,0.0,0.0,0.0,0.0,0.0,0.0,0.0,0.020169280319902186,0.5239953364349117,9.827531734074055,0.0,0.0,0.0,0.0,0.0,0.0,0.0,0.0,0.0
2025/05/20 12:56:21.821042331,1747738581,819835562,mA1/imu,0.9990209298512144,0.04422749922613611,0.00020751539155025144,0.0010329418084095868,0.0,0.0,0.0,0.0,0.0,0.0,0.0,0.0,0.0,-0.002367532199900105,0.005841699745210612,0.005496360053100995,0.0,0.0,0.0,0.0,0.0,0.0,0.0,0.0,0.0,0.020330346303669863,0.5204936756224907,9.829581743250339,0.0,0.0,0.0,0.0,0.0,0.0,0.0,0.0,0.0
2025/05/20 12:56:21.876824704,1747738581,870445187,mA1/imu,0.9990265360932487,0.044099654096155246,0.0003278231487122731,0.0010455726218538462,0.0,0.0,0.0,0.0,0.0,0.0,0.0,0.0,0.0,-0.000358631020982714,0.0040369480599002396,0.0048522135590424375,0.0,0.0,0.0,0.0,0.0,0.0,0.0,0.0,0.0,0.02191329975465666,0.0076618681897868135,9.829722294463235,0.0,0.0,0.0,0.0,0.0,0.0,0.0,0.0,0.0
2025/05/20 12:56:21.913541071,1747738581,911479377,mA1/imu,0.9990313834934827,0.04398899288886389,0.0003991302115166197,0.0010507115662831009,0.0,0.0,0.0,0.0,0.0,0.0,0.0,0.0,0.0,0.0017054451614185511,0.002012954471001355,0.0041431324970280965,0.0,0.0,0.0,0.0,0.0,0.0,0.0,0.0,0.0,0.020216008430366764,-0.5059654044578216,9.827977688202076,0.0,0.0,0.0,0.0,0.0,0.0,0.0,0.0,0.0
2025/05/20 12:56:21.962782043,1747738581,962404648,mA1/imu,0.9990354499132099,0.043896220791187726,0.0004198475577791251,0.001056098948827245,0.0,0.0,0.0,0.0,0.0,0.0,0.0,0.0,0.0,0.0006218703916114162,-3.408515915311533e-05,0.003408748743987513,0.0,0.0,0.0,0.0,0.0,0.0,0.0,0.0,0.0,0.022584415666868498,0.009102268135695108,9.83107965398835,0.0,0.0,0.0,0.0,0.0,0.0,0.0,0.0,0.0
2025/05/20 12:56:22.14741783,1747738582,14159913,mA1/imu,0.9990390659158326,0.043814160159645704,0.0003986944732412717,0.0010512783849312471,0.0,0.0,0.0,0.0,0.0,0.0,0.0,0.0,0.0,-0.0003316797686503802,-0.0013785469563950261,0.003206036084748003,0.0,0.0,0.0,0.0,0.0,0.0,0.0,0.0,0.0,0.0005497604187073664,-0.079563800246845,9.825914470209986,0.0,0.0,0.0,0.0,0.0,0.0,0.0,0.0,0.0
2025/05/20 12:56:22.71103411,1747738582,66656388,mA1/imu,0.9990426237296757,0.04373399926369387,0.0003486754182569896,0.001025526782485059,0.0,0.0,0.0,0.0,0.0,0.0,0.0,0.0,0.0,0.00014823876239557993,-0.0020093627766192067,0.0034055051668708826,0.0,0.0,0.0,0.0,0.0,0.0,0.0,0.0,0.0,-0.04884255425004321,-0.08277503569028108,9.820574143603096,0.0,0.0,0.0,0.0,0.0,0.0,0.0,0.0,0.0
2025/05/20 12:56:22.118124468,1747738582,117838339,mA1/imu,0.9990466950179022,0.04364236552255125,0.0002926091173462315,0.0009795332088669809,0.0,0.0,0.0,0.0,0.0,0.0,0.0,0.0,0.0,0.0019964659260875432,-0.002552546376562374,0.0036298096714384213,0.0,0.0,0.0,0.0,0.0,0.0,0.0,0.0,0.0,5.084653508227385e-05,0.013825657294983189,9.814501561951856,0.0,0.0,0.0,0.0,0.0,0.0,0.0,0.0,0.0
2025/05/20 12:56:22.171232103,1747738582,169189448,mA1/imu,0.9990505994398112,0.043554420934691314,0.00021107241765416942,0.0009314635967266782,0.0,0.0,0.0,0.0,0.0,0.0,0.0,0.0,0.0,0.0023199607704238612,-0.0035588580792691848,0.003444632520539893,0.0,0.0,0.0,0.0,0.0,0.0,0.0,0.0,0.0,-0.00039285944311096216,0.6364565533850217,9.811664940440648,0.0,0.0,0.0,0.0,0.0,0.0,0.0,0.0,0.0
2025/05/20 12:56:22.218998284,1747738582,214286559,mA1/imu,0.9990542922385375,0.04347102265062568,0.00010785189158751944,0.0008830161002329193,0.0,0.0,0.0,0.0,0.0,0.0,0.0,0.0,0.0,0.0028282384967727014,-0.0043374826238190365,0.003264021031853161,0.0,0.0,0.0,0.0,0.0,0.0,0.0,0.0,0.0,-0.0022034965392943237,0.022667448874238275,9.803921034610008,0.0,0.0,0.0,0.0,0.0,0.0,0.0,0.0,0.0
2025/05/20 12:56:22.266857267,1747738582,265105881,mA1/imu,0.9990577998922642,0.043391530616548525,-1.170930130394303e-05,0.0008291007623571306,0.0,0.0,0.0,0.0,0.0,0.0,0.0,0.0,0.0,0.003257034156533205,-0.004883940647772581,0.0031868615596522213,0.0,0.0,0.0,0.0,0.0,0.0,0.0,0.0,0.0,-0.007393563603345024,-0.5860985776864758,9.801882130767497,0.0,0.0,0.0,0.0,0.0,0.0,0.0,0.0,0.0
2025/05/20 12:56:22.317275021,1747738582,316406781,mA1/imu,0.9990615075694416,0.04330708598675437,-0.00013241377687627745,0.0007634546498343,0.0,0.0,0.0,0.0,0.0,0.0,0.0,0.0,0.0,0.0033675101925448566,-0.004427368256671324,0.0036199270021957113,0.0,0.0,0.0,0.0,0.0,0.0,0.0,0.0,0.0,-0.037631598764085346,-0.5923169824943535,9.797015905678954,0.0,0.0,0.0,0.0,0.0,0.0,0.0,0.0,0.0
2025/05/20 12:56:22.368237819,1747738582,366889258,mA1/imu,0.9990658460221501,0.043207594570372286,-0.00023262556409737567,0.0006963970381994221,0.0,0.0,0.0,0.0,0.0,0.0,0.0,0.0,0.0,0.0015555120793080417,-0.0030620236934836838,0.004478761590760186,0.0,0.0,0.0,0.0,0.0,0.0,0.0,0.0,0.0,-0.0946781374011228,0.5434797510308869,9.793391938088256,0.0,0.0,0.0,0.0,0.0,0.0,0.0,0.0,0.0
2025/05/20 12:56:22.420460875,1747738582,419029319,mA1/imu,0.9990716223658623,0.04307456460498448,-0.0002815582667382615,0.0006292791727486527,0.0,0.0,0.0,0.0,0.0,0.0,0.0,0.0,0.0,0.0012983804240238022,-0.0013948320756592327,0.0056078170302313254,0.0,0.0,0.0,0.0,0.0,0.0,0.0,0.0,0.0,-0.027232916756050284,0.5402475702868517,9.789975318960032,0.0,0.0,0.0,0.0,0.0,0.0,0.0,0.0,0.0
2025/05/20 12:56:22.469091446,1747738582,468680440,mA1/imu,0.9990777270455881,0.04293337851661314,-0.0003168774357226239,0.0005656140568431402,0.0,0.0,0.0,0.0,0.0,0.0,0.0,0.0,0.0,0.0021440703854067643,-0.001111215351592649,0.005752190411854793,0.0,0.0,0.0,0.0,0.0,0.0,0.0,0.0,0.0,-0.027549193974852563,0.33452124150893264,9.790462946269988,0.0,0.0,0.0,0.0,0.0,0.0,0.0,0.0,0.0
2025/05/20 12:56:22.522642090,1747738582,520387789,mA1/imu,0.9990843114871667,0.042780382808849236,-0.0003333935346748687,0.000515980322738995,0.0,0.0,0.0,0.0,0.0,0.0,0.0,0.0,0.0,0.0018989633887718897,-0.00022731338936702323,0.006378073034898325,0.0,0.0,0.0,0.0,0.0,0.0,0.0,0.0,0.0,-0.02110464505735473,-0.0031660378627748204,9.787443057434785,0.0,0.0,0.0,0.0,0.0,0.0,0.0,0.0,0.0
2025/05/20 12:56:22.569801312,1747738582,564438613,mA1/imu,0.9990911348421363,0.04262120541624749,-0.0003429179906030687,0.00046854665694398827,0.0,0.0,0.0,0.0,0.0,0.0,0.0,0.0,0.0,0.0008579903581596322,-0.00037113043424237855,0.006344830984587696,0.0,0.0,0.0,0.0,0.0,0.0,0.0,0.0,0.0,0.003367309365724361,0.5883427943495955,9.794739797444368,0.0,0.0,0.0,0.0,0.0,0.0,0.0,0.0,0.0
2025/05/20 12:56:22.614600968,1747738582,613687452,mA1/imu,0.9990979233418775,0.04246192147404149,-0.0003569456717736215,0.00044428421901461604,0.0,0.0,0.0,0.0,0.0,0.0,0.0,0.0,0.0,-0.0005689690547340121,-0.0006127913957948691,0.006393790192588602,0.0,0.0,0.0,0.0,0.0,0.0,0.0,0.0,0.0,0.011686767434058437,0.5250815280461104,9.79584890047146,0.0,0.0,0.0,0.0,0.0,0.0,0.0,0.0,0.0
2025/05/20 12:56:22.668315633,1747738582,666734414,mA1/imu,0.9991047638155766,0.042300657154225256,-0.00037590563616418286,0.0004289758668348516,0.0,0.0,0.0,0.0,0.0,0.0,0.0,0.0,0.0,0.000484845318013998,-0.0007918491837447093,0.00652565288556608,0.0,0.0,0.0,0.0,0.0,0.0,0.0,0.0,0.0,0.008453282551949205,-0.615524280144027,9.797841236806478,0.0,0.0,0.0,0.0,0.0,0.0,0.0,0.0,0.0
2025/05/20 12:56:22.722787434,1747738582,721904364,mA1/imu,0.9991117735974799,0.04213462209955746,-0.0003979671124293992,0.00042320397308471093,0.0,0.0,0.0,0.0,0.0,0.0,0.0,0.0,0.0,0.0012861600807399897,-0.0009374030445903735,0.006730829420601462,0.0,0.0,0.0,0.0,0.0,0.0,0.0,0.0,0.0,0.01018163562678664,-0.5188061101399968,9.80315993060674,0.0,0.0,0.0,0.0,0.0,0.0,0.0,0.0,0.0
2025/05/20 12:56:22.763209878,1747738582,761218674,mA1/imu,0.9991189143919055,0.041964495078029004,-0.00042419179862171084,0.0004428526890176727,0.0,0.0,0.0,0.0,0.0,0.0,0.0,0.0,0.0,-0.0011026368419180261,-0.0011255577443099484,0.006913065569399371,0.0,0.0,0.0,0.0,0.0,0.0,0.0,0.0,0.0,0.008166016570370811,0.6170998116182027,9.809800993338763,0.0,0.0,0.0,0.0,0.0,0.0,0.0,0.0,0.0
2025/05/20 12:56:22.816173718,1747738582,815757134,mA1/imu,0.9991263621104515,0.04178607582826777,-0.00045030971109217183,0.00048334663887023157,0.0,0.0,0.0,0.0,0.0,0.0,0.0,0.0,0.0,-0.0031098419096341075,-0.0011023141335660687,0.007301848469029696,0.0,0.0,0.0,0.0,0.0,0.0,0.0,0.0,0.0,0.010108283752134144,0.4384525190938446,9.815129826294019,0.0,0.0,0.0,0.0,0.0,0.0,0.0,0.0,0.0
2025/05/20 12:56:22.871990691,1747738582,867030144,mA1/imu,0.9991341791190798,0.0415979839874088,-0.0004764186832328726,0.0005223690883062795,0.0,0.0,0.0,0.0,0.0,0.0,0.0,0.0,0.0,-0.0028632508045033913,-0.0011137285327248204,0.007656984818542728,0.0,0.0,0.0,0.0,0.0,0.0,0.0,0.0,0.0,0.013788087137565406,0.12753016125150618,9.819969001056837,0.0,0.0,0.0,0.0,0.0,0.0,0.0,0.0,0.0
2025/05/20 12:56:22.918894551,1747738582,918305892,mA1/imu,0.9991420535722135,0.04140725296502432,-0.0005099725062372561,0.0005797529073439884,0.0,0.0,0.0,0.0,0.0,0.0,0.0,0.0,0.0,-0.0026439620507667646,-0.001626542162859803,0.007620694659202171,0.0,0.0,0.0,0.0,0.0,0.0,0.0,0.0,0.0,0.02827690755704078,0.16939980282495581,9.826225078658204,0.0,0.0,0.0,0.0,0.0,0.0,0.0,0.0,0.0
2025/05/20 12:56:22.974173321,1747738582,970539524,mA1/imu,0.9991497935617072,0.04121843658073957,-0.0005547150827939762,0.0006502327388054334,0.0,0.0,0.0,0.0,0.0,0.0,0.0,0.0,0.0,-0.001673887662318465,-0.002147953797247558,0.007459159040291841,0.0,0.0,0.0,0.0,0.0,0.0,0.0,0.0,0.0,0.036215362815870775,-0.5533264807034632,9.825219525674784,0.0,0.0,0.0,0.0,0.0,0.0,0.0,0.0,0.0
2025/05/20 12:56:23.12949551,1747738583,11612742,mA1/imu,0.9991572039310112,0.041036239884535156,-0.0006102542959127411,0.0007324196863509051,0.0,0.0,0.0,0.0,0.0,0.0,0.0,0.0,0.0,-0.0018443294773290981,-0.0024483858023758116,0.007265550993541334,0.0,0.0,0.0,0.0,0.0,0.0,0.0,0.0,0.0,0.024745949385332332,-0.544879519963821,9.827341366341399,0.0,0.0,0.0,0.0,0.0,0.0,0.0,0.0,0.0
2025/05/20 12:56:23.62531347,1747738583,61689049,mA1/imu,0.9991645289819594,0.0408550189698055,-0.0006682295711708716,0.0008154253344969879,0.0,0.0,0.0,0.0,0.0,0.0,0.0,0.0,0.0,-0.003423878835997975,-0.0024345409885771388,0.007261167582013175,0.0,0.0,0.0,0.0,0.0,0.0,0.0,0.0,0.0,0.02203931088544299,-0.02065231341423688,9.82964975136202,0.0,0.0,0.0,0.0,0.0,0.0,0.0,0.0,0.0
2025/05/20 12:56:23.118263368,1747738583,116467143,mA1/imu,0.999171795038287,0.040674239740962306,-0.000724178011376355,0.0008976567661436104,0.0,0.0,0.0,0.0,0.0,0.0,0.0,0.0,0.0,-0.005027459639093772,-0.0023138077544294093,0.007218238442526403,0.0,0.0,0.0,0.0,0.0,0.0,0.0,0.0,0.0,0.02467050764442595,0.4908057916034196,9.829577498408714,0.0,0.0,0.0,0.0,0.0,0.0,0.0,0.0,0.0
2025/05/20 12:56:23.166936118,1747738583,166554200,mA1/imu,0.9991789947701089,0.04049443734016879,-0.0007758424665167055,0.0009669659586878165,0.0,0.0,0.0,0.0,0.0,0.0,0.0,0.0,0.0,-0.0032756256635809496,-0.0020615077498611625,0.0071793466659447296,0.0,0.0,0.0,0.0,0.0,0.0,0.0,0.0,0.0,0.023643253301932343,-0.02875637953117723,9.828724133960634,0.0,0.0,0.0,0.0,0.0,0.0,0.0,0.0,0.0
2025/05/20 12:56:23.219296786,1747738583,217536631,mA1/imu,0.9991861352946049,0.04031549271616078,-0.0008196224283065735,0.0010277651286546997,0.0,0.0,0.0,0.0,0.0,0.0,0.0,0.0,0.0,-0.0018001132115056519,-0.0016883424845470585,0.007153238170296327,0.0,0.0,0.0,0.0,0.0,0.0,0.0,0.0,0.0,0.022585951675503018,0.04473305994946185,9.824672322721923,0.0,0.0,0.0,0.0,0.0,0.0,0.0,0.0,0.0
2025/05/20 12:56:23.271573005,1747738583,267619458,mA1/imu,0.9991931713329373,0.04013840549417966,-0.0008532421411044029,0.0010893777402189182,0.0,0.0,0.0,0.0,0.0,0.0,0.0,0.0,0.0,-0.0028774567028966645,-0.0013188475851567075,0.006978711251331942,0.0,0.0,0.0,0.0,0.0,0.0,0.0,0.0,0.0,0.03139741292263702,0.5635489166471466,9.82281826524697,0.0,0.0,0.0,0.0,0.0,0.0,0.0,0.0,0.0
2025/05/20 12:56:23.315007942,1747738583,312443600,mA1/imu,0.9991999396274348,0.039967680072326275,-0.0008793770827260571,0.0011366152000556917,0.0,0.0,0.0,0.0,0.0,0.0,0.0,0.0,0.0,-0.002183173312126066,-0.0009091412075151662,0.006804922208353575,0.0,0.0,0.0,0.0,0.0,0.0,0.0,0.0,0.0,0.022247982346894922,-0.052790577551611616,9.814907376035995,0.0,0.0,0.0,0.0,0.0,0.0,0.0,0.0,0.0
2025/05/20 12:56:23.362607590,1747738583,361702672,mA1/imu,0.9992066651993136,0.03979824247708114,-0.0008917105902281212,0.0011597280825685775,0.0,0.0,0.0,0.0,0.0,0.0,0.0,0.0,0.0,4.712181459913513e-05,-0.00029155470849576,0.0067647195746050465,0.0,0.0,0.0,0.0,0.0,0.0,0.0,0.0,0.0,0.021440238230657636,-0.575563647288067,9.810079662906425,0.0,0.0,0.0,0.0,0.0,0.0,0.0,0.0,0.0
2025/05/20 12:56:23.414639755,1747738583,414151895,mA1/imu,0.9992135390447584,0.03962529817960347,-0.0008843295938688167,0.0011649442029663332,0.0,0.0,0.0,0.0,0.0,0.0,0.0,0.0,0.0,0.0006290421059382985,0.0005583600645436152,0.006986412819673494,0.0,0.0,0.0,0.0,0.0,0.0,0.0,0.0,0.0,0.021726763892841765,0.05197209458590249,9.805833273538784,0.0,0.0,0.0,0.0,0.0,0.0,0.0,0.0,0.0
2025/05/20 12:56:23.468075213,1747738583,467399695,mA1/imu,0.9992204879285674,0.03945027614528261,-0.0008619116292814562,0.0011616041494277166,0.0,0.0,0.0,0.0,0.0,0.0,0.0,0.0,0.0,-0.00032599510970795153,0.0011015214473708262,0.007025105855563861,0.0,0.0,0.0,0.0,0.0,0.0,0.0,0.0,0.0,0.02493722366563218,0.5713697067810518,9.802652903246988,0.0,0.0,0.0,0.0,0.0,0.0,0.0,0.0,0.0
2025/05/20 12:56:23.520503148,1747738583,518615481,mA1/imu,0.9992274988957688,0.03927360428660146,-0.0008292904959965128,0.0011409356331699677,0.0,0.0,0.0,0.0,0.0,0.0,0.0,0.0,0.0,0.0004410919215506509,0.00147541091968636,0.007106561586487994,0.0,0.0,0.0,0.0,0.0,0.0,0.0,0.0,0.0,0.026713409094865477,-0.051351774480656184,9.796433011790764,0.0,0.0,0.0,0.0,0.0,0.0,0.0,0.0,0.0
2025/05/20 12:56:23.569129681,1747738583,568899908,mA1/imu,0.9992345210936237,0.03909658328615333,-0.0007899551125318902,0.0010977254053659113,0.0,0.0,0.0,0.0,0.0,0.0,0.0,0.0,0.0,0.0025570071115539423,0.001641945779691767,0.006985157810442479,0.0,0.0,0.0,0.0,0.0,0.0,0.0,0.0,0.0,0.03605944761940544,-0.5769787801405789,9.792022555264936,0.0,0.0,0.0,0.0,0.0,0.0,0.0,0.0,0.0
2025/05/20 12:56:23.613841670,1747738583,612442776,mA1/imu,0.999241290761197,0.03892550805442748,-0.0007487025501861598,0.001042643320115098,0.0,0.0,0.0,0.0,0.0,0.0,0.0,0.0,0.0,0.002912221418652383,0.001829904329250016,0.006839828956064791,0.0,0.0,0.0,0.0,0.0,0.0,0.0,0.0,0.0,0.022700114028254406,0.04873122491292963,9.791540930576506,0.0,0.0,0.0,0.0,0.0,0.0,0.0,0.0,0.0
2025/05/20 12:56:23.665745067,1747738583,664988601,mA1/imu,0.9992479862591714,0.03875563344189592,-0.0007026079211463706,0.0009844671742910208,0.0,0.0,0.0,0.0,0.0,0.0,0.0,0.0,0.0,0.0017271432365636565,0.0019185957244766934,0.0066914659552647915,0.0,0.0,0.0,0.0,0.0,0.0,0.0,0.0,0.0,0.03441385560472745,0.5667143702490111,9.792408560904004,0.0,0.0,0.0,0.0,0.0,0.0,0.0,0.0,0.0
2025/05/20 12:56:23.716599752,1747738583,716168211,mA1/imu,0.9992544209104245,0.0385918313147997,-0.0006592438680345727,0.0009155568058566388,0.0,0.0,0.0,0.0,0.0,0.0,0.0,0.0,0.0,0.002179779817294419,0.0018586488644688724,0.006543793922943082,0.0,0.0,0.0,0.0,0.0,0.0,0.0,0.0,0.0,0.023307278692183152,-0.047376881664601786,9.7908210225347,0.0,0.0,0.0,0.0,0.0,0.0,0.0,0.0,0.0
2025/05/20 12:56:23.767792973,1747738583,767092361,mA1/imu,0.9992608134747296,0.03842848716847311,-0.0006156650933133052,0.0008360527834808364,0.0,0.0,0.0,0.0,0.0,0.0,0.0,0.0,0.0,0.0033803844088055052,0.0018089961321960009,0.006519184327741911,0.0,0.0,0.0,0.0,0.0,0.0,0.0,0.0,0.0,0.02757178639536875,0.023501113230954027,9.79237588852749,0.0,0.0,0.0,0.0,0.0,0.0,0.0,0.0,0.0
2025/05/20 12:56:23.819704612,1747738583,818508918,mA1/imu,0.9992671243167812,0.038266266346769,-0.0005752751662986767,0.0007590639180615682,0.0,0.0,0.0,0.0,0.0,0.0,0.0,0.0,0.0,0.002575785457411681,0.001676057944148299,0.006491370590330959,0.0,0.0,0.0,0.0,0.0,0.0,0.0,0.0,0.0,0.02362444193889169,0.34385995051754553,9.797127143642808,0.0,0.0,0.0,0.0,0.0,0.0,0.0,0.0,0.0
2025/05/20 12:56:23.868876704,1747738583,868412427,mA1/imu,0.999273351054368,0.03810522693319761,-0.0005393737168992655,0.0006860240060736006,0.0,0.0,0.0,0.0,0.0,0.0,0.0,0.0,0.0,0.002181596820518683,0.0013841764029823692,0.006339051471319331,0.0,0.0,0.0,0.0,0.0,0.0,0.0,0.0,0.0,0.03381002783087973,-0.05399205129170873,9.800303009342086,0.0,0.0,0.0,0.0,0.0,0.0,0.0,0.0,0.0
2025/05/20 12:56:23.919707986,1747738583,919399376,mA1/imu,0.9992793104834665,0.03795031813431727,-0.0005147001203787161,0.0006066934795342963,0.0,0.0,0.0,0.0,0.0,0.0,0.0,0.0,0.0,0.003973642638874795,0.0009956413171431397,0.006180112306723688,0.0,0.0,0.0,0.0,0.0,0.0,0.0,0.0,0.0,0.022662622157611476,-0.5426884231184452,9.803163127877099,0.0,0.0,0.0,0.0,0.0,0.0,0.0,0.0,0.0
2025/05/20 12:56:23.969908303,1747738583,969192477,mA1/imu,0.9992851569775985,0.037797202843526834,-0.0004969222027429298,0.0005473296868372581,0.0,0.0,0.0,0.0,0.0,0.0,0.0,0.0,0.0,0.0014488326902651447,0.0006041939078841343,0.006022534267637354,0.0,0.0,0.0,0.0,0.0,0.0,0.0,0.0,0.0,0.03224612383491329,0.3721384688771454,9.80751431750073,0.0,0.0,0.0,0.0,0.0,0.0,0.0,0.0,0.0
2025/05/20 12:56:24.21604474,1747738584,21090895,mA1/imu,0.9992907280813275,0.03765045372290775,-0.0004908759972010932,0.0004930982710291563,0.0,0.0,0.0,0.0,0.0,0.0,0.0,0.0,0.0,0.0007877763509763629,0.00020597831640307938,0.005845913925560174,0.0,0.0,0.0,0.0,0.0,0.0,0.0,0.0,0.0,0.022328446699586117,0.49664113739427856,9.81531059703262,0.0,0.0,0.0,0.0,0.0,0.0,0.0,0.0,0.0
2025/05/20 12:56:24.62255049,1747738584,61133992,mA1/imu,0.9992962245748024,0.03750487451230242,-0.0004914060716034831,0.00044548673986817664,0.0,0.0,0.0,0.0,0.0,0.0,0.0,0.0,0.0,0.0027100637016322384,-6.802351005248832e-05,0.005812422623326026,0.0,0.0,0.0,0.0,0.0,0.0,0.0,0.0,0.0,0.02213662103434284,-0.538038297369015,9.816692326636193,0.0,0.0,0.0,0.0,0.0,0.0,0.0,0.0,0.0
2025/05/20 12:56:24.113637145,1747738584,113031823,mA1/imu,0.9993016504477991,0.037360252827232224,-0.0004975535617625676,0.00041876179747628946,0.0,0.0,0.0,0.0,0.0,0.0,0.0,0.0,0.0,0.0006957203046412284,-0.0003058741449042712,0.005772356182476705,0.0,0.0,0.0,0.0,0.0,0.0,0.0,0.0,0.0,0.021671772336737623,0.35695633371503505,9.823875674825954,0.0,0.0,0.0,0.0,0.0,0.0,0.0,0.0,0.0
2025/05/20 12:56:24.164402447,1747738584,163180050,mA1/imu,0.9993070006519558,0.03721683632469093,-0.0005093172597992043,0.00040760017389753866,0.0,0.0,0.0,0.0,0.0,0.0,0.0,0.0,0.0,0.00031060564320101284,-0.0005733004906595979,0.005705915431583154,0.0,0.0,0.0,0.0,0.0,0.0,0.0,0.0,0.0,0.024699944367414906,0.007290873796781702,9.82673495043408,0.0,0.0,0.0,0.0,0.0,0.0,0.0,0.0,0.0
2025/05/20 12:56:24.215021128,1747738584,214113714,mA1/imu,0.9993122430329042,0.037075520924585464,-0.0005275529297802354,0.00041031770959166114,0.0,0.0,0.0,0.0,0.0,0.0,0.0,0.0,0.0,-0.00033381346949206726,-0.0008106697068472423,0.005638392190712064,0.0,0.0,0.0,0.0,0.0,0.0,0.0,0.0,0.0,0.021045832063925837,0.0039005257260541736,9.82732538374835,0.0,0.0,0.0,0.0,0.0,0.0,0.0,0.0,0.0
2025/05/20 12:56:24.267686622,1747738584,266276994,mA1/imu,0.9993173836556418,0.03693620318452031,-0.0005498104255263412,0.00042582443655255094,0.0,0.0,0.0,0.0,0.0,0.0,0.0,0.0,0.0,-0.0014356729323896807,-0.0010122249925320292,0.005466262366959785,0.0,0.0,0.0,0.0,0.0,0.0,0.0,0.0,0.0,0.027728367720237634,0.31198847379633887,9.827310383069774,0.0,0.0,0.0,0.0,0.0,0.0,0.0,0.0,0.0
2025/05/20 12:56:24.319344185,1747738584,318692448,mA1/imu,0.9993222506545185,0.03680344034843252,-0.0005768533373664669,0.0004619150726879292,0.0,0.0,0.0,0.0,0.0,0.0,0.0,0.0,0.0,-0.002318473620004678,-0.0011488053424604672,0.005284088098915854,0.0,0.0,0.0,0.0,0.0,0.0,0.0,0.0,0.0,0.019585682855797565,-0.06839499595411022,9.829477977885029,0.0,0.0,0.0,0.0,0.0,0.0,0.0,0.0,0.0
2025/05/20 12:56:24.368580305,1747738584,368415706,mA1/imu,0.9993270084815599,0.036673140574538285,-0.000604374913938187,0.0004955912224964993,0.0,0.0,0.0,0.0,0.0,0.0,0.0,0.0,0.0,-0.0017204100922525334,-0.0012277053641925378,0.005070377801129938,0.0,0.0,0.0,0.0,0.0,0.0,0.0,0.0,0.0,0.034939793146106894,0.001797492261677993,9.831000960321974,0.0,0.0,0.0,0.0,0.0,0.0,0.0,0.0,0.0
2025/05/20 12:56:24.424020142,1747738584,422374267,mA1/imu,0.9993313214604328,0.036554049596813375,-0.0006364254862748697,0.0005535059342964421,0.0,0.0,0.0,0.0,0.0,0.0,0.0,0.0,0.0,-0.002376326723187909,-0.0014099101734739218,0.004556625206009246,0.0,0.0,0.0,0.0,0.0,0.0,0.0,0.0,0.0,0.022609242999706156,0.6320025907522268,9.8251784003826,0.0,0.0,0.0,0.0,0.0,0.0,0.0,0.0,0.0
2025/05/20 12:56:24.470988029,1747738584,470235967,mA1/imu,0.9993353218801474,0.03644283739490049,-0.0006620511282464295,0.0006290736162315546,0.0,0.0,0.0,0.0,0.0,0.0,0.0,0.0,0.0,-0.0025284703339920256,-0.0009534466704895281,0.004384185352024378,0.0,0.0,0.0,0.0,0.0,0.0,0.0,0.0,0.0,0.016852756306692952,0.013331711244154424,9.818564363862729,0.0,0.0,0.0,0.0,0.0,0.0,0.0,0.0,0.0
2025/05/20 12:56:24.511521842,1747738584,511223805,mA1/imu,0.9993390285529058,0.03633922794652279,-0.000678432605719417,0.0007115141494637833,0.0,0.0,0.0,0.0,0.0,0.0,0.0,0.0,0.0,-0.0025260842502617706,-0.0006531648739392101,0.003996117056869974,0.0,0.0,0.0,0.0,0.0,0.0,0.0,0.0,0.0,0.018404745702541383,-0.6023766229059226,9.815225317465368,0.0,0.0,0.0,0.0,0.0,0.0,0.0,0.0,0.0
2025/05/20 12:56:24.561420448,1747738584,560994105,mA1/imu,0.9993425304277568,0.03624117896503279,-0.000677927893694734,0.0007900881237834562,0.0,0.0,0.0,0.0,0.0,0.0,0.0,0.0,0.0,-0.002660777705568865,0.00032677879974056165,0.00392907679497664,0.0,0.0,0.0,0.0,0.0,0.0,0.0,0.0,0.0,-0.0019012769486242576,-0.5907351732717564,9.81167819234949,0.0,0.0,0.0,0.0,0.0,0.0,0.0,0.0,0.0
2025/05/20 12:56:24.614079748,1747738584,613589099,mA1/imu,0.9993457351037047,0.03615124269144494,-0.000660596786782506,0.0008677521452054448,0.0,0.0,0.0,0.0,0.0,0.0,0.0,0.0,0.0,-0.004371426961670042,0.0007281038507662361,0.0033731054315706364,0.0,0.0,0.0,0.0,0.0,0.0,0.0,0.0,0.0,0.015963067861035435,0.5325562162402615,9.803881216836063,0.0,0.0,0.0,0.0,0.0,0.0,0.0,0.0,0.0
2025/05/20 12:56:24.665488299,1747738584,665250777,mA1/imu,0.9993485361170216,0.03607250232248949,-0.0006294712796681645,0.0009389903450662763,0.0,0.0,0.0,0.0,0.0,0.0,0.0,0.0,0.0,-0.0041377570437071435,0.0014151804373938538,0.0029415620372704216,0.0,0.0,0.0,0.0,0.0,0.0,0.0,0.0,0.0,0.013444367938056511,0.533317982793887,9.802225690500018,0.0,0.0,0.0,0.0,0.0,0.0,0.0,0.0,0.0
2025/05/20 12:56:24.716968815,1747738584,716346760,mA1/imu,0.9993506505673239,0.03601280693400251,-0.0005941447176204794,0.0010009692580062665,0.0,0.0,0.0,0.0,0.0,0.0,0.0,0.0,0.0,-0.0021490776462849592,0.0011942576585618184,0.0019454172324736931,0.0,0.0,0.0,0.0,0.0,0.0,0.0,0.0,0.0,0.04064266575759089,0.011939599623106652,9.802238172698047,0.0,0.0,0.0,0.0,0.0,0.0,0.0,0.0,0.0
2025/05/20 12:56:24.767370371,1747738584,767074325,mA1/imu,0.9993520417471787,0.03597340104415684,-0.0005551877868777203,0.0010501616936363712,0.0,0.0,0.0,0.0,0.0,0.0,0.0,0.0,0.0,9.508546514485463e-05,0.0018563413699932301,0.0014920476481052756,0.0,0.0,0.0,0.0,0.0,0.0,0.0,0.0,0.0,-0.009002987368267648,-0.4904711764871328,9.794799000596683,0.0,0.0,0.0,0.0,0.0,0.0,0.0,0.0,0.0
2025/05/20 12:56:24.821345855,1747738584,818376268,mA1/imu,0.999353309174076,0.03593788946469186,-0.0004930465616700285,0.001090159958567827,0.0,0.0,0.0,0.0,0.0,0.0,0.0,0.0,0.0,-0.0006848251842923183,0.0027017231661315396,0.0013541564053870248,0.0,0.0,0.0,0.0,0.0,0.0,0.0,0.0,0.0,-0.0027305934290521427,0.03752308464889041,9.790956188144783,0.0,0.0,0.0,0.0,0.0,0.0,0.0,0.0,0.0
2025/05/20 12:56:24.868405131,1747738584,868093782,mA1/imu,0.9993544253224695,0.035907176789493345,-0.00041623473881947085,0.001110851946273949,0.0,0.0,0.0,0.0,0.0,0.0,0.0,0.0,0.0,-0.0014064140703701205,0.003216073695998606,0.0011384331306146928,0.0,0.0,0.0,0.0,0.0,0.0,0.0,0.0,0.0,0.000998103441012376,-0.06306904080366349,9.790199188916457,0.0,0.0,0.0,0.0,0.0,0.0,0.0,0.0,0.0
2025/05/20 12:56:24.921043528,1747738584,919018714,mA1/imu,0.9993553455780483,0.03588268944928931,-0.0003320826912835904,0.0011025350569578195,0.0,0.0,0.0,0.0,0.0,0.0,0.0,0.0,0.0,-0.0006317916620040486,0.0034597669893631595,0.0008772057608136903,0.0,0.0,0.0,0.0,0.0,0.0,0.0,0.0,0.0,0.002969501201830732,-0.07181717383021682,9.792352512355158,0.0,0.0,0.0,0.0,0.0,0.0,0.0,0.0,0.0
2025/05/20 12:56:24.969420685,1747738584,969124011,mA1/imu,0.9993560785625449,0.03586409262593262,-0.0002453248518225816,0.0010653243299858562,0.0,0.0,0.0,0.0,0.0,0.0,0.0,0.0,0.0,0.0015703554236437976,0.0035405229273811163,0.0006538484265311877,0.0,0.0,0.0,0.0,0.0,0.0,0.0,0.0,0.0,0.002801018528706473,0.02704037413611714,9.794412117330944,0.0,0.0,0.0,0.0,0.0,0.0,0.0,0.0,0.0
2025/05/20 12:56:25.22360526,1747738585,20217610,mA1/imu,0.9993566130203331,0.03585111467301792,-0.00016045976733130354,0.0010157961868960531,0.0,0.0,0.0,0.0,0.0,0.0,0.0,0.0,0.0,0.002247701614382985,0.0034116855684727743,0.00044999455770731284,0.0,0.0,0.0,0.0,0.0,0.0,0.0,0.0,0.0,0.00048403013725930796,0.6498062112857473,9.79723844017234,0.0,0.0,0.0,0.0,0.0,0.0,0.0,0.0,0.0
2025/05/20 12:56:25.61926348,1747738585,61150081,mA1/imu,0.9993569832306876,0.03584276250338581,-8.133229857757403e-05,0.0009538496957650807,0.0,0.0,0.0,0.0,0.0,0.0,0.0,0.0,0.0,0.0019949490252356714,0.0031014107683899938,0.0002475334775970941,0.0,0.0,0.0,0.0,0.0,0.0,0.0,0.0,0.0,0.004401834173123013,0.5880382665759457,9.799202233598667,0.0,0.0,0.0,0.0,0.0,0.0,0.0,0.0,0.0
2025/05/20 12:56:25.115639296,1747738585,114423464,mA1/imu,0.9993571736218918,0.03583962820686253,-1.4478393495209899e-05,0.0008719924509234471,0.0,0.0,0.0,0.0,0.0,0.0,0.0,0.0,0.0,0.0048550865992495,0.0025806939690498393,5.857889982623896e-05,0.0,0.0,0.0,0.0,0.0,0.0,0.0,0.0,0.0,0.001864135432761562,-0.5127193008849525,9.803978355380053,0.0,0.0,0.0,0.0,0.0,0.0,0.0,0.0,0.0
2025/05/20 12:56:25.167267412,1747738585,166504737,mA1/imu,0.999357216380477,0.03584036646797058,3.838191662638778e-05,0.0007878620022566272,0.0,0.0,0.0,0.0,0.0,0.0,0.0,0.0,0.0,0.003831239013454848,0.0019984716786007888,-6.089429850682711e-05,0.0,0.0,0.0,0.0,0.0,0.0,0.0,0.0,0.0,-0.0018424558003813465,0.01859822527703863,9.807371008734105,0.0,0.0,0.0,0.0,0.0,0.0,0.0,0.0,0.0
2025/05/20 12:56:25.218213367,1747738585,217457533,mA1/imu,0.9993571683664719,0.035843630611584736,7.461290071657489e-05,0.0006918179257715108,0.0,0.0,0.0,0.0,0.0,0.0,0.0,0.0,0.0,0.003437696424758451,0.0012338620669492006,-0.00020982611091662003,0.0,0.0,0.0,0.0,0.0,0.0,0.0,0.0,0.0,0.00824358756716742,-0.022749088122351442,9.81248832751801,0.0,0.0,0.0,0.0,0.0,0.0,0.0,0.0,0.0
2025/05/20 12:56:25.273939292,1747738585,269485403,mA1/imu,0.9993569394581263,0.03585173442331825,8.854836735381369e-05,0.0005940159201516946,0.0,0.0,0.0,0.0,0.0,0.0,0.0,0.0,0.0,0.002004101124205061,0.0003499538210489789,-0.00040339132461148647,0.0,0.0,0.0,0.0,0.0,0.0,0.0,0.0,0.0,0.006805195594374936,0.5075426815329587,9.817405384399331,0.0,0.0,0.0,0.0,0.0,0.0,0.0,0.0,0.0
2025/05/20 12:56:25.312838318,1747738585,311931761,mA1/imu,0.9993565317444651,0.03586467528037611,7.903094448354658e-05,0.0004912034374224038,0.0,0.0,0.0,0.0,0.0,0.0,0.0,0.0,0.0,0.003334100731957578,-0.0005675657744211906,-0.000578598911942511,0.0,0.0,0.0,0.0,0.0,0.0,0.0,0.0,0.0,0.003876902027293595,-0.024566000973110465,9.82331269120906,0.0,0.0,0.0,0.0,0.0,0.0,0.0,0.0,0.0
2025/05/20 12:56:25.364848781,1747738585,364465632,mA1/imu,0.9993559397680847,0.035882395852560714,4.782870021573208e-05,0.00039627079598245784,0.0,0.0,0.0,0.0,0.0,0.0,0.0,0.0,0.0,0.004436865920549271,-0.0015641823793646637,-0.0008910239846061098,0.0,0.0,0.0,0.0,0.0,0.0,0.0,0.0,0.0,0.01899574198522651,0.056758543570069986,9.8279960121459,0.0,0.0,0.0,0.0,0.0,0.0,0.0,0.0,0.0
2025/05/20 12:56:25.423358487,1747738585,418055909,mA1/imu,0.9993549470516576,0.03591078871096108,-6.846099005983997e-06,0.00032405349249495853,0.0,0.0,0.0,0.0,0.0,0.0,0.0,0.0,0.0,0.0038947406658413233,-0.002376309542050562,-0.001233029424862881,0.0,0.0,0.0,0.0,0.0,0.0,0.0,0.0,0.0,0.0009116800386332771,0.07919044107278365,9.827092479428707,0.0,0.0,0.0,0.0,0.0,0.0,0.0,0.0,0.0
2025/05/20 12:56:25.469279467,1747738585,468976400,mA1/imu,0.9993538071556243,0.03594285837469571,-7.349814046473622e-05,0.00027139167117691104,0.0,0.0,0.0,0.0,0.0,0.0,0.0,0.0,0.0,0.001058580677606448,-0.002681617558626464,-0.0012970666433482884,0.0,0.0,0.0,0.0,0.0,0.0,0.0,0.0,0.0,-0.004190828776057717,0.5587468598189984,9.82808849936133,0.0,0.0,0.0,0.0,0.0,0.0,0.0,0.0,0.0
2025/05/20 12:56:25.521971860,1747738585,519977008,mA1/imu,0.9993526030812729,0.03597638369673449,-0.00014483645952851785,0.00023141562028315438,0.0,0.0,0.0,0.0,0.0,0.0,0.0,0.0,0.0,0.0014972620175679391,-0.002821630026110308,-0.001374871257641729,0.0,0.0,0.0,0.0,0.0,0.0,0.0,0.0,0.0,-0.0054838686218271395,-0.27032938332175266,9.828832447995424,0.0,0.0,0.0,0.0,0.0,0.0,0.0,0.0,0.0
2025/05/20 12:56:25.572119059,1747738585,570863382,mA1/imu,0.9993513123756252,0.036012014056346756,-0.00021503818115181363,0.0002074977146835935,0.0,0.0,0.0,0.0,0.0,0.0,0.0,0.0,0.0,0.0010406362895790313,-0.002701252618725043,-0.0014595975161699154,0.0,0.0,0.0,0.0,0.0,0.0,0.0,0.0,0.0,-0.009290031984063092,0.037701692936424565,9.827430691121162,0.0,0.0,0.0,0.0,0.0,0.0,0.0,0.0,0.0
2025/05/20 12:56:25.618447924,1747738585,617472253,mA1/imu,0.9993499301172356,0.0360499164907913,-0.00027702408573493424,0.00020965051635662762,0.0,0.0,0.0,0.0,0.0,0.0,0.0,0.0,0.0,-0.0009450444096024404,-0.0023131713525966504,-0.0015595687178503056,0.0,0.0,0.0,0.0,0.0,0.0,0.0,0.0,0.0,-0.013528883689530159,0.5933134128102602,9.82475226421998,0.0,0.0,0.0,0.0,0.0,0.0,0.0,0.0,0.0
2025/05/20 12:56:25.667374943,1747738585,667132868,mA1/imu,0.9993484558239909,0.0360902114582367,-0.0003241502443379334,0.00023538420427297876,0.0,0.0,0.0,0.0,0.0,0.0,0.0,0.0,0.0,-0.0016300634129653199,-0.001646134332021932,-0.0016753618623430815,0.0,0.0,0.0,0.0,0.0,0.0,0.0,0.0,0.0,-0.014764918841966573,-0.02268889916178857,9.821021461689273,0.0,0.0,0.0,0.0,0.0,0.0,0.0,0.0,0.0
2025/05/20 12:56:25.718598507,1747738585,718101906,mA1/imu,0.9993467982748707,0.036135530270444395,-0.00035439112369075633,0.0002731973095302679,0.0,0.0,0.0,0.0,0.0,0.0,0.0,0.0,0.0,-0.0028680245847200617,-0.0009725960400955711,-0.0019075159288760883,0.0,0.0,0.0,0.0,0.0,0.0,0.0,0.0,0.0,-0.01577282069867783,0.569337372210653,9.815487853171254,0.0,0.0,0.0,0.0,0.0,0.0,0.0,0.0,0.0
2025/05/20 12:56:25.769715237,1747738585,769048219,mA1/imu,0.9993449628455261,0.03618572119444092,-0.0003636833653453075,0.0003264220001211013,0.0,0.0,0.0,0.0,0.0,0.0,0.0,0.0,0.0,-0.0027023900356678396,-0.00011824693630175163,-0.0021073776856228065,0.0,0.0,0.0,0.0,0.0,0.0,0.0,0.0,0.0,-0.013889367452335858,-0.00039760810567261197,9.812821837561728,0.0,0.0,0.0,0.0,0.0,0.0,0.0,0.0,0.0
2025/05/20 12:56:25.820917489,1747738585,819993619,mA1/imu,0.9993428582033798,0.03624322532092217,-0.00035354575011557033,0.00039418477757870656,0.0,0.0,0.0,0.0,0.0,0.0,0.0,0.0,0.0,-0.002566376317999177,0.0005969737500543871,-0.0024351307057936915,0.0,0.0,0.0,0.0,0.0,0.0,0.0,0.0,0.0,-0.013506685566130234,0.04246571344200777,9.80843194804687,0.0,0.0,0.0,0.0,0.0,0.0,0.0,0.0,0.0
2025/05/20 12:56:25.871445860,1747738585,869834128,mA1/imu,0.9993404160667776,0.03630982220197303,-0.0003255311993486567,0.00047292343915097165,0.0,0.0,0.0,0.0,0.0,0.0,0.0,0.0,0.0,-0.001828949484749909,0.001239832529318515,-0.0028298429212638174,0.0,0.0,0.0,0.0,0.0,0.0,0.0,0.0,0.0,-0.01170448748861051,-0.3418587507109756,9.802992185804122,0.0,0.0,0.0,0.0,0.0,0.0,0.0,0.0,0.0
2025/05/20 12:56:25.922783177,1747738585,920767407,mA1/imu,0.999337573530876,0.03638703516518,-0.00028201603464997067,0.0005641526964065662,0.0,0.0,0.0,0.0,0.0,0.0,0.0,0.0,0.0,-0.0021306533016703212,0.0018210137411714844,-0.0032639153464123845,0.0,0.0,0.0,0.0,0.0,0.0,0.0,0.0,0.0,-0.014130897801605164,-0.36536432109537625,9.796149138502672,0.0,0.0,0.0,0.0,0.0,0.0,0.0,0.0,0.0
2025/05/20 12:56:25.961440871,1747738585,960851542,mA1/imu,0.9993343889497236,0.03647306797294928,-0.00022141312649315937,0.0006673464996816473,0.0,0.0,0.0,0.0,0.0,0.0,0.0,0.0,0.0,-0.003625413967891404,0.002561405412987002,-0.0035325036646565,0.0,0.0,0.0,0.0,0.0,0.0,0.0,0.0,0.0,-0.0219147565942108,-0.60803230558085,9.795301609540282,0.0,0.0,0.0,0.0,0.0,0.0,0.0,0.0,0.0
2025/05/20 12:56:26.12129649,1747738586,11738124,mA1/imu,0.9993308862393695,0.03656754293826541,-0.00014745758627998244,0.0007568802775086344,0.0,0.0,0.0,0.0,0.0,0.0,0.0,0.0,0.0,-0.004215575634709896,0.0030235759408074924,-0.003907387150907157,0.0,0.0,0.0,0.0,0.0,0.0,0.0,0.0,0.0,-0.020747714776503487,-0.4543932020540403,9.793407281997101,0.0,0.0,0.0,0.0,0.0,0.0,0.0,0.0,0.0
2025/05/20 12:56:26.62348974,1747738586,61734145,mA1/imu,0.9993271148062914,0.03666897855608418,-6.228380476177434e-05,0.000836507808863964,0.0,0.0,0.0,0.0,0.0,0.0,0.0,0.0,0.0,-0.0025671322169961144,0.0034432446443124006,-0.004154049224615359,0.0,0.0,0.0,0.0,0.0,0.0,0.0,0.0,0.0,-0.020933264416727597,-0.5534394277443865,9.789584590755213,0.0,0.0,0.0,0.0,0.0,0.0,0.0,0.0,0.0
2025/05/20 12:56:26.115395143,1747738586,114019047,mA1/imu,0.9993234946399199,0.036765714248738667,4.829233901506712e-05,0.0009126797294076153,0.0,0.0,0.0,0.0,0.0,0.0,0.0,0.0,0.0,-0.0028235582489070975,0.004508332964099175,-0.003862752341801658,0.0,0.0,0.0,0.0,0.0,0.0,0.0,0.0,0.0,-0.01715881701470891,-0.36488328495443934,9.790531558423984,0.0,0.0,0.0,0.0,0.0,0.0,0.0,0.0,0.0
2025/05/20 12:56:26.163984860,1747738586,163647700,mA1/imu,0.999319852361177,0.03686258876929331,0.0001669807115730277,0.000976905063535852,0.0,0.0,0.0,0.0,0.0,0.0,0.0,0.0,0.0,-0.002028259074164927,0.005066321617022771,-0.0036717371156168147,0.0,0.0,0.0,0.0,0.0,0.0,0.0,0.0,0.0,-0.06904390085662855,-0.06304725585776288,9.795029642343382,0.0,0.0,0.0,0.0,0.0,0.0,0.0,0.0,0.0
2025/05/20 12:56:26.216050544,1747738586,214601282,mA1/imu,0.9993166032149079,0.03694822984062879,0.0003030799520987481,0.0010310156182181671,0.0,0.0,0.0,0.0,0.0,0.0,0.0,0.0,0.0,-0.0013239153779760812,0.005190109251153342,-0.003465039087642575,0.0,0.0,0.0,0.0,0.0,0.0,0.0,0.0,0.0,-0.012290870425711597,-0.5766249128089653,9.794736740428531,0.0,0.0,0.0,0.0,0.0,0.0,0.0,0.0,0.0
2025/05/20 12:56:26.266767620,1747738586,265907478,mA1/imu,0.9993132244320094,0.03703755108017667,0.00042187076305755277,0.0010589194223908948,0.0,0.0,0.0,0.0,0.0,0.0,0.0,0.0,0.0,-0.00042738164847899387,0.004381490262434906,-0.0035883312737110006,0.0,0.0,0.0,0.0,0.0,0.0,0.0,0.0,0.0,-0.01793918032796093,0.07101941613349404,9.797641351316598,0.0,0.0,0.0,0.0,0.0,0.0,0.0,0.0,0.0
2025/05/20 12:56:26.317722242,1747738586,316385007,mA1/imu,0.9993100208650944,0.037122012532255,0.0005248927537654747,0.0010783653168512462,0.0,0.0,0.0,0.0,0.0,0.0,0.0,0.0,0.0,-0.0013327416719101765,0.004044068118151747,-0.003106858993271951,0.0,0.0,0.0,0.0,0.0,0.0,0.0,0.0,0.0,-0.04627022479293293,0.5807034539936573,9.807543444273838,0.0,0.0,0.0,0.0,0.0,0.0,0.0,0.0,0.0
2025/05/20 12:56:26.366882369,1747738586,366247909,mA1/imu,0.9993071996993792,0.03719665169248166,0.0006111770933934287,0.001075264811031772,0.0,0.0,0.0,0.0,0.0,0.0,0.0,0.0,0.0,3.1997842724093185e-05,0.0031279809209297303,-0.002834831545198269,0.0,0.0,0.0,0.0,0.0,0.0,0.0,0.0,0.0,-0.041925496276803725,-0.14395524567422655,9.810290402829413,0.0,0.0,0.0,0.0,0.0,0.0,0.0,0.0,0.0
2025/05/20 12:56:26.417689006,1747738586,417310666,mA1/imu,0.9993047813870243,0.03726150960565128,0.0006703165851358873,0.0010413811095723886,0.0,0.0,0.0,0.0,0.0,0.0,0.0,0.0,0.0,0.002164616719144348,0.0017339132068604954,-0.0025704734035447547,0.0,0.0,0.0,0.0,0.0,0.0,0.0,0.0,0.0,-0.0004849615046899954,-0.22134328219608346,9.81282118303198,0.0,0.0,0.0,0.0,0.0,0.0,0.0,0.0,0.0
2025/05/20 12:56:26.468304690,1747738586,468037198,mA1/imu,0.9993023463570782,0.03732769871821954,0.0006801174285207352,0.0010004568574897895,0.0,0.0,0.0,0.0,0.0,0.0,0.0,0.0,0.0,0.001337728066583928,-0.0003545300715566697,-0.002640266670639899,0.0,0.0,0.0,0.0,0.0,0.0,0.0,0.0,0.0,-0.0018963914359985089,0.593456874594684,9.817153214897237,0.0,0.0,0.0,0.0,0.0,0.0,0.0,0.0,0.0
2025/05/20 12:56:26.519656652,1747738586,518948517,mA1/imu,0.9993000067707555,0.03739258065080191,0.0006380480248205758,0.0009403589524443294,0.0,0.0,0.0,0.0,0.0,0.0,0.0,0.0,0.0,0.0019587021473191275,-0.0024479310329101117,-0.0026247766076213258,0.0,0.0,0.0,0.0,0.0,0.0,0.0,0.0,0.0,0.008628844741457644,0.5896215424939015,9.820835201977651,0.0,0.0,0.0,0.0,0.0,0.0,0.0,0.0,0.0
2025/05/20 12:56:26.569265815,1747738586,568976665,mA1/imu,0.9992976111308018,0.03745975538128096,0.0005428345189355654,0.0008697388874882029,0.0,0.0,0.0,0.0,0.0,0.0,0.0,0.0,0.0,0.0023864646491848665,-0.004497793896208928,-0.0027622070883140237,0.0,0.0,0.0,0.0,0.0,0.0,0.0,0.0,0.0,0.008981784661268486,0.5818676511483745,9.825399390810281,0.0,0.0,0.0,0.0,0.0,0.0,0.0,0.0,0.0
2025/05/20 12:56:26.622369874,1747738586,620452606,mA1/imu,0.9992950241327989,0.03753210725369989,0.00040015171085293236,0.0007972121009764576,0.0,0.0,0.0,0.0,0.0,0.0,0.0,0.0,0.0,0.0032639269473767815,-0.006263441749137625,-0.002988549693003593,0.0,0.0,0.0,0.0,0.0,0.0,0.0,0.0,0.0,0.006285613214717776,-0.008374851494343511,9.827882893563107,0.0,0.0,0.0,0.0,0.0,0.0,0.0,0.0,0.0
2025/05/20 12:56:26.672458615,1747738586,671696776,mA1/imu,0.9992922545252689,0.03760881611213897,0.00021898539603393405,0.0007204455877351219,0.0,0.0,0.0,0.0,0.0,0.0,0.0,0.0,0.0,0.0030081038184729112,-0.007651728379551517,-0.0031452483467191003,0.0,0.0,0.0,0.0,0.0,0.0,0.0,0.0,0.0,0.005975700430600648,-0.037444285160722714,9.829394874007392,0.0,0.0,0.0,0.0,0.0,0.0,0.0,0.0,0.0
2025/05/20 12:56:26.714517579,1747738586,713104455,mA1/imu,0.9992892596988359,0.03769051530025917,1.0248322216087056e-05,0.0006327732019937236,0.0,0.0,0.0,0.0,0.0,0.0,0.0,0.0,0.0,0.0020724756761023007,-0.008496061103031728,-0.0033595671409761708,0.0,0.0,0.0,0.0,0.0,0.0,0.0,0.0,0.0,0.003984460513032222,0.5277456118955015,9.82802139154021,0.0,0.0,0.0,0.0,0.0,0.0,0.0,0.0,0.0
2025/05/20 12:56:26.766097766,1747738586,764980946,mA1/imu,0.9992860233411663,0.037776925106102366,-0.00021513273060339624,0.0005488191271480075,0.0,0.0,0.0,0.0,0.0,0.0,0.0,0.0,0.0,0.0038080118210396057,-0.009039157706675537,-0.0035046551867696616,0.0,0.0,0.0,0.0,0.0,0.0,0.0,0.0,0.0,0.002761768135672793,0.0341816465197471,9.826442012279573,0.0,0.0,0.0,0.0,0.0,0.0,0.0,0.0,0.0
2025/05/20 12:56:26.819774287,1747738586,818573234,mA1/imu,0.9992826156687249,0.03786598395403403,-0.0004455388536470361,0.0004719921546405993,0.0,0.0,0.0,0.0,0.0,0.0,0.0,0.0,0.0,0.005037159183249105,-0.009111863008800911,-0.003646812005842269,0.0,0.0,0.0,0.0,0.0,0.0,0.0,0.0,0.0,0.0077819945110132755,-0.3635783334311407,9.822777795976359,0.0,0.0,0.0,0.0,0.0,0.0,0.0,0.0,0.0
2025/05/20 12:56:26.869620382,1747738586,867969608,mA1/imu,0.9992789473412007,0.037960003723238094,-0.0006711836497292605,0.0004159693521159413,0.0,0.0,0.0,0.0,0.0,0.0,0.0,0.0,0.0,0.00310286246402705,-0.008760434725445496,-0.003850017955279449,0.0,0.0,0.0,0.0,0.0,0.0,0.0,0.0,0.0,0.00830704482395812,0.03138436161350686,9.822367368054532,0.0,0.0,0.0,0.0,0.0,0.0,0.0,0.0,0.0
2025/05/20 12:56:26.922274515,1747738586,919768857,mA1/imu,0.999275036757727,0.03805904377015547,-0.0008793794573584032,0.00036985390983246643,0.0,0.0,0.0,0.0,0.0,0.0,0.0,0.0,0.0,0.0011139908940421995,-0.007856932140852918,-0.004048641583270135,0.0,0.0,0.0,0.0,0.0,0.0,0.0,0.0,0.0,0.005470230024442076,-0.06629279683875233,9.817673083315368,0.0,0.0,0.0,0.0,0.0,0.0,0.0,0.0,0.0
2025/05/20 12:56:26.970064667,1747738586,969665174,mA1/imu,0.9992709177007283,0.038162903473289746,-0.0010584851149954152,0.00032472341139472294,0.0,0.0,0.0,0.0,0.0,0.0,0.0,0.0,0.0,0.001644743450553301,-0.006512100659314515,-0.004238575210527723,0.0,0.0,0.0,0.0,0.0,0.0,0.0,0.0,0.0,0.003657149379519071,-0.5253456681801455,9.81161064574732,0.0,0.0,0.0,0.0,0.0,0.0,0.0,0.0,0.0
2025/05/20 12:56:27.12304684,1747738587,11007892,mA1/imu,0.9992666125190948,0.03827159959465632,-0.0011974714080795383,0.00029636347024103476,0.0,0.0,0.0,0.0,0.0,0.0,0.0,0.0,0.0,0.0015688214107197325,-0.00480191541046426,-0.004430623665317817,0.0,0.0,0.0,0.0,0.0,0.0,0.0,0.0,0.0,0.0020909797476290175,0.0641148131382536,9.80600498978037,0.0,0.0,0.0,0.0,0.0,0.0,0.0,0.0,0.0
2025/05/20 12:56:27.61678418,1747738587,60839874,mA1/imu,0.9992621681832483,0.038384538783664046,-0.001287700846340188,0.00029706330889609975,0.0,0.0,0.0,0.0,0.0,0.0,0.0,0.0,0.0,-0.0006325007277242955,-0.0027651337038914,-0.004575934071167065,0.0,0.0,0.0,0.0,0.0,0.0,0.0,0.0,0.0,-0.000371484818421728,0.06350359312891844,9.8026511526594,0.0,0.0,0.0,0.0,0.0,0.0,0.0,0.0,0.0
2025/05/20 12:56:27.113516090,1747738587,112303389,mA1/imu,0.9992576075172815,0.03850172687857152,-0.0013253850406268022,0.0003069213259533821,0.0,0.0,0.0,0.0,0.0,0.0,0.0,0.0,0.0,0.0002821234002843089,-0.0006772155552447022,-0.00476730285922408,0.0,0.0,0.0,0.0,0.0,0.0,0.0,0.0,0.0,0.0027604230879694804,-0.5479735640920291,9.79835695669997,0.0,0.0,0.0,0.0,0.0,0.0,0.0,0.0,0.0
2025/05/20 12:56:27.162971345,1747738587,162482390,mA1/imu,0.9992529114956277,0.03862371493336479,-0.0013097585188303923,0.0003347310558333968,0.0,0.0,0.0,0.0,0.0,0.0,0.0,0.0,0.0,-0.0009661528034913726,0.0014051779426033286,-0.004959467237703873,0.0,0.0,0.0,0.0,0.0,0.0,0.0,0.0,0.0,0.004202619792769681,0.045426726456547724,9.796710793622204,0.0,0.0,0.0,0.0,0.0,0.0,0.0,0.0,0.0
2025/05/20 12:56:27.222014568,1747738587,218662149,mA1/imu,0.9992480690398561,0.038750553029614186,-0.001242794121917148,0.00038291355191839296,0.0,0.0,0.0,0.0,0.0,0.0,0.0,0.0,0.0,-0.0030439006205688324,0.0033764439328098014,-0.005148975083186293,0.0,0.0,0.0,0.0,0.0,0.0,0.0,0.0,0.0,0.004948772292809277,0.5815092950047611,9.793202503209148,0.0,0.0,0.0,0.0,0.0,0.0,0.0,0.0,0.0
2025/05/20 12:56:27.267664636,1747738587,266869022,mA1/imu,0.9992433372474672,0.03887546623223937,-0.001118895593310523,0.0004462784130256441,0.0,0.0,0.0,0.0,0.0,0.0,0.0,0.0,0.0,-0.003560108782403681,0.006483487953187943,-0.00445079086964517,0.0,0.0,0.0,0.0,0.0,0.0,0.0,0.0,0.0,-0.10089015145121787,-0.03819917679515128,9.790864558671997,0.0,0.0,0.0,0.0,0.0,0.0,0.0,0.0,0.0
2025/05/20 12:56:27.322361465,1747738587,320818577,mA1/imu,0.9992401085680818,0.038963360829974314,-0.0008978053114025243,0.0005058530460430173,0.0,0.0,0.0,0.0,0.0,0.0,0.0,0.0,0.0,-0.0019241775471249601,0.009793913647475427,-0.003136900746896213,0.0,0.0,0.0,0.0,0.0,0.0,0.0,0.0,0.0,-0.02741972606585354,-0.5006498514983997,9.791774039214793,0.0,0.0,0.0,0.0,0.0,0.0,0.0,0.0,0.0
2025/05/20 12:56:27.369354765,1747738587,369057872,mA1/imu,0.9992375322085438,0.039033666477601675,-0.0006256826019650759,0.0005793344253627136,0.0,0.0,0.0,0.0,0.0,0.0,0.0,0.0,0.0,-0.002364334758684607,0.011794474942354154,-0.00227414567713903,0.0,0.0,0.0,0.0,0.0,0.0,0.0,0.0,0.0,-0.08473663746486254,0.08457085131805869,9.794342912049336,0.0,0.0,0.0,0.0,0.0,0.0,0.0,0.0,0.0
2025/05/20 12:56:27.421724846,1747738587,420170929,mA1/imu,0.9992366033940643,0.03906007993137193,-0.0002817739315502707,0.0006642263920901553,0.0,0.0,0.0,0.0,0.0,0.0,0.0,0.0,0.0,-0.003632374697584109,0.014619122779851269,-0.0002515839422394334,0.0,0.0,0.0,0.0,0.0,0.0,0.0,0.0,0.0,-0.06710716273250214,-0.12722179005642875,9.796102308659913,0.0,0.0,0.0,0.0,0.0,0.0,0.0,0.0,0.0
2025/05/20 12:56:27.472817286,1747738587,469975544,mA1/imu,0.9992367103326061,0.039056903967930164,8.434708354117171e-05,0.0007401767903429079,0.0,0.0,0.0,0.0,0.0,0.0,0.0,0.0,0.0,-0.003024875550281133,0.014024705673075937,0.00023156342997036257,0.0,0.0,0.0,0.0,0.0,0.0,0.0,0.0,0.0,0.016790593367606025,-0.5788370278311189,9.798073864550643,0.0,0.0,0.0,0.0,0.0,0.0,0.0,0.0,0.0
2025/05/20 12:56:27.514536969,1747738587,511144623,mA1/imu,0.9992370327479879,0.03904523645993306,0.0004129157801544505,0.0008070906658430341,0.0,0.0,0.0,0.0,0.0,0.0,0.0,0.0,0.0,-0.001267031789443482,0.012241512258709165,0.0006200197249384439,0.0,0.0,0.0,0.0,0.0,0.0,0.0,0.0,0.0,0.02297985004579697,-0.4823036969252279,9.802791849445113,0.0,0.0,0.0,0.0,0.0,0.0,0.0,0.0,0.0
2025/05/20 12:56:27.563621742,1747738587,562600687,mA1/imu,0.9992374948022963,0.03902789213546676,0.000681333645230044,0.0008879195667836928,0.0,0.0,0.0,0.0,0.0,0.0,0.0,0.0,0.0,-0.0031873545239630144,0.009351136591102826,0.0007373871575895341,0.0,0.0,0.0,0.0,0.0,0.0,0.0,0.0,0.0,0.03935166736772809,-0.011555333781559264,9.809360874573414,0.0,0.0,0.0,0.0,0.0,0.0,0.0,0.0,0.0
2025/05/20 12:56:27.615173195,1747738587,614811691,mA1/imu,0.999238167519536,0.039005541713476886,0.000866496351052019,0.0009494587466902247,0.0,0.0,0.0,0.0,0.0,0.0,0.0,0.0,0.0,-0.00444243908278904,0.005883943724261569,0.0010172228377148813,0.0,0.0,0.0,0.0,0.0,0.0,0.0,0.0,0.0,0.042654085586259965,0.4984229915453587,9.814469460534756,0.0,0.0,0.0,0.0,0.0,0.0,0.0,0.0,0.0
2025/05/20 12:56:27.665611988,1747738587,665140192,mA1/imu,0.9992391563807289,0.03897678030187439,0.0009584686034730305,0.001000145371762416,0.0,0.0,0.0,0.0,0.0,0.0,0.0,0.0,0.0,-0.0020458499072259933,0.0020357846261116657,0.001246020892117431,0.0,0.0,0.0,0.0,0.0,0.0,0.0,0.0,0.0,0.043530655376045266,-0.17277564795097014,9.81689903576727,0.0,0.0,0.0,0.0,0.0,0.0,0.0,0.0,0.0
2025/05/20 12:56:27.718458619,1747738587,716639605,mA1/imu,0.9992404723358422,0.038942325933879515,0.0009511882355131278,0.001033894502757099,0.0,0.0,0.0,0.0,0.0,0.0,0.0,0.0,0.0,-0.0008410234243021018,-0.0019181661678112443,0.0014432117186031156,0.0,0.0,0.0,0.0,0.0,0.0,0.0,0.0,0.0,0.04165468178855432,0.02873181633834916,9.821217025543753,0.0,0.0,0.0,0.0,0.0,0.0,0.0,0.0,0.0
2025/05/20 12:56:27.768228798,1747738587,767470891,mA1/imu,0.9992420562497101,0.038903415982250195,0.0008477326221807627,0.0010576370665223375,0.0,0.0,0.0,0.0,0.0,0.0,0.0,0.0,0.0,-0.0003317441445874039,-0.005649351085813634,0.0016228290330968023,0.0,0.0,0.0,0.0,0.0,0.0,0.0,0.0,0.0,0.04053419708286514,0.01091022757360579,9.82475173096984,0.0,0.0,0.0,0.0,0.0,0.0,0.0,0.0,0.0
2025/05/20 12:56:27.819018238,1747738587,818432511,mA1/imu,0.9992438753344148,0.03886026231311686,0.0006554407924315044,0.0010620814393191601,0.0,0.0,0.0,0.0,0.0,0.0,0.0,0.0,0.0,0.0004282891110658203,-0.008989023322600327,0.0017841129582070478,0.0,0.0,0.0,0.0,0.0,0.0,0.0,0.0,0.0,0.0357304434250145,0.008534389861630555,9.82663038866318,0.0,0.0,0.0,0.0,0.0,0.0,0.0,0.0,0.0
2025/05/20 12:56:27.870126275,1747738587,868207575,mA1/imu,0.9992458807509763,0.038812587004597714,0.00038773871699548007,0.0010500242394937194,0.0,0.0,0.0,0.0,0.0,0.0,0.0,0.0,0.0,0.0012102986048300524,-0.01173060746019492,0.001970170959816043,0.0,0.0,0.0,0.0,0.0,0.0,0.0,0.0,0.0,0.034173583140153466,0.008722982773136309,9.82788610459544,0.0,0.0,0.0,0.0,0.0,0.0,0.0,0.0,0.0
2025/05/20 12:56:27.914595788,1747738587,912071630,mA1/imu,0.9992480164284812,0.038760228169055555,6.199793611297103e-05,0.0010210447025719405,0.0,0.0,0.0,0.0,0.0,0.0,0.0,0.0,0.0,0.0019548786241237177,-0.01368431259175755,0.0021683542119061323,0.0,0.0,0.0,0.0,0.0,0.0,0.0,0.0,0.0,0.025831512556237227,0.007098024375666149,9.827508248600656,0.0,0.0,0.0,0.0,0.0,0.0,0.0,0.0,0.0
2025/05/20 12:56:27.963733146,1747738587,962128023,mA1/imu,0.9992502597143054,0.0387023951285393,-0.00030045424576987143,0.0009761144676370345,0.0,0.0,0.0,0.0,0.0,0.0,0.0,0.0,0.0,0.0026134955229598334,-0.014793354014768199,0.002389534364853624,0.0,0.0,0.0,0.0,0.0,0.0,0.0,0.0,0.0,0.024207763917597994,0.008026919545084013,9.826744496428981,0.0,0.0,0.0,0.0,0.0,0.0,0.0,0.0,0.0
2025/05/20 12:56:28.17108931,1747738588,16874182,mA1/imu,0.9992525648966031,0.0386394980871896,-0.0006780243322496806,0.000917070409038719,0.0,0.0,0.0,0.0,0.0,0.0,0.0,0.0,0.0,0.003146699358240082,-0.015005649111484989,0.002587013425334113,0.0,0.0,0.0,0.0,0.0,0.0,0.0,0.0,0.0,0.018118838065414047,0.006697185677603194,9.823364692190523,0.0,0.0,0.0,0.0,0.0,0.0,0.0,0.0,0.0
2025/05/20 12:56:28.67043252,1747738588,66873455,mA1/imu,0.9992549502232452,0.03857111062285397,-0.0010475375011852572,0.0008464897182360013,0.0,0.0,0.0,0.0,0.0,0.0,0.0,0.0,0.0,0.0035404066839216882,-0.014317174194154243,0.002811983992616144,0.0,0.0,0.0,0.0,0.0,0.0,0.0,0.0,0.0,0.01688123400013891,0.007724849462666213,9.821092990247122,0.0,0.0,0.0,0.0,0.0,0.0,0.0,0.0,0.0
2025/05/20 12:56:28.122184881,1747738588,120855836,mA1/imu,0.9992574584674827,0.03849709322861876,-0.0013869672553075776,0.0007627790549644772,0.0,0.0,0.0,0.0,0.0,0.0,0.0,0.0,0.0,0.004913445970706275,-0.012752089898442485,0.0030371632296850148,0.0,0.0,0.0,0.0,0.0,0.0,0.0,0.0,0.0,0.011714559739388668,-0.5439647023248704,9.81561928769067,0.0,0.0,0.0,0.0,0.0,0.0,0.0,0.0,0.0
