time,header_stamp_secs,header_stamp_nsecs,header_frame_id,orientation_x,orientation_y,orientation_z,orientation_w,orientation_covariance_0,orientation_covariance_1,orientation_covariance_2,orientation_covariance_3,orientation_covariance_4,orientation_covariance_5,orientation_covariance_6,orientation_covariance_7,orientation_covariance_8,angular_velocity_x,angular_velocity_y,angular_velocity_z,angular_velocity_covariance_0,angular_velocity_covariance_1,angular_velocity_covariance_2,angular_velocity_covariance_3,angular_velocity_covariance_4,angular_velocity_covariance_5,angular_velocity_covariance_6,angular_velocity_covariance_7,angular_velocity_covariance_8,linear_acceleration_x,linear_acceleration_y,linear_acceleration_z,linear_acceleration_covariance_0,linear_acceleration_covariance_1,linear_acceleration_covariance_2,linear_acceleration_covariance_3,linear_acceleration_covariance_4,linear_acceleration_covariance_5,linear_acceleration_covariance_6,linear_acceleration_covariance_7,linear_acceleration_covariance_8
2025/05/25 17:33:26.628756522,1748187206,622375041,mA1/imu,0.5081154111264851,0.861288543241159,0.0005016221499268969,0.0007229332639692563,0.0,0.0,0.0,0.0,0.0,0.0,0.0,0.0,0.0,-0.0014826457312073543,-0.0003061004010879384,7.454238410417322e-05,0.0,0.0,0.0,0.0,0.0,0.0,0.0,0.0,0.0,0.0077466366980939875,0.5066058306989998,9.80992289820602,0.0,0.0,0.0,0.0,0.0,0.0,0.0,0.0,0.0
2025/05/25 17:33:26.674589593,1748187206,674446472,mA1/imu,0.508117008813009,0.8612875997515395,0.000494187374319519,0.000729141955713187,0.0,0.0,0.0,0.0,0.0,0.0,0.0,0.0,0.0,0.00023851792820938562,-0.0003912247702227909,7.335908252780126e-05,0.0,0.0,0.0,0.0,0.0,0.0,0.0,0.0,0.0,0.008407075734381066,-0.6364969265964999,9.809617594345545,0.0,0.0,0.0,0.0,0.0,0.0,0.0,0.0,0.0
2025/05/25 17:33:26.714533892,1748187206,714392184,mA1/imu,0.5081185849864845,0.8612866746557659,0.0004799185695010352,0.0007330279067057691,0.0,0.0,0.0,0.0,0.0,0.0,0.0,0.0,0.0,0.0016781661769060914,-0.0004526583591895382,7.221657331420012e-05,0.0,0.0,0.0,0.0,0.0,0.0,0.0,0.0,0.0,0.008429913342332094,-0.5379496263071887,9.809253802602454,0.0,0.0,0.0,0.0,0.0,0.0,0.0,0.0,0.0
2025/05/25 17:33:26.766034724,1748187206,765731822,mA1/imu,0.5081201276294937,0.8612857607016101,0.0004730019084855519,0.00074201053251378,0.0,0.0,0.0,0.0,0.0,0.0,0.0,0.0,0.0,-6.057740316095625e-05,-0.00045523413551667384,7.085969550819643e-05,0.0,0.0,0.0,0.0,0.0,0.0,0.0,0.0,0.0,0.007441342459280544,0.6052358471037069,9.81048724708851,0.0,0.0,0.0,0.0,0.0,0.0,0.0,0.0,0.0
2025/05/25 17:33:26.817882049,1748187206,816126748,mA1/imu,0.5081216386339017,0.8612848582899265,0.0004726649904439856,0.0007548644293727481,0.0,0.0,0.0,0.0,0.0,0.0,0.0,0.0,0.0,-0.0015261742697723762,-0.0004320827363496117,6.95799314116148e-05,0.0,0.0,0.0,0.0,0.0,0.0,0.0,0.0,0.0,0.007328434283763733,0.5067117066660296,9.809836348478019,0.0,0.0,0.0,0.0,0.0,0.0,0.0,0.0,0.0
2025/05/25 17:33:26.869580160,1748187206,867633046,mA1/imu,0.5081231322861063,0.8612839736913338,0.0004655725443035761,0.0007631123299108958,0.0,0.0,0.0,0.0,0.0,0.0,0.0,0.0,0.0,0.00017930064169189815,-0.00041236034258844645,6.865066955823687e-05,0.0,0.0,0.0,0.0,0.0,0.0,0.0,0.0,0.0,0.007986086721989253,-0.6364736670396623,9.80958876996,0.0,0.0,0.0,0.0,0.0,0.0,0.0,0.0,0.0
2025/05/25 17:33:26.925107991,1748187206,924429078,mA1/imu,0.5081246087922987,0.8612831057594255,0.0004532749046528786,0.000766951714714194,0.0,0.0,0.0,0.0,0.0,0.0,0.0,0.0,0.0,0.0016065423413920503,-0.0003697746682686897,6.777336948207535e-05,0.0,0.0,0.0,0.0,0.0,0.0,0.0,0.0,0.0,0.008050564723590415,-0.5379356666396307,9.80926979664554,0.0,0.0,0.0,0.0,0.0,0.0,0.0,0.0,0.0
2025/05/25 17:33:26.970285115,1748187206,968630170,mA1/imu,0.5081260558949169,0.8612822476518154,0.00044981801139507124,0.0007738632110469209,0.0,0.0,0.0,0.0,0.0,0.0,0.0,0.0,0.0,-0.0001408799879255668,-0.00027546595354351587,6.668535465246328e-05,0.0,0.0,0.0,0.0,0.0,0.0,0.0,0.0,0.0,0.007135555603339758,0.6052015398885882,9.810570858250951,0.0,0.0,0.0,0.0,0.0,0.0,0.0,0.0,0.0
2025/05/25 17:33:27.21680032,1748187207,21058046,mA1/imu,0.5081274756835502,0.861281399654332,0.0004542365602419931,0.0007827733293882127,0.0,0.0,0.0,0.0,0.0,0.0,0.0,0.0,0.0,-0.0016116707269778654,-0.00016619136630696834,6.566488584824887e-05,0.0,0.0,0.0,0.0,0.0,0.0,0.0,0.0,0.0,0.007051455650551064,0.5066572146082946,9.809961080802506,0.0,0.0,0.0,0.0,0.0,0.0,0.0,0.0,0.0
2025/05/25 17:33:27.72695400,1748187207,72550510,mA1/imu,0.5081288827982962,0.8612805677297724,0.00045291737219469374,0.0007854827115864377,0.0,0.0,0.0,0.0,0.0,0.0,0.0,0.0,0.0,9.28876020547052e-05,-7.843547585708924e-05,6.496697151313168e-05,0.0,0.0,0.0,0.0,0.0,0.0,0.0,0.0,0.0,0.00784753869088245,-0.636399396788756,9.809746622428415,0.0,0.0,0.0,0.0,0.0,0.0,0.0,0.0,0.0
2025/05/25 17:33:27.123652180,1748187207,122855656,mA1/imu,0.5081302769687667,0.8612797509247797,0.00044708004604939735,0.000782556085008185,0.0,0.0,0.0,0.0,0.0,0.0,0.0,0.0,0.0,0.0015230114413441105,1.1870681214598134e-05,6.428468376898459e-05,0.0,0.0,0.0,0.0,0.0,0.0,0.0,0.0,0.0,0.007964390881268825,-0.5378935600474912,9.809449778913402,0.0,0.0,0.0,0.0,0.0,0.0,0.0,0.0,0.0
2025/05/25 17:33:27.174067125,1748187207,173866882,mA1/imu,0.5081325424963703,0.8612784124783381,0.00044969214157065756,0.0007830912754582299,0.0,0.0,0.0,0.0,0.0,0.0,0.0,0.0,0.0,-0.00020605350900043334,2.9365296308165813e-05,0.00016822167043944376,0.0,0.0,0.0,0.0,0.0,0.0,0.0,0.0,0.0,0.009219904091664618,0.6112352686263519,9.809980723684198,0.0,0.0,0.0,0.0,0.0,0.0,0.0,0.0,0.0
2025/05/25 17:33:27.223886569,1748187207,223677481,mA1/imu,0.5081383960913943,0.8612749512289944,0.0004577555777119315,0.0007869326459503838,0.0,0.0,0.0,0.0,0.0,0.0,0.0,0.0,0.0,-0.0015563700709066138,5.5444711857597926e-05,0.000341331173664944,0.0,0.0,0.0,0.0,0.0,0.0,0.0,0.0,0.0,0.009174623336974892,0.4906848386404395,9.809338184668993,0.0,0.0,0.0,0.0,0.0,0.0,0.0,0.0,0.0
2025/05/25 17:33:27.265391479,1748187207,265061408,mA1/imu,0.5081478837498764,0.8612693548407585,0.0004571469525657003,0.0007859194421433431,0.0,0.0,0.0,0.0,0.0,0.0,0.0,0.0,0.0,0.00015260071856640912,2.258703634696016e-05,0.0005069474127274733,0.0,0.0,0.0,0.0,0.0,0.0,0.0,0.0,0.0,0.012132614047205288,-0.6321567467220449,9.810636633098577,0.0,0.0,0.0,0.0,0.0,0.0,0.0,0.0,0.0
2025/05/25 17:33:27.315597626,1748187207,315167812,mA1/imu,0.5081608920116748,0.8612616877309512,0.0004501113578661751,0.0007813299547052004,0.0,0.0,0.0,0.0,0.0,0.0,0.0,0.0,0.0,0.0016017348583226597,-1.4210880284773217e-05,0.0006673503718311198,0.0,0.0,0.0,0.0,0.0,0.0,0.0,0.0,0.0,0.012271226147559435,-0.534803976664786,9.810388427368707,0.0,0.0,0.0,0.0,0.0,0.0,0.0,0.0,0.0
2025/05/25 17:33:27.369808137,1748187207,369571413,mA1/imu,0.5081772849780568,0.8612520157643836,0.0004501691370544207,0.0007808468894232737,0.0,0.0,0.0,0.0,0.0,0.0,0.0,0.0,0.0,-9.591800595316557e-05,1.5165857924439259e-05,0.0008228142687400525,0.0,0.0,0.0,0.0,0.0,0.0,0.0,0.0,0.0,0.009205256683473216,0.6108260473794408,9.809969854923736,0.0,0.0,0.0,0.0,0.0,0.0,0.0,0.0,0.0
2025/05/25 17:33:27.420040429,1748187207,419737512,mA1/imu,0.5081969381033955,0.8612404134589354,0.0004560921983997293,0.0007837775972827202,0.0,0.0,0.0,0.0,0.0,0.0,0.0,0.0,0.0,-0.0015176173319334958,4.4040253508860556e-05,0.0009725930304310017,0.0,0.0,0.0,0.0,0.0,0.0,0.0,0.0,0.0,0.009134186679925913,0.5120440490587036,9.809373621175585,0.0,0.0,0.0,0.0,0.0,0.0,0.0,0.0,0.0
2025/05/25 17:33:27.471820878,1748187207,471467546,mA1/imu,0.508219740625236,0.8612269600569561,0.0004541972674869169,0.000782441508498624,0.0,0.0,0.0,0.0,0.0,0.0,0.0,0.0,0.0,0.00020796495071224807,4.322097903132582e-06,0.0011160921199605362,0.0,0.0,0.0,0.0,0.0,0.0,0.0,0.0,0.0,0.012172813321222426,-0.6344716798994635,9.81080204556075,0.0,0.0,0.0,0.0,0.0,0.0,0.0,0.0,0.0
2025/05/25 17:33:27.521643939,1748187207,521248783,mA1/imu,0.5082455792024007,0.8612117206934096,0.0004457670407346543,0.0007775945333591502,0.0,0.0,0.0,0.0,0.0,0.0,0.0,0.0,0.0,0.0016523488381774188,-3.4160276440242155e-05,0.001254691093034177,0.0,0.0,0.0,0.0,0.0,0.0,0.0,0.0,0.0,0.012233247866937875,-0.5360682068939213,9.810439142275818,0.0,0.0,0.0,0.0,0.0,0.0,0.0,0.0,0.0
2025/05/25 17:33:27.569434136,1748187207,568380160,mA1/imu,0.5082742382512,0.8611948083088292,0.00044502767270600924,0.0007764164166709107,0.0,0.0,0.0,0.0,0.0,0.0,0.0,0.0,0.0,-6.460032702084069e-05,4.0391014812349555e-05,0.0013654604007997794,0.0,0.0,0.0,0.0,0.0,0.0,0.0,0.0,0.0,0.011694843035984781,0.6075343217019566,9.809775903991268,0.0,0.0,0.0,0.0,0.0,0.0,0.0,0.0,0.0
2025/05/25 17:33:27.617169613,1748187207,616514824,mA1/imu,0.5083038208698847,0.8611773425003652,0.0004506028577106753,0.000779365222189372,0.0,0.0,0.0,0.0,0.0,0.0,0.0,0.0,0.0,-0.0015209115485559685,1.2581672832459478e-05,0.0013803838141226263,0.0,0.0,0.0,0.0,0.0,0.0,0.0,0.0,0.0,0.011392120678957032,0.509181312160004,9.809130211491123,0.0,0.0,0.0,0.0,0.0,0.0,0.0,0.0,0.0
2025/05/25 17:33:27.668701999,1748187207,668462485,mA1/imu,0.5083337310868359,0.8611596887195185,0.00044862383890140363,0.0007791665349496271,0.0,0.0,0.0,0.0,0.0,0.0,0.0,0.0,0.0,0.00017495775595977825,-4.033623144325697e-05,0.0013953800894866684,0.0,0.0,0.0,0.0,0.0,0.0,0.0,0.0,0.0,0.012715018337658882,-0.6360308310299542,9.810971754388456,0.0,0.0,0.0,0.0,0.0,0.0,0.0,0.0,0.0
2025/05/25 17:33:27.721631666,1748187207,719138427,mA1/imu,0.5083639795875459,0.8611418396213666,0.000440723775817764,0.0007759342724554755,0.0,0.0,0.0,0.0,0.0,0.0,0.0,0.0,0.0,0.001591467317120989,-7.61049281082343e-05,0.001410650673415416,0.0,0.0,0.0,0.0,0.0,0.0,0.0,0.0,0.0,0.01262615089609489,-0.5375509468653245,9.810594306829646,0.0,0.0,0.0,0.0,0.0,0.0,0.0,0.0,0.0
2025/05/25 17:33:27.770645923,1748187207,770155732,mA1/imu,0.5083945684901765,0.861123779976916,0.00044087640831284446,0.0007771202918574048,0.0,0.0,0.0,0.0,0.0,0.0,0.0,0.0,0.0,-0.0001491084680508845,-2.896641272611461e-05,0.0014276544106502011,0.0,0.0,0.0,0.0,0.0,0.0,0.0,0.0,0.0,0.009314173001734495,0.6077871262488926,9.8096357548558,0.0,0.0,0.0,0.0,0.0,0.0,0.0,0.0,0.0
2025/05/25 17:33:27.821566427,1748187207,821338132,mA1/imu,0.5084255216249285,0.8611054971984,0.00044818816297659476,0.000781525742623876,0.0,0.0,0.0,0.0,0.0,0.0,0.0,0.0,0.0,-0.001612599639651733,3.389696830904059e-05,0.001445486805485922,0.0,0.0,0.0,0.0,0.0,0.0,0.0,0.0,0.0,0.009058656617190646,0.5092521504252157,9.808956198377889,0.0,0.0,0.0,0.0,0.0,0.0,0.0,0.0,0.0
2025/05/25 17:33:27.875599375,1748187207,873484838,mA1/imu,0.5084568424701023,0.8610870034822535,0.0004490588146180835,0.0007811052862263987,0.0,0.0,0.0,0.0,0.0,0.0,0.0,0.0,0.0,8.101255889258459e-05,5.15104134715903e-05,0.001461429210899271,0.0,0.0,0.0,0.0,0.0,0.0,0.0,0.0,0.0,0.011092933755281193,-0.6362186222962706,9.810736120265288,0.0,0.0,0.0,0.0,0.0,0.0,0.0,0.0,0.0
2025/05/25 17:33:27.923740790,1748187207,923562156,mA1/imu,0.5084885164872824,0.8610683063110328,0.00044478119876556883,0.0007762969132588276,0.0,0.0,0.0,0.0,0.0,0.0,0.0,0.0,0.0,0.0015000157239136952,7.418476746056714e-05,0.0014773642890279655,0.0,0.0,0.0,0.0,0.0,0.0,0.0,0.0,0.0,0.011050136978220017,-0.537737783090676,9.810365353704306,0.0,0.0,0.0,0.0,0.0,0.0,0.0,0.0,0.0
2025/05/25 17:33:27.965214173,1748187207,964711098,mA1/imu,0.508520544907597,0.8610493908255843,0.00044904700455062035,0.000774804851839892,0.0,0.0,0.0,0.0,0.0,0.0,0.0,0.0,0.0,-0.0002331280065772011,0.00015906091732633453,0.0014948498268975872,0.0,0.0,0.0,0.0,0.0,0.0,0.0,0.0,0.0,0.00817568247510886,0.6077006955224004,9.809479947806677,0.0,0.0,0.0,0.0,0.0,0.0,0.0,0.0,0.0
2025/05/25 17:33:28.15857579,1748187208,15681024,mA1/imu,0.5085529375526978,0.8610302524172759,0.0004605835674568721,0.00077588113846324,0.0,0.0,0.0,0.0,0.0,0.0,0.0,0.0,0.0,-0.001685593940687444,0.0002412257360116728,0.0015127536523060021,0.0,0.0,0.0,0.0,0.0,0.0,0.0,0.0,0.0,0.007972448030250177,0.5091481083781906,9.808808872296554,0.0,0.0,0.0,0.0,0.0,0.0,0.0,0.0,0.0
2025/05/25 17:33:28.69508428,1748187208,69093415,mA1/imu,0.508583263198329,0.8610123410614725,0.000466061767301686,0.000771829521871109,0.0,0.0,0.0,0.0,0.0,0.0,0.0,0.0,0.0,-1.4694044372544842e-05,0.0002708162475456908,0.001341560467639421,0.0,0.0,0.0,0.0,0.0,0.0,0.0,0.0,0.0,0.010134551591756708,-0.6413074618042055,9.809226055755307,0.0,0.0,0.0,0.0,0.0,0.0,0.0,0.0,0.0
2025/05/25 17:33:28.121157847,1748187208,120974672,mA1/imu,0.5086099940265133,0.8609965578551596,0.0004668789923765914,0.0007637813322656192,0.0,0.0,0.0,0.0,0.0,0.0,0.0,0.0,0.0,0.001385068690557361,0.00028826129081770916,0.0011750830759730037,0.0,0.0,0.0,0.0,0.0,0.0,0.0,0.0,0.0,0.010172465171712759,-0.5425535626120647,9.80893574598816,0.0,0.0,0.0,0.0,0.0,0.0,0.0,0.0,0.0
2025/05/25 17:33:28.173870785,1748187208,173654818,mA1/imu,0.5086332405808951,0.8609828234733126,0.00047640721681173716,0.0007598001472133094,0.0,0.0,0.0,0.0,0.0,0.0,0.0,0.0,0.0,-0.00037027684893734127,0.00033851581597838936,0.0010170588921187454,0.0,0.0,0.0,0.0,0.0,0.0,0.0,0.0,0.0,0.007428816277848782,0.6036750869028465,9.810785903114043,0.0,0.0,0.0,0.0,0.0,0.0,0.0,0.0,0.0
2025/05/25 17:33:28.216661382,1748187208,216543917,mA1/imu,0.5086531167961796,0.8609710721012429,0.0004929855754331437,0.0007594363636780294,0.0,0.0,0.0,0.0,0.0,0.0,0.0,0.0,0.0,-0.0018374702528202325,0.0003709288693524127,0.0008638268066687758,0.0,0.0,0.0,0.0,0.0,0.0,0.0,0.0,0.0,0.007284934038316577,0.5052167562496952,9.81015258943466,0.0,0.0,0.0,0.0,0.0,0.0,0.0,0.0,0.0
2025/05/25 17:33:28.269527874,1748187208,269266772,mA1/imu,0.5086697260117679,0.8609612577401948,0.0005023561819229683,0.0007550813211053245,0.0,0.0,0.0,0.0,0.0,0.0,0.0,0.0,0.0,-0.00012572532018415475,0.0003342545513548678,0.0007125161323844311,0.0,0.0,0.0,0.0,0.0,0.0,0.0,0.0,0.0,0.010171315509683978,-0.6407775188997044,9.809445384418616,0.0,0.0,0.0,0.0,0.0,0.0,0.0,0.0,0.0
2025/05/25 17:33:28.321698869,1748187208,321471481,mA1/imu,0.5086831696570759,0.8609533197087711,0.00050521256612841,0.000747629814848585,0.0,0.0,0.0,0.0,0.0,0.0,0.0,0.0,0.0,0.0013224086400104057,0.0002811146888283375,0.0005656909066438749,0.0,0.0,0.0,0.0,0.0,0.0,0.0,0.0,0.0,0.010216163778124928,-0.5421905951750174,9.809192586096742,0.0,0.0,0.0,0.0,0.0,0.0,0.0,0.0,0.0
2025/05/25 17:33:28.374352923,1748187208,374237274,mA1/imu,0.5086935625681126,0.8609471756177671,0.0005148240446808869,0.0007450864072737384,0.0,0.0,0.0,0.0,0.0,0.0,0.0,0.0,0.0,-0.00038202303776907503,0.000265143023200846,0.0004279604725290217,0.0,0.0,0.0,0.0,0.0,0.0,0.0,0.0,0.0,0.007242485299459307,0.6040895897563997,9.81098389597714,0.0,0.0,0.0,0.0,0.0,0.0,0.0,0.0,0.0
2025/05/25 17:33:28.415599183,1748187208,415234854,mA1/imu,0.5087010171629799,0.86094276051127,0.0005295730311937803,0.0007468687892075504,0.0,0.0,0.0,0.0,0.0,0.0,0.0,0.0,0.0,-0.0017987715293260563,0.00023604880043100375,0.0002947631673180579,0.0,0.0,0.0,0.0,0.0,0.0,0.0,0.0,0.0,0.00711688862183382,0.5055715952437294,9.810361992538288,0.0,0.0,0.0,0.0,0.0,0.0,0.0,0.0,0.0
2025/05/25 17:33:28.467183528,1748187208,466996040,mA1/imu,0.5087056189972166,0.8609400392693466,0.0005352873181993991,0.0007452858792803372,0.0,0.0,0.0,0.0,0.0,0.0,0.0,0.0,0.0,-3.7110036357946366e-05,0.00014246314384359408,0.00016192775552406797,0.0,0.0,0.0,0.0,0.0,0.0,0.0,0.0,0.0,0.01005347831454298,-0.6404817414520514,9.809755500234402,0.0,0.0,0.0,0.0,0.0,0.0,0.0,0.0,0.0
2025/05/25 17:33:28.519222479,1748187208,518416602,mA1/imu,0.5087074418605786,0.8609389672856896,0.0005328124066439652,0.0007411583201188863,0.0,0.0,0.0,0.0,0.0,0.0,0.0,0.0,0.0,0.00145677468072158,3.9794190359028716e-05,3.210649585652887e-05,0.0,0.0,0.0,0.0,0.0,0.0,0.0,0.0,0.0,0.01009823153999221,-0.5418864336245792,9.809466644753755,0.0,0.0,0.0,0.0,0.0,0.0,0.0,0.0,0.0
2025/05/25 17:33:28.571228551,1748187208,569461180,mA1/imu,0.5087075773421597,0.8609388843577925,0.0005353523150996074,0.0007426663645680824,0.0,0.0,0.0,0.0,0.0,0.0,0.0,0.0,0.0,-0.0001928207416552938,-4.888174601487194e-05,2.5543723498823354e-05,0.0,0.0,0.0,0.0,0.0,0.0,0.0,0.0,0.0,0.00908369531066357,0.6090986644679259,9.809736211524061,0.0,0.0,0.0,0.0,0.0,0.0,0.0,0.0,0.0
2025/05/25 17:33:28.622848149,1748187208,622712358,mA1/imu,0.5087089629822431,0.8609380568156602,0.0005406010395871344,0.000749038398257133,0.0,0.0,0.0,0.0,0.0,0.0,0.0,0.0,0.0,-0.0015335473760561974,-0.00013447068767249236,9.01535062170333e-05,0.0,0.0,0.0,0.0,0.0,0.0,0.0,0.0,0.0,0.008858139202147043,0.5103181349285623,9.809083783569807,0.0,0.0,0.0,0.0,0.0,0.0,0.0,0.0,0.0
2025/05/25 17:33:28.676476252,1748187208,676255389,mA1/imu,0.5087117066193757,0.8609364363372675,0.0005347076343802677,0.000752477929279371,0.0,0.0,0.0,0.0,0.0,0.0,0.0,0.0,0.0,0.00028265442017996257,-0.00029147681946239967,0.00015113865180973465,0.0,0.0,0.0,0.0,0.0,0.0,0.0,0.0,0.0,0.011591333289009393,-0.635872154376381,9.811159037297342,0.0,0.0,0.0,0.0,0.0,0.0,0.0,0.0,0.0
2025/05/25 17:33:28.719167937,1748187208,718671420,mA1/imu,0.5087163568762026,0.860933697417859,0.0005195396390501846,0.0007529778097721165,0.0,0.0,0.0,0.0,0.0,0.0,0.0,0.0,0.0,0.0018028957666823716,-0.0002978297868551672,0.0003067693001010876,0.0,0.0,0.0,0.0,0.0,0.0,0.0,0.0,0.0,3.143837450122512e-05,-0.5381267248471615,9.810043640124531,0.0,0.0,0.0,0.0,0.0,0.0,0.0,0.0,0.0
2025/05/25 17:33:28.771922549,1748187208,770823091,mA1/imu,0.5087274782167639,0.8609271323178801,0.0005137457723866485,0.0007495407958815566,0.0,0.0,0.0,0.0,0.0,0.0,0.0,0.0,0.0,0.00021816678999267024,0.00029732283055032744,0.0007217737967626943,0.0,0.0,0.0,0.0,0.0,0.0,0.0,0.0,0.0,-0.04278833070110322,0.6225125424807815,9.811402532117786,0.0,0.0,0.0,0.0,0.0,0.0,0.0,0.0,0.0
2025/05/25 17:33:28.822158729,1748187208,821728001,mA1/imu,0.5087481583300777,0.8609149222874074,0.0005205645914814939,0.0007327967844901963,0.0,0.0,0.0,0.0,0.0,0.0,0.0,0.0,0.0,-0.001149358628111096,0.0007665387903565162,0.000971769166093464,0.0,0.0,0.0,0.0,0.0,0.0,0.0,0.0,0.0,0.004226682854332027,0.5058784168251593,9.810140332471848,0.0,0.0,0.0,0.0,0.0,0.0,0.0,0.0,0.0
2025/05/25 17:33:28.873562497,1748187208,873359650,mA1/imu,0.5087687528134727,0.8609027710302195,0.0005200137199162782,0.0007103371338961186,0.0,0.0,0.0,0.0,0.0,0.0,0.0,0.0,0.0,0.0005921344929705048,0.0007617133112687741,0.0009468001090711436,0.0,0.0,0.0,0.0,0.0,0.0,0.0,0.0,0.0,0.0054112967144232995,-0.6375868921624228,9.809793656897105,0.0,0.0,0.0,0.0,0.0,0.0,0.0,0.0,0.0
2025/05/25 17:33:28.923765407,1748187208,923407885,mA1/imu,0.508788816096323,0.8608909390341166,0.0005128787900042014,0.0006845871792104546,0.0,0.0,0.0,0.0,0.0,0.0,0.0,0.0,0.0,0.002035146126256268,0.0007101351331371822,0.0009226300265663482,0.0,0.0,0.0,0.0,0.0,0.0,0.0,0.0,0.0,0.005610661411306091,-0.538878790091996,9.809370727815592,0.0,0.0,0.0,0.0,0.0,0.0,0.0,0.0,0.0
2025/05/25 17:33:28.965166245,1748187208,964941728,mA1/imu,0.5088085091658181,0.8608793157356784,0.0005126455900232147,0.0006647807357765023,0.0,0.0,0.0,0.0,0.0,0.0,0.0,0.0,0.0,0.00030368549182740643,0.0006447353415148648,0.0009353977694436318,0.0,0.0,0.0,0.0,0.0,0.0,0.0,0.0,0.0,0.005232457112102163,0.610977387565561,9.809726843698847,0.0,0.0,0.0,0.0,0.0,0.0,0.0,0.0,0.0
2025/05/25 17:33:29.15420501,1748187209,15308989,mA1/imu,0.5088293936675168,0.8608669796035482,0.000517401191381851,0.0006510485532340246,0.0,0.0,0.0,0.0,0.0,0.0,0.0,0.0,0.0,-0.0011729593617851402,0.0005154473406260995,0.0009653934298719891,0.0,0.0,0.0,0.0,0.0,0.0,0.0,0.0,0.0,0.00583954447421687,0.5060935456736264,9.809803870698754,0.0,0.0,0.0,0.0,0.0,0.0,0.0,0.0,0.0
2025/05/25 17:33:29.66350413,1748187209,66224838,mA1/imu,0.5088499799547666,0.8608548237326186,0.0005137075198369146,0.0006375428611250383,0.0,0.0,0.0,0.0,0.0,0.0,0.0,0.0,0.0,0.0004830634684116136,0.0002889327558453725,0.0009714218774002056,0.0,0.0,0.0,0.0,0.0,0.0,0.0,0.0,0.0,0.01016613119879227,-0.6343946493717776,9.810395327635758,0.0,0.0,0.0,0.0,0.0,0.0,0.0,0.0,0.0
2025/05/25 17:33:29.119398600,1748187209,118548158,mA1/imu,0.5088723422921199,0.860841620382678,0.0005019845489299515,0.000626002052264958,0.0,0.0,0.0,0.0,0.0,0.0,0.0,0.0,0.0,0.0018858536977632112,7.235639822133519e-05,0.0010494132496813296,0.0,0.0,0.0,0.0,0.0,0.0,0.0,0.0,0.0,0.00743318248554459,-0.5392465565204456,9.809116520097247,0.0,0.0,0.0,0.0,0.0,0.0,0.0,0.0,0.0
2025/05/25 17:33:29.171203983,1748187209,170354171,mA1/imu,0.508894526888786,0.8608285103609137,0.000496842278275463,0.0006240193904903056,0.0,0.0,0.0,0.0,0.0,0.0,0.0,0.0,0.0,6.88050570888251e-05,-0.00011974471095340861,0.0010185563071815943,0.0,0.0,0.0,0.0,0.0,0.0,0.0,0.0,0.0,0.006540806440541462,0.6046376109713782,9.81037042664806,0.0,0.0,0.0,0.0,0.0,0.0,0.0,0.0,0.0
2025/05/25 17:33:29.223353989,1748187209,223088690,mA1/imu,0.5089160587691002,0.8608157753562244,0.0004975281010536168,0.0006312611003968425,0.0,0.0,0.0,0.0,0.0,0.0,0.0,0.0,0.0,-0.0014802776530176557,-0.0003006726749174475,0.0009882421126636834,0.0,0.0,0.0,0.0,0.0,0.0,0.0,0.0,0.0,0.006375750374913827,0.5062229125939238,9.809738773465682,0.0,0.0,0.0,0.0,0.0,0.0,0.0,0.0,0.0
2025/05/25 17:33:29.265553719,1748187209,265263975,mA1/imu,0.5089369650053313,0.8608034130815941,0.0004906963283861346,0.0006394492582878885,0.0,0.0,0.0,0.0,0.0,0.0,0.0,0.0,0.0,0.00013693200853690017,-0.0004883973921353644,0.0009595688193335433,0.0,0.0,0.0,0.0,0.0,0.0,0.0,0.0,0.0,0.006991652883784318,-0.6375714397878078,9.809476173672959,0.0,0.0,0.0,0.0,0.0,0.0,0.0,0.0,0.0
2025/05/25 17:33:29.317271188,1748187209,316341331,mA1/imu,0.508957259191801,0.8607914144127762,0.0004779160947577329,0.0006486797580062458,0.0,0.0,0.0,0.0,0.0,0.0,0.0,0.0,0.0,0.0014787489062852773,-0.000644826235784873,0.0009315468457979446,0.0,0.0,0.0,0.0,0.0,0.0,0.0,0.0,0.0,0.0070109679481394,-0.5390340142088915,9.809168592600958,0.0,0.0,0.0,0.0,0.0,0.0,0.0,0.0,0.0
2025/05/25 17:33:29.373020490,1748187209,372392238,mA1/imu,0.5089769439951328,0.8607797644474925,0.00047329265178032074,0.0006660278977172038,0.0,0.0,0.0,0.0,0.0,0.0,0.0,0.0,0.0,-0.00034300960256022396,-0.0007285076175009397,0.0009035348501019767,0.0,0.0,0.0,0.0,0.0,0.0,0.0,0.0,0.0,0.005900564923849462,0.6049522133835985,9.810572942775526,0.0,0.0,0.0,0.0,0.0,0.0,0.0,0.0,0.0
2025/05/25 17:33:29.414206915,1748187209,414076120,mA1/imu,0.5089960384085852,0.8607684535020955,0.0004759784863261464,0.000689771308074643,0.0,0.0,0.0,0.0,0.0,0.0,0.0,0.0,0.0,-0.0018777523646092864,-0.0007699775673405455,0.0008764529068291056,0.0,0.0,0.0,0.0,0.0,0.0,0.0,0.0,0.0,0.005752267803088432,0.5064327782517754,9.809990563720552,0.0,0.0,0.0,0.0,0.0,0.0,0.0,0.0,0.0
2025/05/25 17:33:29.465598740,1748187209,465480626,mA1/imu,0.5090145817704534,0.8607574727855539,0.0004725490952758886,0.0007108348817312484,0.0,0.0,0.0,0.0,0.0,0.0,0.0,0.0,0.0,-0.00022783034785808995,-0.000797048819583718,0.0008517168976943933,0.0,0.0,0.0,0.0,0.0,0.0,0.0,0.0,0.0,0.006415719475796936,-0.6374310403688154,9.809731466957295,0.0,0.0,0.0,0.0,0.0,0.0,0.0,0.0,0.0
2025/05/25 17:33:29.520265815,1748187209,518312185,mA1/imu,0.5090326105715508,0.8607468005050781,0.0004643956113653346,0.0007287878286061048,0.0,0.0,0.0,0.0,0.0,0.0,0.0,0.0,0.0,0.0011623716328774698,-0.0007810946524640178,0.0008282560429936856,0.0,0.0,0.0,0.0,0.0,0.0,0.0,0.0,0.0,0.006465823787013881,-0.5388869516131177,9.80947344731038,0.0,0.0,0.0,0.0,0.0,0.0,0.0,0.0,0.0
2025/05/25 17:33:29.566382382,1748187209,565765582,mA1/imu,0.5090501316280155,0.8607364194995015,0.0004653848763797513,0.0007503689727456737,0.0,0.0,0.0,0.0,0.0,0.0,0.0,0.0,0.0,-0.0005963563471283594,-0.0006901165548517495,0.0008052068118606989,0.0,0.0,0.0,0.0,0.0,0.0,0.0,0.0,0.0,0.005485195572626863,0.6050319887496467,9.810930181735975,0.0,0.0,0.0,0.0,0.0,0.0,0.0,0.0,0.0
2025/05/25 17:33:29.617056872,1748187209,616721956,mA1/imu,0.5090671656718666,0.8607263194944795,0.00047437129216478896,0.0007737804447339731,0.0,0.0,0.0,0.0,0.0,0.0,0.0,0.0,0.0,-0.00205803270383547,-0.0005646323562088953,0.0007831014544550592,0.0,0.0,0.0,0.0,0.0,0.0,0.0,0.0,0.0,0.005423459449202616,0.5064630071455223,9.81031584904882,0.0,0.0,0.0,0.0,0.0,0.0,0.0,0.0,0.0
2025/05/25 17:33:29.668040553,1748187209,667886942,mA1/imu,0.5090837474708968,0.8607164955381196,0.0004775678611953477,0.0007901256254666042,0.0,0.0,0.0,0.0,0.0,0.0,0.0,0.0,0.0,-0.000327088749518209,-0.0004407878890481634,0.0007624544266563375,0.0,0.0,0.0,0.0,0.0,0.0,0.0,0.0,0.0,0.006153500468139004,-0.6371184244834858,9.809988537284086,0.0,0.0,0.0,0.0,0.0,0.0,0.0,0.0,0.0
2025/05/25 17:33:29.719376032,1748187209,719260359,mA1/imu,0.5090998966215218,0.8607069360349755,0.00047599310681653584,0.0007993446082115135,0.0,0.0,0.0,0.0,0.0,0.0,0.0,0.0,0.0,0.0011478103652368505,-0.00029769676870915245,0.0007427069841608301,0.0,0.0,0.0,0.0,0.0,0.0,0.0,0.0,0.0,0.006283647297000925,-0.5385550219260146,9.80969331617818,0.0,0.0,0.0,0.0,0.0,0.0,0.0,0.0,0.0
2025/05/25 17:33:29.771917879,1748187209,771313156,mA1/imu,0.5091156192759968,0.8606976232426355,0.00048310655447897995,0.000808802666724898,0.0,0.0,0.0,0.0,0.0,0.0,0.0,0.0,0.0,-0.0005268474170597305,-0.0001133937218613706,0.0007234669167722512,0.0,0.0,0.0,0.0,0.0,0.0,0.0,0.0,0.0,0.005590312899842749,0.6049289855660126,9.811073248504096,0.0,0.0,0.0,0.0,0.0,0.0,0.0,0.0,0.0
2025/05/25 17:33:29.822923160,1748187209,822495747,mA1/imu,0.509130936708768,0.8606885462404872,0.0004973739354236068,0.0008174812887601864,0.0,0.0,0.0,0.0,0.0,0.0,0.0,0.0,0.0,-0.0019084633816356315,7.077764927044519e-05,0.0007051102185163026,0.0,0.0,0.0,0.0,0.0,0.0,0.0,0.0,0.0,0.005575271246460725,0.5063560061024984,9.810397287193654,0.0,0.0,0.0,0.0,0.0,0.0,0.0,0.0,0.0
2025/05/25 17:33:29.874259834,1748187209,873874591,mA1/imu,0.5091456005159054,0.860679870308225,0.0005070402187312482,0.0008131615655722246,0.0,0.0,0.0,0.0,0.0,0.0,0.0,0.0,0.0,-9.991998325363575e-05,0.0005663493271182464,0.0006658747526420879,0.0,0.0,0.0,0.0,0.0,0.0,0.0,0.0,0.0,-0.0035322425641068477,-0.6372186235833979,9.810457796453317,0.0,0.0,0.0,0.0,0.0,0.0,0.0,0.0,0.0
2025/05/25 17:33:29.925773422,1748187209,924154032,mA1/imu,0.5091606322451306,0.860670992048671,0.0005149420844972696,0.0007930021089265964,0.0,0.0,0.0,0.0,0.0,0.0,0.0,0.0,0.0,0.0014481548607344,0.0009923514735762269,0.0007076418961765689,0.0,0.0,0.0,0.0,0.0,0.0,0.0,0.0,0.0,0.0012812392002190254,-0.538604465542069,9.809668089485244,0.0,0.0,0.0,0.0,0.0,0.0,0.0,0.0,0.0
2025/05/25 17:33:29.965824863,1748187209,965658765,mA1/imu,0.5091774938820145,0.8606610295544415,0.0005342629258656219,0.0007658286010033702,0.0,0.0,0.0,0.0,0.0,0.0,0.0,0.0,0.0,-0.00018218582569020465,0.0016483010564322142,0.0009074523394070204,0.0,0.0,0.0,0.0,0.0,0.0,0.0,0.0,0.0,-0.019260016601742147,0.6086757687110281,9.811676834171884,0.0,0.0,0.0,0.0,0.0,0.0,0.0,0.0,0.0
2025/05/25 17:33:30.17963996,1748187210,17847110,mA1/imu,0.5092004349545861,0.8606474708007745,0.0005666892049798832,0.0007258854146696958,0.0,0.0,0.0,0.0,0.0,0.0,0.0,0.0,0.0,-0.0015351234573787091,0.0021567764655802198,0.001101354445058613,0.0,0.0,0.0,0.0,0.0,0.0,0.0,0.0,0.0,0.0006542569541931071,0.5072521607145719,9.81022892969257,0.0,0.0,0.0,0.0,0.0,0.0,0.0,0.0,0.0
2025/05/25 17:33:30.71905115,1748187210,68818008,mA1/imu,0.5092180903686526,0.8606370447815407,0.0005872499069913985,0.0006846375288040397,0.0,0.0,0.0,0.0,0.0,0.0,0.0,0.0,0.0,0.00025215449882377237,0.0013235585814405386,0.0004256653412627049,0.0,0.0,0.0,0.0,0.0,0.0,0.0,0.0,0.0,0.04865867482905651,-0.6544067709617349,9.809209155372223,0.0,0.0,0.0,0.0,0.0,0.0,0.0,0.0,0.0
2025/05/25 17:33:30.121232187,1748187210,121092009,mA1/imu,0.5092226338976035,0.8606343752018909,0.0005904550798870557,0.0006578069904372163,0.0,0.0,0.0,0.0,0.0,0.0,0.0,0.0,0.0,0.0017394450606084432,0.0009723441857592231,0.00020908204438409577,0.0,0.0,0.0,0.0,0.0,0.0,0.0,0.0,0.0,0.0007580625038277229,-0.538022775010371,9.809510939062402,0.0,0.0,0.0,0.0,0.0,0.0,0.0,0.0,0.0
2025/05/25 17:33:30.172267456,1748187210,172157227,mA1/imu,0.509227038410641,0.8606317803507973,0.0005988556068557416,0.0006351170810562949,0.0,0.0,0.0,0.0,0.0,0.0,0.0,0.0,0.0,9.148069093908492e-05,0.0009206495666409986,0.00020290131535445234,0.0,0.0,0.0,0.0,0.0,0.0,0.0,0.0,0.0,0.0006628246453094415,0.6054441784171423,9.810616508314967,0.0,0.0,0.0,0.0,0.0,0.0,0.0,0.0,0.0
2025/05/25 17:33:30.223881720,1748187210,223571901,mA1/imu,0.5092313163325562,0.8606292538738792,0.0006106014929040299,0.0006172588748399775,0.0,0.0,0.0,0.0,0.0,0.0,0.0,0.0,0.0,-0.0012801373047586677,0.0008115668407511101,0.00019704652817498984,0.0,0.0,0.0,0.0,0.0,0.0,0.0,0.0,0.0,0.0007725022416062719,0.5070607402426102,9.80992164047618,0.0,0.0,0.0,0.0,0.0,0.0,0.0,0.0,0.0
2025/05/25 17:33:30.265301379,1748187210,265018634,mA1/imu,0.5092354832598439,0.8606268015266132,0.0006115178716307649,0.0005976027756546157,0.0,0.0,0.0,0.0,0.0,0.0,0.0,0.0,0.0,0.0005024056693297907,0.0006210341938769587,0.00019167909523195515,0.0,0.0,0.0,0.0,0.0,0.0,0.0,0.0,0.0,0.0018029429900786242,-0.6374725681452917,9.809664904796463,0.0,0.0,0.0,0.0,0.0,0.0,0.0,0.0,0.0
2025/05/25 17:33:30.316370276,1748187210,316184836,mA1/imu,0.5092395402766487,0.8606244207243284,0.0006025230845047231,0.0005779599245367801,0.0,0.0,0.0,0.0,0.0,0.0,0.0,0.0,0.0,0.0019952741769846474,0.0003933508292463133,0.00018640210961286835,0.0,0.0,0.0,0.0,0.0,0.0,0.0,0.0,0.0,0.0020060291933036664,-0.5388196729004735,9.809281995900275,0.0,0.0,0.0,0.0,0.0,0.0,0.0,0.0,0.0
2025/05/25 17:33:30.368318161,1748187210,368105981,mA1/imu,0.5092434844682585,0.8606220976249191,0.0005973752693353376,0.000567229317241092,0.0,0.0,0.0,0.0,0.0,0.0,0.0,0.0,0.0,0.00029110423189871555,0.00016615288359226823,0.00018150395854108,0.0,0.0,0.0,0.0,0.0,0.0,0.0,0.0,0.0,0.0016780023908102844,0.6053245552709139,9.810382483855149,0.0,0.0,0.0,0.0,0.0,0.0,0.0,0.0,0.0
2025/05/25 17:33:30.418795007,1748187210,418689744,mA1/imu,0.5092473365581104,0.8606198211187316,0.0005950548899599295,0.0005653456563359724,0.0,0.0,0.0,0.0,0.0,0.0,0.0,0.0,0.0,-0.0011496856065853277,-7.276057674963587e-05,0.00017716193486123685,0.0,0.0,0.0,0.0,0.0,0.0,0.0,0.0,0.0,0.0016707652942264386,0.5069905399452393,9.809751606533956,0.0,0.0,0.0,0.0,0.0,0.0,0.0,0.0,0.0
2025/05/25 17:33:30.473868238,1748187210,473535838,mA1/imu,0.5092511105708376,0.8606175972124609,0.0005822129588257039,0.0005646048968350377,0.0,0.0,0.0,0.0,0.0,0.0,0.0,0.0,0.0,0.000560389443170018,-0.00033418220664561434,0.00017336047229074797,0.0,0.0,0.0,0.0,0.0,0.0,0.0,0.0,0.0,0.0022646366826867648,-0.6374809807223962,9.809581825807117,0.0,0.0,0.0,0.0,0.0,0.0,0.0,0.0,0.0
2025/05/25 17:33:30.514798885,1748187210,514639357,mA1/imu,0.5092548080310905,0.860615422935611,0.0005606439623502683,0.000565668563847172,0.0,0.0,0.0,0.0,0.0,0.0,0.0,0.0,0.0,0.001975213029076758,-0.0005769909169572259,0.00016968812092899125,0.0,0.0,0.0,0.0,0.0,0.0,0.0,0.0,0.0,0.002372806430247454,-0.5389060459543595,9.809248837290259,0.0,0.0,0.0,0.0,0.0,0.0,0.0,0.0,0.0
2025/05/25 17:33:30.566429208,1748187210,566338413,mA1/imu,0.5092584208275196,0.8606132883299694,0.0005448248931636151,0.0005761353776354079,0.0,0.0,0.0,0.0,0.0,0.0,0.0,0.0,0.0,0.00019874133842503835,-0.000757065584451374,0.00016578683971334428,0.0,0.0,0.0,0.0,0.0,0.0,0.0,0.0,0.0,0.0016015860716858026,0.6056306409678228,9.81043826893616,0.0,0.0,0.0,0.0,0.0,0.0,0.0,0.0,0.0
2025/05/25 17:33:30.617174802,1748187210,617023618,mA1/imu,0.5092619525299008,0.8606111924085623,0.0005344188548773601,0.000594645300171388,0.0,0.0,0.0,0.0,0.0,0.0,0.0,0.0,0.0,-0.001315500479374898,-0.0008948168864527579,0.00016208550476666972,0.0,0.0,0.0,0.0,0.0,0.0,0.0,0.0,0.0,0.0015319615545405403,0.5071296346908692,9.809842949401157,0.0,0.0,0.0,0.0,0.0,0.0,0.0,0.0,0.0
2025/05/25 17:33:30.672048341,1748187210,671370204,mA1/imu,0.5092654171907186,0.8606091406572617,0.0005166016994225119,0.0006123670607454425,0.0,0.0,0.0,0.0,0.0,0.0,0.0,0.0,0.0,0.00033089233284153054,-0.001008517356493389,0.0001589587882714198,0.0,0.0,0.0,0.0,0.0,0.0,0.0,0.0,0.0,0.0019494414979563763,-0.6375597317802175,9.809747833986934,0.0,0.0,0.0,0.0,0.0,0.0,0.0,0.0,0.0
2025/05/25 17:33:30.723241135,1748187210,721996517,mA1/imu,0.5092688171675397,0.8606071303216005,0.0004934596698305146,0.000628965777321193,0.0,0.0,0.0,0.0,0.0,0.0,0.0,0.0,0.0,0.0016925966682824324,-0.0010681277286216236,0.00015597787133286042,0.0,0.0,0.0,0.0,0.0,0.0,0.0,0.0,0.0,0.0020674672521954944,-0.5390317795181374,9.809445196243932,0.0,0.0,0.0,0.0,0.0,0.0,0.0,0.0,0.0
2025/05/25 17:33:30.776393000,1748187210,776247348,mA1/imu,0.5092721339428334,0.8606051588727294,0.0004795655797812131,0.000651250959018007,0.0,0.0,0.0,0.0,0.0,0.0,0.0,0.0,0.0,-0.00012264290044815797,-0.001040707081048777,0.00015189839622787877,0.0,0.0,0.0,0.0,0.0,0.0,0.0,0.0,0.0,0.0012802691905364812,0.6057833985983251,9.810696782117208,0.0,0.0,0.0,0.0,0.0,0.0,0.0,0.0,0.0
2025/05/25 17:33:30.816303311,1748187210,816193260,mA1/imu,0.5092753562459498,0.8606032347094508,0.0004744626638129353,0.0006773576396482428,0.0,0.0,0.0,0.0,0.0,0.0,0.0,0.0,0.0,-0.0016612705142476862,-0.000960222313577867,0.00014779886291444995,0.0,0.0,0.0,0.0,0.0,0.0,0.0,0.0,0.0,0.001257374780957856,0.5072648826963921,9.81010615362774,0.0,0.0,0.0,0.0,0.0,0.0,0.0,0.0,0.0
2025/05/25 17:33:30.867342775,1748187210,867230842,mA1/imu,0.5092784994332155,0.860601363189273,0.00046505352728245836,0.0006981525865560233,0.0,0.0,0.0,0.0,0.0,0.0,0.0,0.0,0.0,-2.3076206159996955e-05,-0.0008564372010011893,0.00014419353040451144,0.0,0.0,0.0,0.0,0.0,0.0,0.0,0.0,0.0,0.001849952443576647,-0.6376259405703433,9.809950021833776,0.0,0.0,0.0,0.0,0.0,0.0,0.0,0.0,0.0
2025/05/25 17:33:30.919607026,1748187210,919280292,mA1/imu,0.5092815659293419,0.8605995425688715,0.000452981376387587,0.0007132619987793504,0.0,0.0,0.0,0.0,0.0,0.0,0.0,0.0,0.0,0.001346116280100061,-0.000711072355446817,0.00014071016325748045,0.0,0.0,0.0,0.0,0.0,0.0,0.0,0.0,0.0,0.0020511219711748232,-0.539102930260817,9.80963229795695,0.0,0.0,0.0,0.0,0.0,0.0,0.0,0.0,0.0
2025/05/25 17:33:30.967454034,1748187210,967195281,mA1/imu,0.5092845460560713,0.8605977655923448,0.0004522079635753453,0.0007297354879053552,0.0,0.0,0.0,0.0,0.0,0.0,0.0,0.0,0.0,-0.00044523036763292526,-0.0005080751736289545,0.00013707288150939807,0.0,0.0,0.0,0.0,0.0,0.0,0.0,0.0,0.0,0.0022339070033373072,0.6059482383748458,9.810906984525928,0.0,0.0,0.0,0.0,0.0,0.0,0.0,0.0,0.0
2025/05/25 17:33:31.19565576,1748187211,18923203,mA1/imu,0.5092951134556866,0.8605914974530336,0.0004662599939443782,0.0007379182357174634,0.0,0.0,0.0,0.0,0.0,0.0,0.0,0.0,0.0,-0.001902532454348731,0.0003647603963502494,0.0007361277464381131,0.0,0.0,0.0,0.0,0.0,0.0,0.0,0.0,0.0,-0.010012242829100737,0.516694946087121,9.80997516870907,0.0,0.0,0.0,0.0,0.0,0.0,0.0,0.0,0.0
2025/05/25 17:33:31.71583748,1748187211,71075239,mA1/imu,0.5093119615201538,0.8605815233523535,0.0004774878248714914,0.0007345218942433215,0.0,0.0,0.0,0.0,0.0,0.0,0.0,0.0,0.0,-0.0002191089025652794,0.0003602242561830661,0.0007820243877309125,0.0,0.0,0.0,0.0,0.0,0.0,0.0,0.0,0.0,0.005700184642519598,-0.6382873862164795,9.810010105947034,0.0,0.0,0.0,0.0,0.0,0.0,0.0,0.0,0.0
2025/05/25 17:33:31.121980704,1748187211,121478271,mA1/imu,0.509328523176265,0.8605717245114199,0.0004834093540907018,0.000727162926722401,0.0,0.0,0.0,0.0,0.0,0.0,0.0,0.0,0.0,0.0012074584330424873,0.00036844330664313876,0.0007622241974145498,0.0,0.0,0.0,0.0,0.0,0.0,0.0,0.0,0.0,0.005893692785685917,-0.539499225467514,9.809657823154778,0.0,0.0,0.0,0.0,0.0,0.0,0.0,0.0,0.0
2025/05/25 17:33:31.173309748,1748187211,172551047,mA1/imu,0.5093446457796368,0.8605621769664166,0.0004971248785902372,0.0007240561397355374,0.0,0.0,0.0,0.0,0.0,0.0,0.0,0.0,0.0,-0.0005192993466572709,0.0003840750349812714,0.0007418109434450945,0.0,0.0,0.0,0.0,0.0,0.0,0.0,0.0,0.0,0.005304212167606967,0.6059621442934623,9.810958357313305,0.0,0.0,0.0,0.0,0.0,0.0,0.0,0.0,0.0
2025/05/25 17:33:31.223654654,1748187211,223056347,mA1/imu,0.509360329534894,0.8605528817572433,0.0005167988790529253,0.0007247857110821024,0.0,0.0,0.0,0.0,0.0,0.0,0.0,0.0,0.0,-0.0019534477699376385,0.00037650289677586426,0.0007217972661950498,0.0,0.0,0.0,0.0,0.0,0.0,0.0,0.0,0.0,0.005280887431890738,0.5074471528522344,9.81028269956767,0.0,0.0,0.0,0.0,0.0,0.0,0.0,0.0,0.0
2025/05/25 17:33:31.274319728,1748187211,274116792,mA1/imu,0.5093756017195682,0.8605438377468186,0.0005280648818631071,0.000721689881827352,0.0,0.0,0.0,0.0,0.0,0.0,0.0,0.0,0.0,-0.00020073811171339746,0.00031540421873795974,0.0007027158036531305,0.0,0.0,0.0,0.0,0.0,0.0,0.0,0.0,0.0,0.006205962310598254,-0.6378083250662405,9.809864131264652,0.0,0.0,0.0,0.0,0.0,0.0,0.0,0.0,0.0
2025/05/25 17:33:31.314832873,1748187211,314678916,mA1/imu,0.5093904747672973,0.8605350367428813,0.0005315215936352404,0.0007157087891332157,0.0,0.0,0.0,0.0,0.0,0.0,0.0,0.0,0.0,0.0012897266408837427,0.00023702698330537751,0.0006842013699827753,0.0,0.0,0.0,0.0,0.0,0.0,0.0,0.0,0.0,0.006321928000625058,-0.5392688775346597,9.809497482904302,0.0,0.0,0.0,0.0,0.0,0.0,0.0,0.0,0.0
2025/05/25 17:33:31.367260261,1748187211,365615040,mA1/imu,0.5094049490534873,0.8605264636894452,0.0005403869434275525,0.0007149488817985385,0.0,0.0,0.0,0.0,0.0,0.0,0.0,0.0,0.0,-0.00037626068088188837,0.000173913546159984,0.0006659949302003946,0.0,0.0,0.0,0.0,0.0,0.0,0.0,0.0,0.0,0.005694333068733957,0.6060918902259693,9.810751551109318,0.0,0.0,0.0,0.0,0.0,0.0,0.0,0.0,0.0
2025/05/25 17:33:31.417405354,1748187211,417038500,mA1/imu,0.5094190378871076,0.8605181120909877,0.0005530713069356772,0.000718827980118715,0.0,0.0,0.0,0.0,0.0,0.0,0.0,0.0,0.0,-0.0017558972437746634,0.00010075198605910455,0.0006483207142265512,0.0,0.0,0.0,0.0,0.0,0.0,0.0,0.0,0.0,0.005630117709171855,0.5075336364383529,9.810025236560792,0.0,0.0,0.0,0.0,0.0,0.0,0.0,0.0,0.0
2025/05/25 17:33:31.474812208,1748187211,474329943,mA1/imu,0.5094327660599094,0.8605099828567384,0.0005555975312663436,0.0007194302111292656,0.0,0.0,0.0,0.0,0.0,0.0,0.0,0.0,0.0,4.1824718701248754e-05,-6.751916729880689e-06,0.0006314989907272646,0.0,0.0,0.0,0.0,0.0,0.0,0.0,0.0,0.0,0.0063936512799450335,-0.6377822999489172,9.809618543434699,0.0,0.0,0.0,0.0,0.0,0.0,0.0,0.0,0.0
2025/05/25 17:33:31.515559086,1748187211,514849281,mA1/imu,0.5094461442218619,0.8605020685763068,0.0005490448473731147,0.000717400258124809,0.0,0.0,0.0,0.0,0.0,0.0,0.0,0.0,0.0,0.0015664467528919324,-0.00011229381869299196,0.0006151891009128595,0.0,0.0,0.0,0.0,0.0,0.0,0.0,0.0,0.0,0.0064861295104160855,-0.5392374491789125,9.809257202380136,0.0,0.0,0.0,0.0,0.0,0.0,0.0,0.0,0.0
2025/05/25 17:33:31.566434460,1748187211,566229333,mA1/imu,0.5094591808728155,0.8604943488778253,0.0005471645209884789,0.0007205447343626595,0.0,0.0,0.0,0.0,0.0,0.0,0.0,0.0,0.0,-7.86651385712271e-05,-0.0001784593796265933,0.0006000366654919325,0.0,0.0,0.0,0.0,0.0,0.0,0.0,0.0,0.0,0.0056251009840949835,0.6060707827305869,9.81046208208009,0.0,0.0,0.0,0.0,0.0,0.0,0.0,0.0,0.0
2025/05/25 17:33:31.616596975,1748187211,616498889,mA1/imu,0.5094719023148122,0.8604868096033477,0.0005489480905716888,0.0007279466822537853,0.0,0.0,0.0,0.0,0.0,0.0,0.0,0.0,0.0,-0.0014504842505982118,-0.00023399108616617913,0.0005856014760625381,0.0,0.0,0.0,0.0,0.0,0.0,0.0,0.0,0.0,0.005540852012623925,0.5075184554616514,9.809787978203637,0.0,0.0,0.0,0.0,0.0,0.0,0.0,0.0,0.0
2025/05/25 17:33:31.669600399,1748187211,669090885,mA1/imu,0.5094843318964732,0.8604794520239448,0.0005412581204708894,0.0007315984029215505,0.0,0.0,0.0,0.0,0.0,0.0,0.0,0.0,0.0,0.0003280247188208203,-0.00030341450812222876,0.000572002125368325,0.0,0.0,0.0,0.0,0.0,0.0,0.0,0.0,0.0,0.006203800579544292,-0.6386617504385969,9.809506721052495,0.0,0.0,0.0,0.0,0.0,0.0,0.0,0.0,0.0
2025/05/25 17:33:31.721049060,1748187211,719856763,mA1/imu,0.5094964794815374,0.8604722691972478,0.0005252860632151042,0.0007317192153317849,0.0,0.0,0.0,0.0,0.0,0.0,0.0,0.0,0.0,0.001840765086962885,-0.00035546575626693163,0.0005588654145438618,0.0,0.0,0.0,0.0,0.0,0.0,0.0,0.0,0.0,0.006275559070558059,-0.5395946632068264,9.80915941862947,0.0,0.0,0.0,0.0,0.0,0.0,0.0,0.0,0.0
2025/05/25 17:33:31.772703592,1748187211,772531240,mA1/imu,0.5095083421215988,0.8604652474982991,0.0005152564730270307,0.0007359802700980233,0.0,0.0,0.0,0.0,0.0,0.0,0.0,0.0,0.0,0.0001663946698196325,-0.000356364887498141,0.0005459392097526026,0.0,0.0,0.0,0.0,0.0,0.0,0.0,0.0,0.0,0.005438174474275046,0.6058212606401625,9.810474539109654,0.0,0.0,0.0,0.0,0.0,0.0,0.0,0.0,0.0
2025/05/25 17:33:31.824870952,1748187211,824695339,mA1/imu,0.5095199305314205,0.8604583819098498,0.0005105669736176686,0.0007434471769499441,0.0,0.0,0.0,0.0,0.0,0.0,0.0,0.0,0.0,-0.0012465957767206462,-0.0003375903721129151,0.0005334884977765126,0.0,0.0,0.0,0.0,0.0,0.0,0.0,0.0,0.0,0.0053486718903105746,0.5073732111051077,9.809853730548785,0.0,0.0,0.0,0.0,0.0,0.0,0.0,0.0,0.0
2025/05/25 17:33:31.866035577,1748187211,865736562,mA1/imu,0.5095312674025684,0.8604516738396646,0.0004981098172948445,0.0007459304671580079,0.0,0.0,0.0,0.0,0.0,0.0,0.0,0.0,0.0,0.0004946310173565612,-0.00032877090229679515,0.0005217996593907878,0.0,0.0,0.0,0.0,0.0,0.0,0.0,0.0,0.0,0.0060822123526118035,-0.6378864240128713,9.809630559875217,0.0,0.0,0.0,0.0,0.0,0.0,0.0,0.0,0.0
2025/05/25 17:33:31.917170677,1748187211,917015845,mA1/imu,0.5095423608299773,0.860445116777311,0.00047965583953156715,0.0007439517246071994,0.0,0.0,0.0,0.0,0.0,0.0,0.0,0.0,0.0,0.00194348817304059,-0.00030301031987614666,0.0005105217324348584,0.0,0.0,0.0,0.0,0.0,0.0,0.0,0.0,0.0,0.006188846540438653,-0.5393056237035773,9.809347310670706,0.0,0.0,0.0,0.0,0.0,0.0,0.0,0.0,0.0
2025/05/25 17:33:31.968496421,1748187211,968395589,mA1/imu,0.5095540842625559,0.860438179565865,0.0004700671130235557,0.0007439043202141864,0.0,0.0,0.0,0.0,0.0,0.0,0.0,0.0,0.0,0.00024904134100262845,7.690424937002866e-05,0.0007037669717037327,0.0,0.0,0.0,0.0,0.0,0.0,0.0,0.0,0.0,-0.03984737825196448,0.6233784441161953,9.811293518657074,0.0,0.0,0.0,0.0,0.0,0.0,0.0,0.0,0.0
2025/05/25 17:33:32.25609084,1748187212,21290451,mA1/imu,0.5095798380698853,0.860422937762285,0.00047735201857269623,0.0007272827777613248,0.0,0.0,0.0,0.0,0.0,0.0,0.0,0.0,0.0,-0.0011967847886530886,0.0008415974737882749,0.0013142521063421952,0.0,0.0,0.0,0.0,0.0,0.0,0.0,0.0,0.0,0.008370061911335804,0.5064337517421384,9.810112104047336,0.0,0.0,0.0,0.0,0.0,0.0,0.0,0.0,0.0
2025/05/25 17:33:32.73923756,1748187212,73724729,mA1/imu,0.509607730707489,0.8604064344413331,0.0004782211963239709,0.000706880189588682,0.0,0.0,0.0,0.0,0.0,0.0,0.0,0.0,0.0,0.0004735585970653304,0.0006002727273814403,0.0012987361473800764,0.0,0.0,0.0,0.0,0.0,0.0,0.0,0.0,0.0,0.01698511665329626,-0.6347301701492959,9.810898655211698,0.0,0.0,0.0,0.0,0.0,0.0,0.0,0.0,0.0
2025/05/25 17:33:32.116405968,1748187212,116268058,mA1/imu,0.5096369037926957,0.8603891732064917,0.0004696499279576846,0.0006901815627816206,0.0,0.0,0.0,0.0,0.0,0.0,0.0,0.0,0.0,0.0018821730455494674,0.0002520236142700664,0.0014030871509016283,0.0,0.0,0.0,0.0,0.0,0.0,0.0,0.0,0.0,0.014199796696815804,-0.5371740935191294,9.810493072759746,0.0,0.0,0.0,0.0,0.0,0.0,0.0,0.0,0.0
2025/05/25 17:33:32.171377816,1748187212,171033382,mA1/imu,0.5096692119676882,0.8603700423802251,0.000467248987541528,0.0006828069048945622,0.0,0.0,0.0,0.0,0.0,0.0,0.0,0.0,0.0,0.00012614883186017265,0.0002893439284661883,0.0016787142171881101,0.0,0.0,0.0,0.0,0.0,0.0,0.0,0.0,0.0,-0.011446513786781971,0.6229476955794268,9.81091359031002,0.0,0.0,0.0,0.0,0.0,0.0,0.0,0.0,0.0
2025/05/25 17:33:32.222387822,1748187212,221300757,mA1/imu,0.5097071832200057,0.860347550820458,0.000470235167795328,0.0006767939522434684,0.0,0.0,0.0,0.0,0.0,0.0,0.0,0.0,0.0,-0.001311082527231503,0.000143851450276552,0.0017444576485897802,0.0,0.0,0.0,0.0,0.0,0.0,0.0,0.0,0.0,0.01230749320085607,0.5100187164530651,9.81009270078275,0.0,0.0,0.0,0.0,0.0,0.0,0.0,0.0,0.0
2025/05/25 17:33:32.272743126,1748187212,272533614,mA1/imu,0.5097446637875124,0.8603253492545428,0.00046520060314901373,0.0006743579195673646,0.0,0.0,0.0,0.0,0.0,0.0,0.0,0.0,0.0,0.0002867735550459602,-9.280455227187645e-05,0.001754622858200745,0.0,0.0,0.0,0.0,0.0,0.0,0.0,0.0,0.0,0.011728740697865309,-0.6368186231978676,9.809980968633905,0.0,0.0,0.0,0.0,0.0,0.0,0.0,0.0,0.0
2025/05/25 17:33:32.323641504,1748187212,323251925,mA1/imu,0.5097818746953321,0.8603033015519709,0.00045767410183568993,0.0006783106279170919,0.0,0.0,0.0,0.0,0.0,0.0,0.0,0.0,0.0,0.001456353630132826,-0.00043864616290345375,0.0017091338310139092,0.0,0.0,0.0,0.0,0.0,0.0,0.0,0.0,0.0,0.013377776813370058,-0.5495720994164882,9.809595475965216,0.0,0.0,0.0,0.0,0.0,0.0,0.0,0.0,0.0
2025/05/25 17:33:32.374663470,1748187212,374413005,mA1/imu,0.5098179770150043,0.8602818983904787,0.000453218126263403,0.0006929699363015754,0.0,0.0,0.0,0.0,0.0,0.0,0.0,0.0,0.0,-0.0006249254336996109,-0.0007123963727568182,0.0016582681007392959,0.0,0.0,0.0,0.0,0.0,0.0,0.0,0.0,0.0,0.012193149704896867,0.052885038333043366,9.812092534751885,0.0,0.0,0.0,0.0,0.0,0.0,0.0,0.0,0.0
2025/05/25 17:33:32.414228779,1748187212,414066100,mA1/imu,0.5098530054536631,0.8602611207059133,0.00045098717499688674,0.0007166883848607473,0.0,0.0,0.0,0.0,0.0,0.0,0.0,0.0,0.0,-0.002280817806534459,-0.000941017659580894,0.0016092957846595213,0.0,0.0,0.0,0.0,0.0,0.0,0.0,0.0,0.0,0.011452382300358364,0.4733208395272555,9.810880337761496,0.0,0.0,0.0,0.0,0.0,0.0,0.0,0.0,0.0
2025/05/25 17:33:32.468230400,1748187212,467963987,mA1/imu,0.5098870059506231,0.8602409540501635,0.0004392999186190441,0.0007410486860721456,0.0,0.0,0.0,0.0,0.0,0.0,0.0,0.0,0.0,-0.0008204370385441792,-0.0011368442220169206,0.0015612145270743362,0.0,0.0,0.0,0.0,0.0,0.0,0.0,0.0,0.0,0.011575438087594831,-0.05114346419669679,9.809406338092181,0.0,0.0,0.0,0.0,0.0,0.0,0.0,0.0,0.0
2025/05/25 17:33:32.518544648,1748187212,518373817,mA1/imu,0.509920008431609,0.8602213724150526,0.0004283366914838042,0.0007693953142741854,0.0,0.0,0.0,0.0,0.0,0.0,0.0,0.0,0.0,0.0007731569661794018,-0.0012377795160669917,0.0015160138577321005,0.0,0.0,0.0,0.0,0.0,0.0,0.0,0.0,0.0,0.011048123372838574,-0.5643830373380767,9.80844642272934,0.0,0.0,0.0,0.0,0.0,0.0,0.0,0.0,0.0
2025/05/25 17:33:32.572260600,1748187212,570471149,mA1/imu,0.509952032896966,0.8602023604744672,0.0004234538949409136,0.0008024121168304355,0.0,0.0,0.0,0.0,0.0,0.0,0.0,0.0,0.0,-0.0002639577778307971,-0.001233206299787108,0.0014718207990196395,0.0,0.0,0.0,0.0,0.0,0.0,0.0,0.0,0.0,0.009465032606014882,-0.0026663160908080748,9.810711807176551,0.0,0.0,0.0,0.0,0.0,0.0,0.0,0.0,0.0
2025/05/25 17:33:32.622703718,1748187212,621888154,mA1/imu,0.5099831515243081,0.8601838758997175,0.00042614974625395334,0.0008385701329675006,0.0,0.0,0.0,0.0,0.0,0.0,0.0,0.0,0.0,-0.0014138909151045482,-0.0011534322905176597,0.0014311477061342349,0.0,0.0,0.0,0.0,0.0,0.0,0.0,0.0,0.0,0.009582881858531437,-0.07827757658813123,9.8106972747872,0.0,0.0,0.0,0.0,0.0,0.0,0.0,0.0,0.0
2025/05/25 17:33:32.674700089,1748187212,674466098,mA1/imu,0.510013241242488,0.8601660113866447,0.0004201280378889051,0.0008660859969881068,0.0,0.0,0.0,0.0,0.0,0.0,0.0,0.0,0.0,-0.0015593349568757138,-0.0009727920555594717,0.0013668701705808748,0.0,0.0,0.0,0.0,0.0,0.0,0.0,0.0,0.0,0.00407080895603729,-0.09317031020718426,9.810532279584079,0.0,0.0,0.0,0.0,0.0,0.0,0.0,0.0,0.0
2025/05/25 17:33:32.717666518,1748187212,716551965,mA1/imu,0.5100417559008559,0.8601490849257228,0.00041757262028277036,0.0008857607578401929,0.0,0.0,0.0,0.0,0.0,0.0,0.0,0.0,0.0,-0.000537697120108743,-0.0005275050127121787,0.0013164626978741513,0.0,0.0,0.0,0.0,0.0,0.0,0.0,0.0,0.0,-0.0007882677236160929,-0.020091243431988676,9.80773097767247,0.0,0.0,0.0,0.0,0.0,0.0,0.0,0.0,0.0
2025/05/25 17:33:32.769492881,1748187212,769353390,mA1/imu,0.5100698412275788,0.8601324154451867,0.0004261075117193779,0.0008963274454692852,0.0,0.0,0.0,0.0,0.0,0.0,0.0,0.0,0.0,-0.00048301357105761826,4.3604442766305626e-05,0.0012943049097808436,0.0,0.0,0.0,0.0,0.0,0.0,0.0,0.0,0.0,-0.002417825995837279,-0.0165245534081828,9.811911677607371,0.0,0.0,0.0,0.0,0.0,0.0,0.0,0.0,0.0
2025/05/25 17:33:32.819945799,1748187212,819804569,mA1/imu,0.5100972556746455,0.8601161533928117,0.00044047178953542977,0.000893538220416499,0.0,0.0,0.0,0.0,0.0,0.0,0.0,0.0,0.0,-0.00040274942063527654,0.0006118419552679705,0.0012640537056979853,0.0,0.0,0.0,0.0,0.0,0.0,0.0,0.0,0.0,-0.0019684657523253678,-0.015553590211987201,9.811534507856209,0.0,0.0,0.0,0.0,0.0,0.0,0.0,0.0,0.0
2025/05/25 17:33:32.871736005,1748187212,871339813,mA1/imu,0.5101245833402991,0.8600999523882702,0.0004600230381997701,0.0008773553363027613,0.0,0.0,0.0,0.0,0.0,0.0,0.0,0.0,0.0,-0.00030196229971220695,0.0012422661005205412,0.0013330730611532207,0.0,0.0,0.0,0.0,0.0,0.0,0.0,0.0,0.0,-0.017128412119168247,-0.016203143612933492,9.807367624569842,0.0,0.0,0.0,0.0,0.0,0.0,0.0,0.0,0.0
2025/05/25 17:33:32.922116260,1748187212,921650369,mA1/imu,0.510158078834887,0.8600801057367561,0.0004885718034323169,0.0008411973256286144,0.0,0.0,0.0,0.0,0.0,0.0,0.0,0.0,0.0,-0.00020622128492733447,0.002183796248455507,0.0017065281978575,0.0,0.0,0.0,0.0,0.0,0.0,0.0,0.0,0.0,-0.01603140308721393,-0.015031886949918997,9.807064422477614,0.0,0.0,0.0,0.0,0.0,0.0,0.0,0.0,0.0
2025/05/25 17:33:32.972756641,1748187212,972559343,mA1/imu,0.5101956035155616,0.8600578745704118,0.0005212294116684187,0.0007917466249527428,0.0,0.0,0.0,0.0,0.0,0.0,0.0,0.0,0.0,-5.238044166950837e-05,0.0025297796550354103,0.00183669741735167,0.0,0.0,0.0,0.0,0.0,0.0,0.0,0.0,0.0,-0.01494696750121028,-0.016311850687658596,9.812855944270014,0.0,0.0,0.0,0.0,0.0,0.0,0.0,0.0,0.0
2025/05/25 17:33:33.24364574,1748187213,24095366,mA1/imu,0.5102407409941494,0.8600311290675697,0.0005573448303515791,0.0007298158963157781,0.0,0.0,0.0,0.0,0.0,0.0,0.0,0.0,0.0,7.640110436441586e-05,0.003069014755773547,0.0022782639130096136,0.0,0.0,0.0,0.0,0.0,0.0,0.0,0.0,0.0,-0.013905177316753146,-0.015290030132916138,9.812554132574052,0.0,0.0,0.0,0.0,0.0,0.0,0.0,0.0,0.0
2025/05/25 17:33:33.70023431,1748187213,69183700,mA1/imu,0.5102906068938399,0.8600015732828942,0.0005914578987989015,0.0006638105282258033,0.0,0.0,0.0,0.0,0.0,0.0,0.0,0.0,0.0,0.00023999694634825995,0.0028706705199978617,0.00234977196127115,0.0,0.0,0.0,0.0,0.0,0.0,0.0,0.0,0.0,0.00495269714500885,-0.00815548034843704,9.808402182653289,0.0,0.0,0.0,0.0,0.0,0.0,0.0,0.0,0.0
2025/05/25 17:33:33.124887655,1748187213,123972869,mA1/imu,0.5103420012548938,0.8599711023276383,0.0006182134077311606,0.0006022696398397236,0.0,0.0,0.0,0.0,0.0,0.0,0.0,0.0,0.0,0.0003989738597875682,0.0024984839487149305,0.002419616062330329,0.0,0.0,0.0,0.0,0.0,0.0,0.0,0.0,0.0,0.0055410727309662695,-0.007811852710104691,9.808088918314805,0.0,0.0,0.0,0.0,0.0,0.0,0.0,0.0,0.0
2025/05/25 17:33:33.165442168,1748187213,165139646,mA1/imu,0.5103949033903336,0.8599397287692443,0.0006356636409844568,0.0005490074554145008,0.0,0.0,0.0,0.0,0.0,0.0,0.0,0.0,0.0,0.0005436544427226205,0.001960225051716771,0.0024896212199367585,0.0,0.0,0.0,0.0,0.0,0.0,0.0,0.0,0.0,0.00636715662885814,-0.008866241786748195,9.81224321588426,0.0,0.0,0.0,0.0,0.0,0.0,0.0,0.0,0.0
2025/05/25 17:33:33.216757356,1748187213,216612442,mA1/imu,0.5104492887375357,0.85990746804702,0.0006424988438658639,0.0005071681601295615,0.0,0.0,0.0,0.0,0.0,0.0,0.0,0.0,0.0,0.0006667702839733286,0.0013066325508242446,0.0025582617236667884,0.0,0.0,0.0,0.0,0.0,0.0,0.0,0.0,0.0,0.006703741783005231,-0.00845202587372546,9.811902249926689,0.0,0.0,0.0,0.0,0.0,0.0,0.0,0.0,0.0
2025/05/25 17:33:33.269259572,1748187213,268598141,mA1/imu,0.5105051256466536,0.8598743396482379,0.0006380591355438543,0.00047914876679275417,0.0,0.0,0.0,0.0,0.0,0.0,0.0,0.0,0.0,0.0007599865196747903,0.0005729965883611686,0.002624024813038969,0.0,0.0,0.0,0.0,0.0,0.0,0.0,0.0,0.0,0.007646637686461214,-0.006917272645133822,9.808490441716769,0.0,0.0,0.0,0.0,0.0,0.0,0.0,0.0,0.0
2025/05/25 17:33:33.319053914,1748187213,318907928,mA1/imu,0.5105623922672692,0.8598403565384647,0.000622374378187824,0.0004663906757806645,0.0,0.0,0.0,0.0,0.0,0.0,0.0,0.0,0.0,0.0008226046790025371,-0.00018849721038831762,0.0026895458532001765,0.0,0.0,0.0,0.0,0.0,0.0,0.0,0.0,0.0,0.00775317841404486,-0.006526468126781074,9.808145908152815,0.0,0.0,0.0,0.0,0.0,0.0,0.0,0.0,0.0
2025/05/25 17:33:33.371760593,1748187213,371423929,mA1/imu,0.5106210903982938,0.8598055169660281,0.0005958032641148324,0.0004690988265669552,0.0,0.0,0.0,0.0,0.0,0.0,0.0,0.0,0.0,0.0008899610847706091,-0.0009313848749939805,0.002756629740003357,0.0,0.0,0.0,0.0,0.0,0.0,0.0,0.0,0.0,0.007270854706391135,-0.00464516295887262,9.812096179567018,0.0,0.0,0.0,0.0,0.0,0.0,0.0,0.0,0.0
2025/05/25 17:33:33.415514985,1748187213,415416136,mA1/imu,0.5106812205861634,0.859769819091631,0.0005591119367149233,0.00048632665231853223,0.0,0.0,0.0,0.0,0.0,0.0,0.0,0.0,0.0,0.0008858556600472538,-0.0016082700409033323,0.0028233512078643308,0.0,0.0,0.0,0.0,0.0,0.0,0.0,0.0,0.0,0.007109639573114608,-0.004206503217033057,9.811819348828068,0.0,0.0,0.0,0.0,0.0,0.0,0.0,0.0,0.0
2025/05/25 17:33:33.468769019,1748187213,465777990,mA1/imu,0.5107427796731931,0.8597332602717027,0.0005159925740652192,0.0005176349604294952,0.0,0.0,0.0,0.0,0.0,0.0,0.0,0.0,0.0,0.0008135982965954855,-0.0021781597677489467,0.0028889913435643467,0.0,0.0,0.0,0.0,0.0,0.0,0.0,0.0,0.0,0.006780475116148274,-0.004582951618200647,9.808389076602793,0.0,0.0,0.0,0.0,0.0,0.0,0.0,0.0,0.0
2025/05/25 17:33:33.517748188,1748187213,517634588,mA1/imu,0.510805782307719,0.8596958294037247,0.00046833514737053695,0.0005606505425719536,0.0,0.0,0.0,0.0,0.0,0.0,0.0,0.0,0.0,0.0007218451911207243,-0.002619998688386485,0.002956001600486785,0.0,0.0,0.0,0.0,0.0,0.0,0.0,0.0,0.0,0.006703631717017804,-0.0049589486105386625,9.808020465262302,0.0,0.0,0.0,0.0,0.0,0.0,0.0,0.0,0.0
2025/05/25 17:33:33.571359743,1748187213,570194109,mA1/imu,0.5108702449414116,0.859657514659927,0.00041852201002270814,0.0006125043236616667,0.0,0.0,0.0,0.0,0.0,0.0,0.0,0.0,0.0,0.0006059403584685192,-0.002902926629620998,0.0030248251552780774,0.0,0.0,0.0,0.0,0.0,0.0,0.0,0.0,0.0,0.005529485130734176,-0.006314080704299922,9.812025348751217,0.0,0.0,0.0,0.0,0.0,0.0,0.0,0.0,0.0
2025/05/25 17:33:33.619817147,1748187213,617332693,mA1/imu,0.5109361776469383,0.8596183098229189,0.00036821590256929613,0.0006694817199640579,0.0,0.0,0.0,0.0,0.0,0.0,0.0,0.0,0.0,0.0006054380043754319,-0.003024054873067803,0.0030944732591557072,0.0,0.0,0.0,0.0,0.0,0.0,0.0,0.0,0.0,0.005492494894758566,-0.0430158606032175,9.811504391526663,0.0,0.0,0.0,0.0,0.0,0.0,0.0,0.0,0.0
2025/05/25 17:33:33.673006877,1748187213,666567903,mA1/imu,0.5110035605099169,0.8595782273490041,0.0003199691396568483,0.0007278966141871623,0.0,0.0,0.0,0.0,0.0,0.0,0.0,0.0,0.0,0.0003789636034047734,-0.0029579386822429004,0.0031620682818922015,0.0,0.0,0.0,0.0,0.0,0.0,0.0,0.0,0.0,0.005074787097667887,-0.0006425890771071686,9.808293837784587,0.0,0.0,0.0,0.0,0.0,0.0,0.0,0.0,0.0
2025/05/25 17:33:33.718162217,1748187213,717988409,mA1/imu,0.5110724510723119,0.8595372330363221,0.0002782976541435469,0.0007857032635356375,0.0,0.0,0.0,0.0,0.0,0.0,0.0,0.0,0.0,0.00015061900880252626,-0.0027432855690115174,0.003232614340454265,0.0,0.0,0.0,0.0,0.0,0.0,0.0,0.0,0.0,0.005199535945306719,0.007523780993390178,9.807982709093546,0.0,0.0,0.0,0.0,0.0,0.0,0.0,0.0,0.0
2025/05/25 17:33:33.771863523,1748187213,771467883,mA1/imu,0.5111428837875627,0.8594953116876382,0.00024261372724894984,0.0008382594366565806,0.0,0.0,0.0,0.0,0.0,0.0,0.0,0.0,0.0,0.00022228118973642789,-0.0023846490187441225,0.003306712586583596,0.0,0.0,0.0,0.0,0.0,0.0,0.0,0.0,0.0,0.0049926832113621,0.011971768560719563,9.81114381055595,0.0,0.0,0.0,0.0,0.0,0.0,0.0,0.0,0.0
2025/05/25 17:33:33.816139755,1748187213,815490276,mA1/imu,0.5112149065884071,0.859452435032358,0.00021837835502652318,0.000885160805153289,0.0,0.0,0.0,0.0,0.0,0.0,0.0,0.0,0.0,-0.00018789379055860516,-0.0019134838645608035,0.003381341023372628,0.0,0.0,0.0,0.0,0.0,0.0,0.0,0.0,0.0,0.004690395498744537,-0.005670699726705754,9.811520192707453,0.0,0.0,0.0,0.0,0.0,0.0,0.0,0.0,0.0
2025/05/25 17:33:33.867476365,1748187213,867367547,mA1/imu,0.5112884712066849,0.8594086372446219,0.00020427194481521284,0.0009228832241192865,0.0,0.0,0.0,0.0,0.0,0.0,0.0,0.0,0.0,-0.0003456710132746978,-0.0013663604390802815,0.003451597081245682,0.0,0.0,0.0,0.0,0.0,0.0,0.0,0.0,0.0,0.005855940597787463,-0.003964973926961693,9.808114853150448,0.0,0.0,0.0,0.0,0.0,0.0,0.0,0.0,0.0
2025/05/25 17:33:33.919983779,1748187213,919723649,mA1/imu,0.511363515106571,0.8593639582352847,0.0002003264585090497,0.0009500386022084941,0.0,0.0,0.0,0.0,0.0,0.0,0.0,0.0,0.0,-0.0004659971400301374,-0.0007772829736809423,0.003519868974881137,0.0,0.0,0.0,0.0,0.0,0.0,0.0,0.0,0.0,0.006197405234611019,-0.0021807435160376525,9.807826139912233,0.0,0.0,0.0,0.0,0.0,0.0,0.0,0.0,0.0
2025/05/25 17:33:33.973411059,1748187213,972817574,mA1/imu,0.5114400089331143,0.859318417337305,0.00020626678043522505,0.0009655782831668467,0.0,0.0,0.0,0.0,0.0,0.0,0.0,0.0,0.0,-0.0005671835457040392,-0.00017999619372018378,0.003585660231741763,0.0,0.0,0.0,0.0,0.0,0.0,0.0,0.0,0.0,0.007224214037533705,-0.002272884000127453,9.811916192942983,0.0,0.0,0.0,0.0,0.0,0.0,0.0,0.0,0.0
2025/05/25 17:33:34.26328006,1748187214,25102555,mA1/imu,0.5115177845514514,0.8592721159861784,0.00021959006718603107,0.0009687912122103735,0.0,0.0,0.0,0.0,0.0,0.0,0.0,0.0,0.0,-0.0005119097238502188,0.0003823696946675699,0.003646137692052087,0.0,0.0,0.0,0.0,0.0,0.0,0.0,0.0,0.0,0.008071403281869217,0.008178421601114648,9.81122130581272,0.0,0.0,0.0,0.0,0.0,0.0,0.0,0.0,0.0
2025/05/25 17:33:34.67246999,1748187214,66923837,mA1/imu,0.511596767764261,0.8592250908138472,0.00024637883388724897,0.0009642751509608826,0.0,0.0,0.0,0.0,0.0,0.0,0.0,0.0,0.0,0.00011595403117377368,0.0008841921471003762,0.0037018918782513355,0.0,0.0,0.0,0.0,0.0,0.0,0.0,0.0,0.0,0.009898176203124187,-0.5743095414038413,9.808216013994006,0.0,0.0,0.0,0.0,0.0,0.0,0.0,0.0,0.0
2025/05/25 17:33:34.117721746,1748187214,117639885,mA1/imu,0.5116766232556373,0.8591775464198957,0.0002785889445342643,0.0009483300039379596,0.0,0.0,0.0,0.0,0.0,0.0,0.0,0.0,0.0,-0.0013923032542196411,0.0013787552893702768,0.0037337849780518617,0.0,0.0,0.0,0.0,0.0,0.0,0.0,0.0,0.0,0.010156595146445268,-0.12750148620748764,9.810229019052052,0.0,0.0,0.0,0.0,0.0,0.0,0.0,0.0,0.0
2025/05/25 17:33:34.172638103,1748187214,172219528,mA1/imu,0.5117574132744358,0.8591294533540049,0.0003025386563694848,0.0009169561976719635,0.0,0.0,0.0,0.0,0.0,0.0,0.0,0.0,0.0,0.00023005265424614233,0.0017017620980517198,0.0037747422897516725,0.0,0.0,0.0,0.0,0.0,0.0,0.0,0.0,0.0,0.007802055695883428,0.07706776134700773,9.807395133730273,0.0,0.0,0.0,0.0,0.0,0.0,0.0,0.0,0.0
2025/05/25 17:33:34.214441007,1748187214,214271100,mA1/imu,0.5118388482752122,0.8590809457272072,0.0003527987422348236,0.0008930945072781131,0.0,0.0,0.0,0.0,0.0,0.0,0.0,0.0,0.0,-0.00010531618165227403,0.0018914820477249098,0.0038090317653657955,0.0,0.0,0.0,0.0,0.0,0.0,0.0,0.0,0.0,0.009362819851070275,-0.5494775927613449,9.812658945705667,0.0,0.0,0.0,0.0,0.0,0.0,0.0,0.0,0.0
2025/05/25 17:33:34.265477478,1748187214,265371283,mA1/imu,0.5119212167602418,0.859031893935453,0.00038283462741933884,0.0008523321124859664,0.0,0.0,0.0,0.0,0.0,0.0,0.0,0.0,0.0,-0.0005769379127147477,0.00222290686930824,0.003943719866889272,0.0,0.0,0.0,0.0,0.0,0.0,0.0,0.0,0.0,-0.0010864248863029,-0.004922752492580586,9.810641469334456,0.0,0.0,0.0,0.0,0.0,0.0,0.0,0.0,0.0
2025/05/25 17:33:34.321878601,1748187214,320887746,mA1/imu,0.5120058658898363,0.8589814625590705,0.00042206524593643664,0.0008137169086364038,0.0,0.0,0.0,0.0,0.0,0.0,0.0,0.0,0.0,0.0007185543935663481,0.001958975565117248,0.0038817101842758012,0.0,0.0,0.0,0.0,0.0,0.0,0.0,0.0,0.0,0.021735910998059577,0.08523708832556395,9.810374943825302,0.0,0.0,0.0,0.0,0.0,0.0,0.0,0.0,0.0
2025/05/25 17:33:34.375182271,1748187214,374301891,mA1/imu,0.5120870617623933,0.8589330659378281,0.00046134849274255443,0.0007852208412188835,0.0,0.0,0.0,0.0,0.0,0.0,0.0,0.0,0.0,-0.0006278458531524489,0.0015951603435854572,0.0037132840443663538,0.0,0.0,0.0,0.0,0.0,0.0,0.0,0.0,0.0,0.02171437345870814,-0.020211038914833335,9.815147903233521,0.0,0.0,0.0,0.0,0.0,0.0,0.0,0.0,0.0
2025/05/25 17:33:34.416339854,1748187214,415750483,mA1/imu,0.5121645587354305,0.8588868741584308,0.00047848300789361814,0.0007571180308774033,0.0,0.0,0.0,0.0,0.0,0.0,0.0,0.0,0.0,-0.0007879794905946913,0.0011814159681339373,0.0035433369915622106,0.0,0.0,0.0,0.0,0.0,0.0,0.0,0.0,0.0,0.01615921184675048,0.5932245512341117,9.807674089386849,0.0,0.0,0.0,0.0,0.0,0.0,0.0,0.0,0.0
2025/05/25 17:33:34.469611083,1748187214,469209402,mA1/imu,0.512238398796059,0.858842840678872,0.000495980159951358,0.0007428439783779212,0.0,0.0,0.0,0.0,0.0,0.0,0.0,0.0,0.0,0.0003301169414244008,0.0006302832972147184,0.00336692828073408,0.0,0.0,0.0,0.0,0.0,0.0,0.0,0.0,0.0,0.01878737319149141,0.033190847111900006,9.809296026793948,0.0,0.0,0.0,0.0,0.0,0.0,0.0,0.0,0.0
2025/05/25 17:33:34.519156608,1748187214,519007463,mA1/imu,0.512308420778638,0.8588010762929371,0.0005019594657564293,0.0007357948664710424,0.0,0.0,0.0,0.0,0.0,0.0,0.0,0.0,0.0,-0.0012849791103746136,0.00017314279449055783,0.003196581631840461,0.0,0.0,0.0,0.0,0.0,0.0,0.0,0.0,0.0,0.019602117782827704,0.5387657101257993,9.811550695204152,0.0,0.0,0.0,0.0,0.0,0.0,0.0,0.0,0.0
2025/05/25 17:33:34.573722537,1748187214,573536484,mA1/imu,0.512374425729535,0.8587616994243369,0.0004970824194147989,0.0007378138126057237,0.0,0.0,0.0,0.0,0.0,0.0,0.0,0.0,0.0,0.0008682665767836484,-0.00037010340897038755,0.003003354087477013,0.0,0.0,0.0,0.0,0.0,0.0,0.0,0.0,0.0,0.016372890258378944,0.05320137214533959,9.809619081648073,0.0,0.0,0.0,0.0,0.0,0.0,0.0,0.0,0.0
2025/05/25 17:33:34.623914679,1748187214,623451552,mA1/imu,0.5124365172130638,0.85872465013837,0.00048257600610631925,0.0007471222643710046,0.0,0.0,0.0,0.0,0.0,0.0,0.0,0.0,0.0,0.0013239742272290462,-0.0007892837810344058,0.002819569547129595,0.0,0.0,0.0,0.0,0.0,0.0,0.0,0.0,0.0,0.017347550973088568,0.07245007860507627,9.809096217408865,0.0,0.0,0.0,0.0,0.0,0.0,0.0,0.0,0.0
2025/05/25 17:33:34.665218118,1748187214,664731264,mA1/imu,0.5124944684998418,0.8586900596753684,0.0004646310488313299,0.0007650423291263152,0.0,0.0,0.0,0.0,0.0,0.0,0.0,0.0,0.0,0.0014536598129593098,-0.00111834938304359,0.002612658481506259,0.0,0.0,0.0,0.0,0.0,0.0,0.0,0.0,0.0,0.013488809415883447,0.0785535204559247,9.809799007047209,0.0,0.0,0.0,0.0,0.0,0.0,0.0,0.0,0.0
2025/05/25 17:33:34.717529098,1748187214,716994406,mA1/imu,0.5125481899782124,0.8586579838197732,0.00044397758437072636,0.0007890858791788545,0.0,0.0,0.0,0.0,0.0,0.0,0.0,0.0,0.0,0.000640105030343898,-0.0013442128347228536,0.002420902907624264,0.0,0.0,0.0,0.0,0.0,0.0,0.0,0.0,0.0,0.01428159281447189,0.009073446117298446,9.812239601690024,0.0,0.0,0.0,0.0,0.0,0.0,0.0,0.0,0.0
2025/05/25 17:33:34.769945476,1748187214,769612078,mA1/imu,0.5125979922464768,0.858628249076554,0.0004128619440668858,0.0008110349110623505,0.0,0.0,0.0,0.0,0.0,0.0,0.0,0.0,0.0,0.000616487137458823,-0.0014175240664586791,0.002243864789074888,0.0,0.0,0.0,0.0,0.0,0.0,0.0,0.0,0.0,0.013161768224386935,0.0017379946424765993,9.813271645882576,0.0,0.0,0.0,0.0,0.0,0.0,0.0,0.0,0.0
2025/05/25 17:33:34.823763626,1748187214,823336943,mA1/imu,0.5126437274972945,0.8586009305795884,0.00038749536635290793,0.0008369664781002397,0.0,0.0,0.0,0.0,0.0,0.0,0.0,0.0,0.0,-0.0007980082258500404,-0.0013914475731435204,0.0020623583106919178,0.0,0.0,0.0,0.0,0.0,0.0,0.0,0.0,0.0,0.012499508536857586,0.5091192523470099,9.80983591232359,0.0,0.0,0.0,0.0,0.0,0.0,0.0,0.0,0.0
2025/05/25 17:33:34.865280244,1748187214,864952311,mA1/imu,0.5126875525146066,0.8585747626807996,0.0003515185495033326,0.0008525367441663648,0.0,0.0,0.0,0.0,0.0,0.0,0.0,0.0,0.0,0.0008957122502522015,-0.0011468766375909427,0.0020290360495394543,0.0,0.0,0.0,0.0,0.0,0.0,0.0,0.0,0.0,0.009066998497849728,0.0175523351123823,9.808721602098815,0.0,0.0,0.0,0.0,0.0,0.0,0.0,0.0,0.0
2025/05/25 17:33:34.915098175,1748187214,914856679,mA1/imu,0.5127305061066944,0.8585491102994157,0.0003232256071389659,0.0008653536051261904,0.0,0.0,0.0,0.0,0.0,0.0,0.0,0.0,0.0,0.0005688066549551053,-0.0009314194479086486,0.0019795887736467938,0.0,0.0,0.0,0.0,0.0,0.0,0.0,0.0,0.0,0.011021899720331067,0.4425852345065093,9.809851467173493,0.0,0.0,0.0,0.0,0.0,0.0,0.0,0.0,0.0
2025/05/25 17:33:34.967363498,1748187214,967257818,mA1/imu,0.5127729844398775,0.8585237409846195,0.000297506727374734,0.0008741190664870665,0.0,0.0,0.0,0.0,0.0,0.0,0.0,0.0,0.0,0.0014670653101697606,-0.0007667354577145135,0.002003322808213816,0.0,0.0,0.0,0.0,0.0,0.0,0.0,0.0,0.0,0.011921937645972457,0.05765312303305207,9.8086635329819,0.0,0.0,0.0,0.0,0.0,0.0,0.0,0.0,0.0
2025/05/25 17:33:35.18602802,1748187215,18103203,mA1/imu,0.5128158409231,0.8584981461280672,0.00027434719857265087,0.0008781381555881328,0.0,0.0,0.0,0.0,0.0,0.0,0.0,0.0,0.0,0.001189798036547654,-0.0005243911327176035,0.001973732615693898,0.0,0.0,0.0,0.0,0.0,0.0,0.0,0.0,0.0,0.01281771449014704,0.030114805010682064,9.810347015482543,0.0,0.0,0.0,0.0,0.0,0.0,0.0,0.0,0.0
2025/05/25 17:33:35.69597699,1748187215,69449307,mA1/imu,0.5128575967784907,0.8584732134192874,0.00025074075092659256,0.0008742981353940971,0.0,0.0,0.0,0.0,0.0,0.0,0.0,0.0,0.0,0.0011547434445450544,-0.00021317831217435975,0.0019405053317686435,0.0,0.0,0.0,0.0,0.0,0.0,0.0,0.0,0.0,0.005946596163378665,0.036057857775841175,9.810703684931125,0.0,0.0,0.0,0.0,0.0,0.0,0.0,0.0,0.0
2025/05/25 17:33:35.120286356,1748187215,120088520,mA1/imu,0.5128997562348416,0.8584480399361742,0.00023586681601079414,0.0008643788669190892,0.0,0.0,0.0,0.0,0.0,0.0,0.0,0.0,0.0,0.002239059368535988,0.00015036973730570024,0.001954597735875221,0.0,0.0,0.0,0.0,0.0,0.0,0.0,0.0,0.0,0.013129290955063256,-0.5069078776942886,9.807869260716013,0.0,0.0,0.0,0.0,0.0,0.0,0.0,0.0,0.0
2025/05/25 17:33:35.172271079,1748187215,172160144,mA1/imu,0.5129412218581775,0.8584232762877348,0.00023114081008157594,0.0008533580707351348,0.0,0.0,0.0,0.0,0.0,0.0,0.0,0.0,0.0,0.0014889260033085236,0.0003271460005377397,0.001930494699090531,0.0,0.0,0.0,0.0,0.0,0.0,0.0,0.0,0.0,0.01677621137724563,-0.5588954813902398,9.808664236763788,0.0,0.0,0.0,0.0,0.0,0.0,0.0,0.0,0.0
2025/05/25 17:33:35.225964533,1748187215,225688609,mA1/imu,0.5129822963576472,0.8583987468344841,0.00022741409811192516,0.0008386533552741251,0.0,0.0,0.0,0.0,0.0,0.0,0.0,0.0,0.0,0.00012589767077287301,0.0005050854613750021,0.0018937709730930984,0.0,0.0,0.0,0.0,0.0,0.0,0.0,0.0,0.0,0.013964791259817828,-0.01705523529055257,9.809272709846997,0.0,0.0,0.0,0.0,0.0,0.0,0.0,0.0,0.0
2025/05/25 17:33:35.269056541,1748187215,268860532,mA1/imu,0.5130239570179191,0.8583738661124293,0.00023173102531116136,0.0008196350465593071,0.0,0.0,0.0,0.0,0.0,0.0,0.0,0.0,0.0,-0.00048557293343717427,0.0009449954118844119,0.0020069350723508437,0.0,0.0,0.0,0.0,0.0,0.0,0.0,0.0,0.0,0.011812863471562874,-0.05043050003533726,9.809725897413335,0.0,0.0,0.0,0.0,0.0,0.0,0.0,0.0,0.0
2025/05/25 17:33:35.319778898,1748187215,319487405,mA1/imu,0.5130667508243757,0.858348310258201,0.00023856236433918339,0.0007940802273825411,0.0,0.0,0.0,0.0,0.0,0.0,0.0,0.0,0.0,-0.0005715165318862099,0.0010596512122299294,0.001976161904833688,0.0,0.0,0.0,0.0,0.0,0.0,0.0,0.0,0.0,0.014482647198362095,0.17082594989081362,9.810042233541573,0.0,0.0,0.0,0.0,0.0,0.0,0.0,0.0,0.0
2025/05/25 17:33:35.372482877,1748187215,372120866,mA1/imu,0.5131086683707204,0.8583232690786642,0.0002538165663705414,0.0007718666282011451,0.0,0.0,0.0,0.0,0.0,0.0,0.0,0.0,0.0,-1.3210844995551737e-05,0.0010947816518904945,0.001947810110351558,0.0,0.0,0.0,0.0,0.0,0.0,0.0,0.0,0.0,0.012005276424842762,0.007609365493519845,9.809919911864615,0.0,0.0,0.0,0.0,0.0,0.0,0.0,0.0,0.0
2025/05/25 17:33:35.422400560,1748187215,422196922,mA1/imu,0.5131502914205771,0.8582983980153279,0.0002730136336617326,0.0007508947024990821,0.0,0.0,0.0,0.0,0.0,0.0,0.0,0.0,0.0,0.00043944283035717957,0.0010899092812988028,0.001926256857524247,0.0,0.0,0.0,0.0,0.0,0.0,0.0,0.0,0.0,0.014913648976056685,-0.5780366040054755,9.809909093452022,0.0,0.0,0.0,0.0,0.0,0.0,0.0,0.0,0.0
2025/05/25 17:33:35.464730905,1748187215,464604099,mA1/imu,0.5131903276560766,0.8582744679035544,0.0002956512176670222,0.0007334408474320885,0.0,0.0,0.0,0.0,0.0,0.0,0.0,0.0,0.0,0.000252621208138479,0.0010278223058899849,0.0017964167057926094,0.0,0.0,0.0,0.0,0.0,0.0,0.0,0.0,0.0,0.015281620963288408,-0.5823650760207303,9.809779905764577,0.0,0.0,0.0,0.0,0.0,0.0,0.0,0.0,0.0
2025/05/25 17:33:35.514682623,1748187215,514528379,mA1/imu,0.51322763191077,0.8582521655402677,0.0003180000892883004,0.0007190720737342474,0.0,0.0,0.0,0.0,0.0,0.0,0.0,0.0,0.0,-0.00015620962660073368,0.0009004004460432026,0.0017215551841742857,0.0,0.0,0.0,0.0,0.0,0.0,0.0,0.0,0.0,0.014270553712292139,-0.4780292178976673,9.80898253070741,0.0,0.0,0.0,0.0,0.0,0.0,0.0,0.0,0.0
2025/05/25 17:33:35.567821536,1748187215,567538120,mA1/imu,0.5132639812194925,0.8582304229121284,0.00034579101934389717,0.0007121793009353948,0.0,0.0,0.0,0.0,0.0,0.0,0.0,0.0,0.0,-0.0013253986128362544,0.0007305524553425579,0.001677387716366481,0.0,0.0,0.0,0.0,0.0,0.0,0.0,0.0,0.0,0.015176095023308902,-0.039719346887285005,9.810432313535163,0.0,0.0,0.0,0.0,0.0,0.0,0.0,0.0,0.0
2025/05/25 17:33:35.620406754,1748187215,620208410,mA1/imu,0.5132993932172993,0.8582092345792501,0.00037196527864583496,0.0007101038525727162,0.0,0.0,0.0,0.0,0.0,0.0,0.0,0.0,0.0,-0.0013143325175262411,0.0005179253948806156,0.0016342172465089574,0.0,0.0,0.0,0.0,0.0,0.0,0.0,0.0,0.0,0.014959804855786452,-0.13709415559571336,9.810522409400942,0.0,0.0,0.0,0.0,0.0,0.0,0.0,0.0,0.0
2025/05/25 17:33:35.672912565,1748187215,672744433,mA1/imu,0.5133338965792741,0.85818858757247,0.0003917389950052841,0.0007108612155653056,0.0,0.0,0.0,0.0,0.0,0.0,0.0,0.0,0.0,-0.000726000807101567,0.00028581023481561433,0.0015920047257025596,0.0,0.0,0.0,0.0,0.0,0.0,0.0,0.0,0.0,0.014848203613028013,-0.2645517126661731,9.810036257138677,0.0,0.0,0.0,0.0,0.0,0.0,0.0,0.0,0.0
2025/05/25 17:33:35.725107370,1748187215,724985893,mA1/imu,0.5133674854869724,0.8581684788168911,0.0004124249775008372,0.0007188292731282562,0.0,0.0,0.0,0.0,0.0,0.0,0.0,0.0,0.0,-0.0008882734754970399,5.319855450889636e-05,0.0015496778878954752,0.0,0.0,0.0,0.0,0.0,0.0,0.0,0.0,0.0,0.014386115817958683,-0.6304983394423238,9.810422806833415,0.0,0.0,0.0,0.0,0.0,0.0,0.0,0.0,0.0
2025/05/25 17:33:35.766127212,1748187215,766039430,mA1/imu,0.5134002606197104,0.8581488590464428,0.0004229219131147274,0.0007274956751434428,0.0,0.0,0.0,0.0,0.0,0.0,0.0,0.0,0.0,0.00024204116990609743,-0.0001625807849074495,0.001523341974951609,0.0,0.0,0.0,0.0,0.0,0.0,0.0,0.0,0.0,0.011276315911161442,-0.5577969518964004,9.810263010586565,0.0,0.0,0.0,0.0,0.0,0.0,0.0,0.0,0.0
2025/05/25 17:33:35.817944282,1748187215,817012684,mA1/imu,0.51343280102451,0.8581293746304982,0.00043193214844620487,0.000740717905088097,0.0,0.0,0.0,0.0,0.0,0.0,0.0,0.0,0.0,-0.000318667743456782,-0.0003572155447281776,0.0015030555131082472,0.0,0.0,0.0,0.0,0.0,0.0,0.0,0.0,0.0,0.014734192827955808,0.19740070691437756,9.811799355485729,0.0,0.0,0.0,0.0,0.0,0.0,0.0,0.0,0.0
2025/05/25 17:33:35.868333846,1748187215,868043487,mA1/imu,0.513464781096143,0.858110214311068,0.0004441488932509105,0.0007624963366791035,0.0,0.0,0.0,0.0,0.0,0.0,0.0,0.0,0.0,-0.0016408558572532327,-0.0005967056079887427,0.0014912346160590078,0.0,0.0,0.0,0.0,0.0,0.0,0.0,0.0,0.0,0.015983207662886148,0.5045477630728082,9.810703507909803,0.0,0.0,0.0,0.0,0.0,0.0,0.0,0.0,0.0
2025/05/25 17:33:35.919787231,1748187215,919159098,mA1/imu,0.5134964290552392,0.858091258479836,0.00044358670826463736,0.000782750816771988,0.0,0.0,0.0,0.0,0.0,0.0,0.0,0.0,0.0,-0.0006036014057926565,-0.0007757991865133503,0.0014622594323323603,0.0,0.0,0.0,0.0,0.0,0.0,0.0,0.0,0.0,0.0147825736234957,-0.011901142955293537,9.81054356412239,0.0,0.0,0.0,0.0,0.0,0.0,0.0,0.0,0.0
2025/05/25 17:33:35.973573625,1748187215,973284860,mA1/imu,0.5135274441353147,0.8580726824595681,0.000436480638099432,0.0008032565872657536,0.0,0.0,0.0,0.0,0.0,0.0,0.0,0.0,0.0,0.00018641465026271648,-0.0008790603915689363,0.0014419866334619538,0.0,0.0,0.0,0.0,0.0,0.0,0.0,0.0,0.0,0.011604835406370227,0.03196457342625954,9.809622630114808,0.0,0.0,0.0,0.0,0.0,0.0,0.0,0.0,0.0
2025/05/25 17:33:36.17239874,1748187216,15821372,mA1/imu,0.5135586262629785,0.8580540083341187,0.0004248110497183888,0.0008220147241916039,0.0,0.0,0.0,0.0,0.0,0.0,0.0,0.0,0.0,0.000373661097588381,-0.0009008919235705217,0.0014484613581067641,0.0,0.0,0.0,0.0,0.0,0.0,0.0,0.0,0.0,0.014306237091570225,0.032584037778899,9.810569131641117,0.0,0.0,0.0,0.0,0.0,0.0,0.0,0.0,0.0
2025/05/25 17:33:36.67149981,1748187216,66862037,mA1/imu,0.5135891864533324,0.8580357057926541,0.00041093116692618974,0.0008404038803127307,0.0,0.0,0.0,0.0,0.0,0.0,0.0,0.0,0.0,0.0013020002678183666,-0.0009061932484986184,0.0013879838453722858,0.0,0.0,0.0,0.0,0.0,0.0,0.0,0.0,0.0,0.010802212960408194,0.08502467781248003,9.808219444490721,0.0,0.0,0.0,0.0,0.0,0.0,0.0,0.0,0.0
2025/05/25 17:33:36.116892357,1748187216,116717391,mA1/imu,0.5136169949807728,0.8580190498225726,0.0003974817579390377,0.0008570978606413814,0.0,0.0,0.0,0.0,0.0,0.0,0.0,0.0,0.0,0.001126880564288504,-0.0008269117594199871,0.0012639002162015147,0.0,0.0,0.0,0.0,0.0,0.0,0.0,0.0,0.0,0.01313043386035941,0.062144123272990966,9.81026036634747,0.0,0.0,0.0,0.0,0.0,0.0,0.0,0.0,0.0
2025/05/25 17:33:36.167878577,1748187216,167652967,mA1/imu,0.5136452576908616,0.8580021264919706,0.00038389117046300393,0.000867648842565979,0.0,0.0,0.0,0.0,0.0,0.0,0.0,0.0,0.0,0.0003657801853667373,-0.00043135739541413096,0.0014143893695646378,0.0,0.0,0.0,0.0,0.0,0.0,0.0,0.0,0.0,-0.001749175635394314,-6.848545555192091e-05,9.81019172159921,0.0,0.0,0.0,0.0,0.0,0.0,0.0,0.0,0.0
2025/05/25 17:33:36.217873683,1748187216,217678491,mA1/imu,0.5136764963251694,0.8579834303962792,0.0003706292235480517,0.0008677110751381627,0.0,0.0,0.0,0.0,0.0,0.0,0.0,0.0,0.0,0.0003844903540281646,-0.00023829821206007944,0.001443239794522162,0.0,0.0,0.0,0.0,0.0,0.0,0.0,0.0,0.0,0.013798954532350239,-0.010713742012519883,9.809717801564037,0.0,0.0,0.0,0.0,0.0,0.0,0.0,0.0,0.0
2025/05/25 17:33:36.268927944,1748187216,268726292,mA1/imu,0.513707056160851,0.8579651444703249,0.0003551204562300169,0.0008632577995976882,0.0,0.0,0.0,0.0,0.0,0.0,0.0,0.0,0.0,-0.0005091868037059091,-0.00011305299244458581,0.0014112134865799624,0.0,0.0,0.0,0.0,0.0,0.0,0.0,0.0,0.0,0.013833660720366212,0.4599137222666667,9.810541003369751,0.0,0.0,0.0,0.0,0.0,0.0,0.0,0.0,0.0
2025/05/25 17:33:36.318964042,1748187216,318775365,mA1/imu,0.513736946873207,0.8579472720980988,0.0003288302569597988,0.0008482850277643391,0.0,0.0,0.0,0.0,0.0,0.0,0.0,0.0,0.0,0.0007335221171680558,4.0204720459815e-05,0.0013798270524803327,0.0,0.0,0.0,0.0,0.0,0.0,0.0,0.0,0.0,0.012919342034960549,0.10484316473858418,9.808017102487034,0.0,0.0,0.0,0.0,0.0,0.0,0.0,0.0,0.0
2025/05/25 17:33:36.371240449,1748187216,370986374,mA1/imu,0.5137665575103029,0.8579295597928819,0.00031317501194094504,0.0008347089412117656,0.0,0.0,0.0,0.0,0.0,0.0,0.0,0.0,0.0,0.0011423792718985536,0.00023263469393066291,0.0013944823286607558,0.0,0.0,0.0,0.0,0.0,0.0,0.0,0.0,0.0,0.010184286789155299,0.021144849538668797,9.808258356726014,0.0,0.0,0.0,0.0,0.0,0.0,0.0,0.0,0.0
2025/05/25 17:33:36.420957610,1748187216,420770008,mA1/imu,0.5137964316803916,0.8579116936571066,0.0002964477317598179,0.0008153512335896534,0.0,0.0,0.0,0.0,0.0,0.0,0.0,0.0,0.0,0.0028599001961127873,0.00035086534743117406,0.0013809483960181535,0.0,0.0,0.0,0.0,0.0,0.0,0.0,0.0,0.0,0.013479750313702634,-0.4927672114261393,9.80851152376187,0.0,0.0,0.0,0.0,0.0,0.0,0.0,0.0,0.0
2025/05/25 17:33:36.472258203,1748187216,471980029,mA1/imu,0.513825694469775,0.8578941865579431,0.0002889207288958528,0.0007980586137436135,0.0,0.0,0.0,0.0,0.0,0.0,0.0,0.0,0.0,0.00014477468241438275,0.00046958547919808953,0.0013529230233358235,0.0,0.0,0.0,0.0,0.0,0.0,0.0,0.0,0.0,0.013771728548950563,-0.04869537756109321,9.810696607168682,0.0,0.0,0.0,0.0,0.0,0.0,0.0,0.0,0.0
2025/05/25 17:33:36.522923571,1748187216,522741206,mA1/imu,0.5138543901893687,0.8578770295718701,0.0002696931423274408,0.0007714153653369712,0.0,0.0,0.0,0.0,0.0,0.0,0.0,0.0,0.0,-0.00017972275544999368,0.0005563712674841615,0.001326225565162518,0.0,0.0,0.0,0.0,0.0,0.0,0.0,0.0,0.0,0.0134980051096971,0.5611401010881157,9.8102517051468,0.0,0.0,0.0,0.0,0.0,0.0,0.0,0.0,0.0
2025/05/25 17:33:36.574971933,1748187216,574184267,mA1/imu,0.5138825138699338,0.8578602113659168,0.0002534293243509,0.0007452969336722633,0.0,0.0,0.0,0.0,0.0,0.0,0.0,0.0,0.0,0.0010452401747168079,0.0005801958463679762,0.001299921721145583,0.0,0.0,0.0,0.0,0.0,0.0,0.0,0.0,0.0,0.01297703779945259,0.6532604586031695,9.811654145480938,0.0,0.0,0.0,0.0,0.0,0.0,0.0,0.0,0.0
2025/05/25 17:33:36.614327202,1748187216,614036080,mA1/imu,0.5139100655707278,0.8578437237353692,0.0002506579280934976,0.0007261704542920826,0.0,0.0,0.0,0.0,0.0,0.0,0.0,0.0,0.0,-0.00022705533648900372,0.0006042646762150996,0.0012744902644954976,0.0,0.0,0.0,0.0,0.0,0.0,0.0,0.0,0.0,0.013519413146070318,0.5719177517840879,9.809944930478563,0.0,0.0,0.0,0.0,0.0,0.0,0.0,0.0,0.0
2025/05/25 17:33:36.665278564,1748187216,665066842,mA1/imu,0.5139366742511173,0.8578278025904813,0.00024424859659779186,0.0007044892548927291,0.0,0.0,0.0,0.0,0.0,0.0,0.0,0.0,0.0,0.00022818989104087976,0.0006418916843701843,0.0011991464075256435,0.0,0.0,0.0,0.0,0.0,0.0,0.0,0.0,0.0,0.009950509698889835,-0.019210464106364497,9.811613443796805,0.0,0.0,0.0,0.0,0.0,0.0,0.0,0.0,0.0
2025/05/25 17:33:36.715110219,1748187216,714938033,mA1/imu,0.5139615667714694,0.8578129112076294,0.00023460038527155246,0.0006798602558490997,0.0,0.0,0.0,0.0,0.0,0.0,0.0,0.0,0.0,0.0012717939899270236,0.0006283688837091743,0.001146330698266937,0.0,0.0,0.0,0.0,0.0,0.0,0.0,0.0,0.0,0.013177881547992628,0.06746253946123934,9.811208198678129,0.0,0.0,0.0,0.0,0.0,0.0,0.0,0.0,0.0
2025/05/25 17:33:36.767792421,1748187216,767450748,mA1/imu,0.5139857166886658,0.8577984544369275,0.00023495369542348438,0.0006628743605633239,0.0,0.0,0.0,0.0,0.0,0.0,0.0,0.0,0.0,0.0014676601861547903,0.0005542475406404356,0.0011127306404805628,0.0,0.0,0.0,0.0,0.0,0.0,0.0,0.0,0.0,0.012307491760615866,0.09770533983503621,9.809521596429706,0.0,0.0,0.0,0.0,0.0,0.0,0.0,0.0,0.0
2025/05/25 17:33:36.818622889,1748187216,818432189,mA1/imu,0.5140091466587795,0.8577844245909946,0.00023727485943500774,0.0006494465725939197,0.0,0.0,0.0,0.0,0.0,0.0,0.0,0.0,0.0,0.0012394429493186518,0.0004650350286590575,0.001079298243042623,0.0,0.0,0.0,0.0,0.0,0.0,0.0,0.0,0.0,0.012947194900775328,0.09019279670177355,9.811050146105101,0.0,0.0,0.0,0.0,0.0,0.0,0.0,0.0,0.0
2025/05/25 17:33:36.871728464,1748187216,870599686,mA1/imu,0.5140315415870411,0.8577710043738442,0.00024883368194981016,0.0006452836083811083,0.0,0.0,0.0,0.0,0.0,0.0,0.0,0.0,0.0,0.0007283696658495086,0.00028975590434235154,0.0010084942406754797,0.0,0.0,0.0,0.0,0.0,0.0,0.0,0.0,0.0,0.01430765401497073,-0.16629969780700485,9.810240546869137,0.0,0.0,0.0,0.0,0.0,0.0,0.0,0.0,0.0
2025/05/25 17:33:36.922651904,1748187216,922327154,mA1/imu,0.5140517798235218,0.8577588734284745,0.00025811668661116194,0.000645050974678645,0.0,0.0,0.0,0.0,0.0,0.0,0.0,0.0,0.0,-0.0001931746065496194,0.00012371672276761017,0.0009031049679007467,0.0,0.0,0.0,0.0,0.0,0.0,0.0,0.0,0.0,0.014564437571150526,-0.48870655008867486,9.809319070210329,0.0,0.0,0.0,0.0,0.0,0.0,0.0,0.0,0.0
2025/05/25 17:33:36.973670848,1748187216,973427804,mA1/imu,0.5140704764484647,0.8577476674560238,0.0002612527085367033,0.0006449533480852255,0.0,0.0,0.0,0.0,0.0,0.0,0.0,0.0,0.0,0.0001713785320217224,1.6230446565259223e-05,0.000842613918295871,0.0,0.0,0.0,0.0,0.0,0.0,0.0,0.0,0.0,0.011886179580033882,-0.544310610844074,9.809990402517252,0.0,0.0,0.0,0.0,0.0,0.0,0.0,0.0,0.0
2025/05/25 17:33:37.23629174,1748187217,23287402,mA1/imu,0.5140882161174395,0.8577370252192429,0.0002730753245594881,0.0006534884081630412,0.0,0.0,0.0,0.0,0.0,0.0,0.0,0.0,0.0,-0.0008387569531880394,-8.552260138433695e-05,0.00082024921819239,0.0,0.0,0.0,0.0,0.0,0.0,0.0,0.0,0.0,0.011229368273997831,0.1765813963963823,9.810699679069817,0.0,0.0,0.0,0.0,0.0,0.0,0.0,0.0,0.0
2025/05/25 17:33:37.75956059,1748187217,74272961,mA1/imu,0.5141059823588744,0.857726365287118,0.00028507667705437247,0.000663268764896202,0.0,0.0,0.0,0.0,0.0,0.0,0.0,0.0,0.0,-0.00030957265971825153,-6.97723649316282e-05,0.0008542776483089513,0.0,0.0,0.0,0.0,0.0,0.0,0.0,0.0,0.0,0.006849062787692057,-0.5948285892765072,9.809383619258819,0.0,0.0,0.0,0.0,0.0,0.0,0.0,0.0,0.0
2025/05/25 17:33:37.114402554,1748187217,114034293,mA1/imu,0.5141245220719857,0.8577152424012149,0.00029541370347271347,0.0006719282857596284,0.0,0.0,0.0,0.0,0.0,0.0,0.0,0.0,0.0,-0.0001946004934700897,-0.00010689617918559686,0.0008578006709130995,0.0,0.0,0.0,0.0,0.0,0.0,0.0,0.0,0.0,0.010897068258029689,0.04934169896067512,9.809675800580449,0.0,0.0,0.0,0.0,0.0,0.0,0.0,0.0,0.0
2025/05/25 17:33:37.166200788,1748187217,165954048,mA1/imu,0.514142679637294,0.8577043420080237,0.0003115077468600825,0.0006853020426865579,0.0,0.0,0.0,0.0,0.0,0.0,0.0,0.0,0.0,-0.0011268518746368917,-0.00014299169688006044,0.000840565053691365,0.0,0.0,0.0,0.0,0.0,0.0,0.0,0.0,0.0,0.01039624570174289,0.41366124499104434,9.811373572030929,0.0,0.0,0.0,0.0,0.0,0.0,0.0,0.0,0.0
2025/05/25 17:33:37.216845713,1748187217,215904990,mA1/imu,0.5141604735227211,0.8576936624143812,0.0003223030865894198,0.0006964494362153848,0.0,0.0,0.0,0.0,0.0,0.0,0.0,0.0,0.0,0.0006966579928497645,-0.00017901930752528195,0.0008234226412589503,0.0,0.0,0.0,0.0,0.0,0.0,0.0,0.0,0.0,0.010355188626096317,-0.2915424827004643,9.810172361062298,0.0,0.0,0.0,0.0,0.0,0.0,0.0,0.0,0.0
2025/05/25 17:33:37.272813458,1748187217,265625889,mA1/imu,0.5141782387181155,0.8576829874349976,0.00034773990495029364,0.0007148218468448216,0.0,0.0,0.0,0.0,0.0,0.0,0.0,0.0,0.0,-0.0015906803959249256,-2.3932747209875243e-05,0.0008482704735590592,0.0,0.0,0.0,0.0,0.0,0.0,0.0,0.0,0.0,0.0011125427644254286,-0.048467633640021685,9.809000555991032,0.0,0.0,0.0,0.0,0.0,0.0,0.0,0.0,0.0
2025/05/25 17:33:37.316904624,1748187217,316766345,mA1/imu,0.5141965200391698,0.857672016879561,0.0003599713975859269,0.0007215690865864468,0.0,0.0,0.0,0.0,0.0,0.0,0.0,0.0,0.0,-0.0013839852071405232,1.4710394219777614e-05,0.0008456637628627361,0.0,0.0,0.0,0.0,0.0,0.0,0.0,0.0,0.0,0.010403229090563827,-0.03380456463790998,9.810342318656698,0.0,0.0,0.0,0.0,0.0,0.0,0.0,0.0,0.0
2025/05/25 17:33:37.371719664,1748187217,371036535,mA1/imu,0.5142144758024251,0.8576612428190461,0.0003695115408779208,0.0007272568648783491,0.0,0.0,0.0,0.0,0.0,0.0,0.0,0.0,0.0,-0.0008370759847861857,1.1617344630582692e-05,0.0008428150182045322,0.0,0.0,0.0,0.0,0.0,0.0,0.0,0.0,0.0,0.007161705642353169,-0.005549232891327345,9.810217757412403,0.0,0.0,0.0,0.0,0.0,0.0,0.0,0.0,0.0
2025/05/25 17:33:37.421838837,1748187217,421607109,mA1/imu,0.5142327831148492,0.8576502590989161,0.00037771444565254495,0.0007315526748628539,0.0,0.0,0.0,0.0,0.0,0.0,0.0,0.0,0.0,-0.00041810533345235286,1.2309747871907253e-05,0.0008499559110561268,0.0,0.0,0.0,0.0,0.0,0.0,0.0,0.0,0.0,0.01076245163434104,0.4434164918560321,9.811547577757212,0.0,0.0,0.0,0.0,0.0,0.0,0.0,0.0,0.0
2025/05/25 17:33:37.474646527,1748187217,474158841,mA1/imu,0.5142503663547557,0.857639707473202,0.00038577045258762375,0.0007375977481910882,0.0,0.0,0.0,0.0,0.0,0.0,0.0,0.0,0.0,0.0004260759138169609,-0.00010121665291257858,0.0007848332831517993,0.0,0.0,0.0,0.0,0.0,0.0,0.0,0.0,0.0,0.013132021165759374,0.06680985364792716,9.809694998710404,0.0,0.0,0.0,0.0,0.0,0.0,0.0,0.0,0.0
2025/05/25 17:33:37.515200177,1748187217,514758428,mA1/imu,0.5142666130413901,0.8576299540010921,0.00039446952325408567,0.0007463945453685778,0.0,0.0,0.0,0.0,0.0,0.0,0.0,0.0,0.0,-0.0003512588025292363,-0.00013048852683426355,0.0007510353290994345,0.0,0.0,0.0,0.0,0.0,0.0,0.0,0.0,0.0,0.010241423837916062,-0.0005182615771904368,9.807967207039212,0.0,0.0,0.0,0.0,0.0,0.0,0.0,0.0,0.0
2025/05/25 17:33:37.566686485,1748187217,566311444,mA1/imu,0.5142824951152363,0.8576204215371879,0.00040002122609295813,0.0007535007908488003,0.0,0.0,0.0,0.0,0.0,0.0,0.0,0.0,0.0,-0.0003064499663372377,-0.00013837999500718556,0.0007346282192642615,0.0,0.0,0.0,0.0,0.0,0.0,0.0,0.0,0.0,0.010673065389555732,-0.6398839614493623,9.809415164705994,0.0,0.0,0.0,0.0,0.0,0.0,0.0,0.0,0.0
2025/05/25 17:33:37.619454736,1748187217,619061507,mA1/imu,0.5142980549368662,0.8576110947251944,0.00039246188120547896,0.0007529050947119445,0.0,0.0,0.0,0.0,0.0,0.0,0.0,0.0,0.0,-0.00217205738396075,-0.0001149196780290903,0.0007190909566159024,0.0,0.0,0.0,0.0,0.0,0.0,0.0,0.0,0.0,0.009994398555321162,0.4767434102636067,9.810003885612243,0.0,0.0,0.0,0.0,0.0,0.0,0.0,0.0,0.0
2025/05/25 17:33:37.671944327,1748187217,671715564,mA1/imu,0.5143132979456168,0.8576019608627934,0.0003813296443400435,0.0007502454914129353,0.0,0.0,0.0,0.0,0.0,0.0,0.0,0.0,0.0,8.382825541181313e-05,-0.00012461116518517598,0.0007045551628297722,0.0,0.0,0.0,0.0,0.0,0.0,0.0,0.0,0.0,0.009847278999616908,-0.004061641291605186,9.810181230952692,0.0,0.0,0.0,0.0,0.0,0.0,0.0,0.0,0.0
2025/05/25 17:33:37.723294216,1748187217,721723304,mA1/imu,0.5143282188875266,0.8575930167462225,0.0003741132653530996,0.0007489481709227487,0.0,0.0,0.0,0.0,0.0,0.0,0.0,0.0,0.0,0.00016328045084304128,-0.00010057254315197224,0.0006897984108380645,0.0,0.0,0.0,0.0,0.0,0.0,0.0,0.0,0.0,0.010293200034331164,-0.008519524576942671,9.810397365000442,0.0,0.0,0.0,0.0,0.0,0.0,0.0,0.0,0.0
2025/05/25 17:33:37.773051340,1748187217,772829857,mA1/imu,0.5143427916629317,0.8575842907776665,0.0003568705713510789,0.000741295584875184,0.0,0.0,0.0,0.0,0.0,0.0,0.0,0.0,0.0,0.0017838764086671411,-0.00011846956223115376,0.0006646773869213822,0.0,0.0,0.0,0.0,0.0,0.0,0.0,0.0,0.0,0.016475932668950942,-0.5286311511210582,9.808608610601617,0.0,0.0,0.0,0.0,0.0,0.0,0.0,0.0,0.0
2025/05/25 17:33:37.823085544,1748187217,822798274,mA1/imu,0.5143565915453164,0.857576018766641,0.0003476546928016669,0.0007402070365910229,0.0,0.0,0.0,0.0,0.0,0.0,0.0,0.0,0.0,-0.000425668321819252,-0.00013161122232550998,0.0006370095285875924,0.0,0.0,0.0,0.0,0.0,0.0,0.0,0.0,0.0,0.009647050730123409,0.5697053848677028,9.810916991519866,0.0,0.0,0.0,0.0,0.0,0.0,0.0,0.0,0.0
2025/05/25 17:33:37.874118502,1748187217,873788196,mA1/imu,0.514370097084858,0.8575679250889673,0.00033730899398678874,0.0007370930468596235,0.0,0.0,0.0,0.0,0.0,0.0,0.0,0.0,0.0,-0.0011793158848673263,-7.816943126253557e-05,0.0006244666881642242,0.0,0.0,0.0,0.0,0.0,0.0,0.0,0.0,0.0,0.010029960667825988,0.5140530561142835,9.810719312452983,0.0,0.0,0.0,0.0,0.0,0.0,0.0,0.0,0.0
2025/05/25 17:33:37.914545611,1748187217,914317930,mA1/imu,0.5143833412074319,0.8575599941803291,0.0003215740174533357,0.0007288757534637885,0.0,0.0,0.0,0.0,0.0,0.0,0.0,0.0,0.0,0.0009245389953645228,-1.3745808772093345e-05,0.0006123060101758289,0.0,0.0,0.0,0.0,0.0,0.0,0.0,0.0,0.0,0.008863834545339466,-0.5962764183764419,9.809566967800025,0.0,0.0,0.0,0.0,0.0,0.0,0.0,0.0,0.0
2025/05/25 17:33:37.965605295,1748187217,965247708,mA1/imu,0.5143982103647495,0.8575510932275253,0.00030358227144068524,0.0007152032043800965,0.0,0.0,0.0,0.0,0.0,0.0,0.0,0.0,0.0,0.0014268363310322937,0.0002826819263828917,0.0008387440031120982,0.0,0.0,0.0,0.0,0.0,0.0,0.0,0.0,0.0,-0.007872797654413795,0.07873969183673048,9.812016405137552,0.0,0.0,0.0,0.0,0.0,0.0,0.0,0.0,0.0
2025/05/25 17:33:38.16051752,1748187218,15721525,mA1/imu,0.5144183097777243,0.8575390549062386,0.0002900942446022192,0.0006983704414275556,0.0,0.0,0.0,0.0,0.0,0.0,0.0,0.0,0.0,0.0019887592842752367,0.0001885493586092219,0.0009468908027706574,0.0,0.0,0.0,0.0,0.0,0.0,0.0,0.0,0.0,0.01884478755206398,0.1022353787564487,9.810165398884578,0.0,0.0,0.0,0.0,0.0,0.0,0.0,0.0,0.0
2025/05/25 17:33:38.67466720,1748187218,67247188,mA1/imu,0.5144396306640813,0.8575262706134473,0.00028584836898999546,0.0006927486604254823,0.0,0.0,0.0,0.0,0.0,0.0,0.0,0.0,0.0,0.002242251452933404,4.428178044692576e-05,0.0010081607437204564,0.0,0.0,0.0,0.0,0.0,0.0,0.0,0.0,0.0,0.008926721863854837,-0.5016500124273044,9.808322804811908,0.0,0.0,0.0,0.0,0.0,0.0,0.0,0.0,0.0
2025/05/25 17:33:38.117638141,1748187218,117422805,mA1/imu,0.5144616965856003,0.857513041257162,0.000276731136822184,0.0006857405022544417,0.0,0.0,0.0,0.0,0.0,0.0,0.0,0.0,0.0,0.0001978756621345327,-1.7657747406112258e-05,0.0010074074592293452,0.0,0.0,0.0,0.0,0.0,0.0,0.0,0.0,0.0,0.019018893671128356,-0.23401244782708008,9.809689080522901,0.0,0.0,0.0,0.0,0.0,0.0,0.0,0.0,0.0
2025/05/25 17:33:38.168950559,1748187218,168410169,mA1/imu,0.5144824822251093,0.8575005779282746,0.0002623443647988341,0.0006822841045316704,0.0,0.0,0.0,0.0,0.0,0.0,0.0,0.0,0.0,-0.0010092176042063286,-0.00027514408429355787,0.000967564562796261,0.0,0.0,0.0,0.0,0.0,0.0,0.0,0.0,0.0,0.019330784800096024,0.5389085351494897,9.810139577071608,0.0,0.0,0.0,0.0,0.0,0.0,0.0,0.0,0.0
2025/05/25 17:33:38.220905222,1748187218,220694039,mA1/imu,0.5145024724179469,0.8574885906121712,0.00024033206063634114,0.0006819723403974323,0.0,0.0,0.0,0.0,0.0,0.0,0.0,0.0,0.0,0.0007239775901266306,-0.0005449519636035233,0.0008875610981695835,0.0,0.0,0.0,0.0,0.0,0.0,0.0,0.0,0.0,0.019466458101033927,0.03499207813243862,9.811681163767716,0.0,0.0,0.0,0.0,0.0,0.0,0.0,0.0,0.0
2025/05/25 17:33:38.272029315,1748187218,271836788,mA1/imu,0.514520823891246,0.8574775738668616,0.00022522222192539372,0.0006938102228190668,0.0,0.0,0.0,0.0,0.0,0.0,0.0,0.0,0.0,0.00013902864930753037,-0.0008184325735637804,0.0008538658612944737,0.0,0.0,0.0,0.0,0.0,0.0,0.0,0.0,0.0,0.018472447560334997,0.46550626173056914,9.811993726265818,0.0,0.0,0.0,0.0,0.0,0.0,0.0,0.0,0.0
2025/05/25 17:33:38.321957721,1748187218,321671357,mA1/imu,0.514538178074548,0.8574671509805696,0.00020775806989618194,0.0007107246823404138,0.0,0.0,0.0,0.0,0.0,0.0,0.0,0.0,0.0,0.0015745706195658849,-0.0010322550010936303,0.0007754450516937518,0.0,0.0,0.0,0.0,0.0,0.0,0.0,0.0,0.0,0.01945432666655409,-0.2435851370350576,9.810035610183554,0.0,0.0,0.0,0.0,0.0,0.0,0.0,0.0,0.0
2025/05/25 17:33:38.373137177,1748187218,372926041,mA1/imu,0.5145542204115664,0.8574575021452163,0.00020270749659481767,0.0007383638684141672,0.0,0.0,0.0,0.0,0.0,0.0,0.0,0.0,0.0,5.288111208889183e-05,-0.0010321827067638727,0.000772658710307086,0.0,0.0,0.0,0.0,0.0,0.0,0.0,0.0,0.0,0.01203056569976466,-0.23284122038652036,9.809268510438153,0.0,0.0,0.0,0.0,0.0,0.0,0.0,0.0,0.0
2025/05/25 17:33:38.423399897,1748187218,422807873,mA1/imu,0.5145703016023908,0.8574478310396012,0.00019466490129601687,0.0007641072466617609,0.0,0.0,0.0,0.0,0.0,0.0,0.0,0.0,0.0,-0.0007668700567020921,-0.0010941450340125414,0.0007162504411884014,0.0,0.0,0.0,0.0,0.0,0.0,0.0,0.0,0.0,0.02029974060664981,-0.025663035915537084,9.809650806343,0.0,0.0,0.0,0.0,0.0,0.0,0.0,0.0,0.0
2025/05/25 17:33:38.465479330,1748187218,465131398,mA1/imu,0.5145847275880596,0.8574391479470511,0.00018918659272478786,0.0007936683127662184,0.0,0.0,0.0,0.0,0.0,0.0,0.0,0.0,0.0,-0.0015708863239411264,-0.0011369064654388836,0.0006582014840340066,0.0,0.0,0.0,0.0,0.0,0.0,0.0,0.0,0.0,0.01973683731919573,0.16297281331285454,9.809637880195876,0.0,0.0,0.0,0.0,0.0,0.0,0.0,0.0,0.0
2025/05/25 17:33:38.517626142,1748187218,517428083,mA1/imu,0.5145988077608917,0.8574306699198031,0.00018501511837005677,0.0008240760599993591,0.0,0.0,0.0,0.0,0.0,0.0,0.0,0.0,0.0,-0.0017694934299224653,-0.0010997440401127733,0.0006302823138312168,0.0,0.0,0.0,0.0,0.0,0.0,0.0,0.0,0.0,0.020118050216836977,0.5317249152310625,9.810640080351869,0.0,0.0,0.0,0.0,0.0,0.0,0.0,0.0,0.0
2025/05/25 17:33:38.568726727,1748187218,568446785,mA1/imu,0.5146143339259622,0.8574213232282083,0.0001874948194549539,0.0008524301844086333,0.0,0.0,0.0,0.0,0.0,0.0,0.0,0.0,0.0,-0.0012019699947058305,-0.0006391064919404854,0.0008965493476092474,0.0,0.0,0.0,0.0,0.0,0.0,0.0,0.0,0.0,-0.002180227605123989,0.33867018882245864,9.813185563507423,0.0,0.0,0.0,0.0,0.0,0.0,0.0,0.0,0.0
2025/05/25 17:33:38.618652319,1748187218,618264487,mA1/imu,0.5146353020912524,0.8574087145573923,0.00019942392097804432,0.0008730822329857329,0.0,0.0,0.0,0.0,0.0,0.0,0.0,0.0,0.0,-0.0011084092243026607,-0.00043956003286082314,0.0009638964991395978,0.0,0.0,0.0,0.0,0.0,0.0,0.0,0.0,0.0,0.020621222904814638,-0.015202959587472647,9.80937180343803,0.0,0.0,0.0,0.0,0.0,0.0,0.0,0.0,0.0
2025/05/25 17:33:38.670015042,1748187218,669528865,mA1/imu,0.5146554638914331,0.8573965911460388,0.00021065335156627397,0.0008914050771667631,0.0,0.0,0.0,0.0,0.0,0.0,0.0,0.0,0.0,-0.0005115345119836578,-0.0003577720156388708,0.000925213389929722,0.0,0.0,0.0,0.0,0.0,0.0,0.0,0.0,0.0,0.020480165520800897,0.03168444251263697,9.809347652106862,0.0,0.0,0.0,0.0,0.0,0.0,0.0,0.0,0.0
2025/05/25 17:33:38.719885086,1748187218,719688983,mA1/imu,0.5146748643889492,0.8573849214854854,0.00022798630351181698,0.0009101636063420437,0.0,0.0,0.0,0.0,0.0,0.0,0.0,0.0,0.0,-0.001044843540005268,-0.00023801770893438687,0.0008953342007546723,0.0,0.0,0.0,0.0,0.0,0.0,0.0,0.0,0.0,0.020205272724439595,0.25976959361170204,9.80971355652587,0.0,0.0,0.0,0.0,0.0,0.0,0.0,0.0,0.0
2025/05/25 17:33:38.772480572,1748187218,772190613,mA1/imu,0.5146936629962985,0.8573736129750495,0.0002483937540124374,0.0009270092264672459,0.0,0.0,0.0,0.0,0.0,0.0,0.0,0.0,0.0,-0.0009690097867398874,-0.00010284073415377407,0.0008651305192675236,0.0,0.0,0.0,0.0,0.0,0.0,0.0,0.0,0.0,0.02004092992630847,0.04158919750267884,9.80955934533609,0.0,0.0,0.0,0.0,0.0,0.0,0.0,0.0,0.0
2025/05/25 17:33:38.823073614,1748187218,822834449,mA1/imu,0.5147117675473762,0.8573627260476173,0.00026673133481827237,0.0009387155314944141,0.0,0.0,0.0,0.0,0.0,0.0,0.0,0.0,0.0,0.00039928105501353943,1.488161731563047e-05,0.0008308292252647418,0.0,0.0,0.0,0.0,0.0,0.0,0.0,0.0,0.0,0.02042852347149382,-0.5318761864406994,9.808158101007017,0.0,0.0,0.0,0.0,0.0,0.0,0.0,0.0,0.0
2025/05/25 17:33:38.873951445,1748187218,873791906,mA1/imu,0.5147288788623975,0.8573524312634159,0.00029324132036571065,0.0009507267204392589,0.0,0.0,0.0,0.0,0.0,0.0,0.0,0.0,0.0,-0.0012097974889237395,0.0001988835952358376,0.0007786020729141432,0.0,0.0,0.0,0.0,0.0,0.0,0.0,0.0,0.0,0.018577074838377616,0.14100929427821005,9.810325565058578,0.0,0.0,0.0,0.0,0.0,0.0,0.0,0.0,0.0
2025/05/25 17:33:38.923881736,1748187218,923603732,mA1/imu,0.5147439783515283,0.8573433523532252,0.0003151013614460667,0.0009558439761312616,0.0,0.0,0.0,0.0,0.0,0.0,0.0,0.0,0.0,-0.0017555141046850173,0.0002691639979472942,0.0006081151867272609,0.0,0.0,0.0,0.0,0.0,0.0,0.0,0.0,0.0,0.028459768077994614,0.5667465026291468,9.809474436287758,0.0,0.0,0.0,0.0,0.0,0.0,0.0,0.0,0.0
2025/05/25 17:33:38.965625235,1748187218,965166726,mA1/imu,0.5147531920480076,0.8573378071099593,0.0003327262261977783,0.0009618053502416269,0.0,0.0,0.0,0.0,0.0,0.0,0.0,0.0,0.0,-0.001593121880320684,0.00014098052932759353,0.0002902029114056583,0.0,0.0,0.0,0.0,0.0,0.0,0.0,0.0,0.0,0.024051637333739502,0.5625702655443096,9.809341617377559,0.0,0.0,0.0,0.0,0.0,0.0,0.0,0.0,0.0
2025/05/25 17:33:39.16457186,1748187219,15098251,mA1/imu,0.5147576179576524,0.8573351330533268,0.0003588567108312452,0.0009672687626111236,0.0,0.0,0.0,0.0,0.0,0.0,0.0,0.0,0.0,-0.0022097076497455594,0.000583374528035113,0.00023099578201419375,0.0,0.0,0.0,0.0,0.0,0.0,0.0,0.0,0.0,0.005290632478750175,0.522540591970958,9.810826337255994,0.0,0.0,0.0,0.0,0.0,0.0,0.0,0.0,0.0
2025/05/25 17:33:39.66548064,1748187219,66270210,mA1/imu,0.5147637316497145,0.8573314669617321,0.00038010559111699405,0.0009549110140072626,0.0,0.0,0.0,0.0,0.0,0.0,0.0,0.0,0.0,-0.00030051304507002847,0.0009391654307197721,0.00023135257781741494,0.0,0.0,0.0,0.0,0.0,0.0,0.0,0.0,0.0,0.03105352509286522,-0.6383304609308483,9.810084216034653,0.0,0.0,0.0,0.0,0.0,0.0,0.0,0.0,0.0
2025/05/25 17:33:39.116731463,1748187219,116531223,mA1/imu,0.5147664381210029,0.8573298624082771,0.0003923200449380943,0.0009312852423840114,0.0,0.0,0.0,0.0,0.0,0.0,0.0,0.0,0.0,0.0014673193441875488,0.0012603077091592329,0.00015744180201441966,0.0,0.0,0.0,0.0,0.0,0.0,0.0,0.0,0.0,0.0033475582259594686,-0.5155851340355894,9.80950754105991,0.0,0.0,0.0,0.0,0.0,0.0,0.0,0.0,0.0
2025/05/25 17:33:39.167855428,1748187219,167451142,mA1/imu,0.5147710989153557,0.8573270868744414,0.00041598890735087163,0.0008993253527232728,0.0,0.0,0.0,0.0,0.0,0.0,0.0,0.0,0.0,-0.000337407847030504,0.0017400892207626935,0.000236595445136245,0.0,0.0,0.0,0.0,0.0,0.0,0.0,0.0,0.0,0.011732944692882174,0.6039685641706016,9.811786860068427,0.0,0.0,0.0,0.0,0.0,0.0,0.0,0.0,0.0
2025/05/25 17:33:39.218390598,1748187219,218131503,mA1/imu,0.5147761195329839,0.8573241085477357,0.00043486523463423326,0.0008547242953854748,0.0,0.0,0.0,0.0,0.0,0.0,0.0,0.0,0.0,-0.00015356922462898015,0.0020884216418373,0.00026650754310030055,0.0,0.0,0.0,0.0,0.0,0.0,0.0,0.0,0.0,0.0015008536329236682,0.5996006598696542,9.811918011958426,0.0,0.0,0.0,0.0,0.0,0.0,0.0,0.0,0.0
2025/05/25 17:33:39.269376572,1748187219,269202940,mA1/imu,0.5147821907724742,0.8573205023029548,0.0004574869374333665,0.000801935286222453,0.0,0.0,0.0,0.0,0.0,0.0,0.0,0.0,0.0,0.0007033343190435386,0.002381089942387935,0.0002503203892052368,0.0,0.0,0.0,0.0,0.0,0.0,0.0,0.0,0.0,0.004101157204148477,0.012179065879935242,9.809897988373299,0.0,0.0,0.0,0.0,0.0,0.0,0.0,0.0,0.0
2025/05/25 17:33:39.319895265,1748187219,319229445,mA1/imu,0.5147872979948136,0.857317481869042,0.00047487714769876653,0.000739997715146613,0.0,0.0,0.0,0.0,0.0,0.0,0.0,0.0,0.0,0.0001915552409065455,0.0025220218065465853,0.00024807510452506823,0.0,0.0,0.0,0.0,0.0,0.0,0.0,0.0,0.0,0.005791846431860552,0.5917741012318757,9.811246377034296,0.0,0.0,0.0,0.0,0.0,0.0,0.0,0.0,0.0
2025/05/25 17:33:39.370674322,1748187219,370442069,mA1/imu,0.5147926335750734,0.8573143206591934,0.0004913942345404281,0.0006771567114596968,0.0,0.0,0.0,0.0,0.0,0.0,0.0,0.0,0.0,0.0005107111906972259,0.0023885951062052025,0.00020558348050200503,0.0,0.0,0.0,0.0,0.0,0.0,0.0,0.0,0.0,0.0232959629413327,-0.02871637316419136,9.810056612246587,0.0,0.0,0.0,0.0,0.0,0.0,0.0,0.0,0.0
2025/05/25 17:33:39.421888937,1748187219,421676612,mA1/imu,0.5147954739770516,0.8573126586976022,0.0004959399470668541,0.0006158353352623265,0.0,0.0,0.0,0.0,0.0,0.0,0.0,0.0,0.0,0.0011251783654196727,0.0021416537994960816,0.00013463936309793535,0.0,0.0,0.0,0.0,0.0,0.0,0.0,0.0,0.0,0.00427271466101519,0.0056511055448714535,9.810875598130075,0.0,0.0,0.0,0.0,0.0,0.0,0.0,0.0,0.0
2025/05/25 17:33:39.465942797,1748187219,465478952,mA1/imu,0.5147980708662322,0.8573111383650407,0.0004974593050765099,0.0005574960837676024,0.0,0.0,0.0,0.0,0.0,0.0,0.0,0.0,0.0,0.0020121950884045155,0.0019469045591146712,8.926113384185992e-05,0.0,0.0,0.0,0.0,0.0,0.0,0.0,0.0,0.0,0.0034513066094951925,-0.3911009343888208,9.809417538575037,0.0,0.0,0.0,0.0,0.0,0.0,0.0,0.0,0.0
2025/05/25 17:33:39.516606245,1748187219,516213829,mA1/imu,0.5147997325219519,0.8573101753194357,0.0004948211519428082,0.0005038264711177252,0.0,0.0,0.0,0.0,0.0,0.0,0.0,0.0,0.0,0.0007050928694826424,0.001667845917431713,8.541512318691537e-05,0.0,0.0,0.0,0.0,0.0,0.0,0.0,0.0,0.0,0.003989714153925664,0.5956389817933775,9.81086766984352,0.0,0.0,0.0,0.0,0.0,0.0,0.0,0.0,0.0
2025/05/25 17:33:39.567788493,1748187219,567457107,mA1/imu,0.514800859632523,0.8573095278635545,0.0004874136734042646,0.00045911207290930654,0.0,0.0,0.0,0.0,0.0,0.0,0.0,0.0,0.0,0.002049777545759689,0.0009543611888713483,-0.00011975700520328156,0.0,0.0,0.0,0.0,0.0,0.0,0.0,0.0,0.0,0.05624009836115343,-0.3916555043867624,9.80556828409662,0.0,0.0,0.0,0.0,0.0,0.0,0.0,0.0,0.0
2025/05/25 17:33:39.619122946,1748187219,618926061,mA1/imu,0.5147924455877112,0.8573145961687947,0.0004754325010952365,0.00044173034370915276,0.0,0.0,0.0,0.0,0.0,0.0,0.0,0.0,0.0,0.0011378527438867941,0.00018140077132453792,-0.00041291365723663837,0.0,0.0,0.0,0.0,0.0,0.0,0.0,0.0,0.0,0.0017137636141707365,-0.00655348822633512,9.811116976651364,0.0,0.0,0.0,0.0,0.0,0.0,0.0,0.0,0.0
2025/05/25 17:33:39.670695585,1748187219,670266277,mA1/imu,0.5147837958436566,0.8573198103882118,0.0004514665271674594,0.0004271190607544596,0.0,0.0,0.0,0.0,0.0,0.0,0.0,0.0,0.0,0.000594058766135451,-8.779630896819944e-05,-0.00038475072188146384,0.0,0.0,0.0,0.0,0.0,0.0,0.0,0.0,0.0,-0.0036765407478446185,-0.021781944860178593,9.811161682053683,0.0,0.0,0.0,0.0,0.0,0.0,0.0,0.0,0.0
2025/05/25 17:33:39.721283507,1748187219,720897942,mA1/imu,0.5147763093487708,0.8573243198551497,0.00042997312640858184,0.000420762729153685,0.0,0.0,0.0,0.0,0.0,0.0,0.0,0.0,0.0,0.0007720252231939574,-0.0003291350556673883,-0.00033877807270100844,0.0,0.0,0.0,0.0,0.0,0.0,0.0,0.0,0.0,-0.0002618356414967678,0.0030404773229817036,9.810673122170964,0.0,0.0,0.0,0.0,0.0,0.0,0.0,0.0,0.0
2025/05/25 17:33:39.772800980,1748187219,771932365,mA1/imu,0.5147683996868733,0.8573290779014003,0.0004089977953755685,0.0004237798406983536,0.0,0.0,0.0,0.0,0.0,0.0,0.0,0.0,0.0,0.0006320368637930686,-0.0008455323636890647,-0.0005390083061418335,0.0,0.0,0.0,0.0,0.0,0.0,0.0,0.0,0.0,0.0455865268090387,0.34303473164209203,9.809757968541113,0.0,0.0,0.0,0.0,0.0,0.0,0.0,0.0,0.0
2025/05/25 17:33:39.822096348,1748187219,821839531,mA1/imu,0.5147510794226073,0.8573394747773005,0.00038772168948165574,0.0004482117073303099,0.0,0.0,0.0,0.0,0.0,0.0,0.0,0.0,0.0,-0.0002924587579407941,-0.0013331727638593715,-0.0008285020375314915,0.0,0.0,0.0,0.0,0.0,0.0,0.0,0.0,0.0,-0.004079119222142707,-0.03690123051471247,9.808400234922365,0.0,0.0,0.0,0.0,0.0,0.0,0.0,0.0,0.0
2025/05/25 17:33:39.873716114,1748187219,873450504,mA1/imu,0.5147350278841959,0.8573491134373837,0.0003585109211670382,0.00046928361091701123,0.0,0.0,0.0,0.0,0.0,0.0,0.0,0.0,0.0,0.0018828785648482807,-0.0012540937626880134,-0.0006376425180854646,0.0,0.0,0.0,0.0,0.0,0.0,0.0,0.0,0.0,-0.004376230180833249,-0.499109461254251,9.808210319816117,0.0,0.0,0.0,0.0,0.0,0.0,0.0,0.0,0.0
2025/05/25 17:33:39.914989510,1748187219,914105376,mA1/imu,0.5147232794578924,0.8573561542455852,0.00034610804954204617,0.0005005702254315062,0.0,0.0,0.0,0.0,0.0,0.0,0.0,0.0,0.0,0.0005002671090447038,-0.0014278875278903069,-0.0004931621265362099,0.0,0.0,0.0,0.0,0.0,0.0,0.0,0.0,0.0,0.005457332346093847,0.043028779673109904,9.811119449309023,0.0,0.0,0.0,0.0,0.0,0.0,0.0,0.0,0.0
2025/05/25 17:33:39.965902165,1748187219,965591498,mA1/imu,0.5147159929878966,0.8573605115712462,0.0003365895393741562,0.000535227294227228,0.0,0.0,0.0,0.0,0.0,0.0,0.0,0.0,0.0,-0.0012731593762795599,-0.0012813921530744651,-0.00017245450758839002,0.0,0.0,0.0,0.0,0.0,0.0,0.0,0.0,0.0,-0.008269010840562316,-0.06062541692268973,9.812034777234594,0.0,0.0,0.0,0.0,0.0,0.0,0.0,0.0,0.0
2025/05/25 17:33:40.16853934,1748187220,15879304,mA1/imu,0.5147145591573198,0.8573613555171486,0.00032690021874120427,0.0005672684816501582,0.0,0.0,0.0,0.0,0.0,0.0,0.0,0.0,0.0,-0.0008591155784639879,-0.0013466311313293997,-6.011317498965738e-05,0.0,0.0,0.0,0.0,0.0,0.0,0.0,0.0,0.0,0.005837932538326746,-0.02656148826335505,9.809479403752198,0.0,0.0,0.0,0.0,0.0,0.0,0.0,0.0,0.0
2025/05/25 17:33:40.66819537,1748187220,66577230,mA1/imu,0.5147133758173723,0.8573620470409873,0.0003152592261945936,0.0006013817362310993,0.0,0.0,0.0,0.0,0.0,0.0,0.0,0.0,0.0,0.0004821832408983988,-0.001457680446641922,-6.222515235308965e-05,0.0,0.0,0.0,0.0,0.0,0.0,0.0,0.0,0.0,0.008746384019681176,-0.4895333255019989,9.808942239274364,0.0,0.0,0.0,0.0,0.0,0.0,0.0,0.0,0.0
2025/05/25 17:33:40.116794807,1748187220,116420542,mA1/imu,0.5147112638983992,0.857363287063172,0.00030950650346542015,0.0006426648191570879,0.0,0.0,0.0,0.0,0.0,0.0,0.0,0.0,0.0,0.00011019935024152305,-0.0015703162219763748,-0.0001260533584430519,0.0,0.0,0.0,0.0,0.0,0.0,0.0,0.0,0.0,0.00898948443581471,-0.4335587900344216,9.80920507685685,0.0,0.0,0.0,0.0,0.0,0.0,0.0,0.0,0.0
2025/05/25 17:33:40.167641269,1748187220,167449277,mA1/imu,0.5147081976355478,0.857365091293981,0.0003103793596820908,0.0006893343764368201,0.0,0.0,0.0,0.0,0.0,0.0,0.0,0.0,0.0,-0.0013396700358080616,-0.001590543166382278,-0.00012677976433181774,0.0,0.0,0.0,0.0,0.0,0.0,0.0,0.0,0.0,0.010097616466888394,0.21434267081686204,9.809460983441983,0.0,0.0,0.0,0.0,0.0,0.0,0.0,0.0,0.0
2025/05/25 17:33:40.217700114,1748187220,217354681,mA1/imu,0.5147057651790443,0.8573665184103649,0.0003056507141955056,0.0007314218926539412,0.0,0.0,0.0,0.0,0.0,0.0,0.0,0.0,0.0,-0.0010176102983121052,-0.001492154412160636,-0.00011189757659358028,0.0,0.0,0.0,0.0,0.0,0.0,0.0,0.0,0.0,0.008124411259290181,0.38083380978629905,9.81038107826728,0.0,0.0,0.0,0.0,0.0,0.0,0.0,0.0,0.0
2025/05/25 17:33:40.268784749,1748187220,268631669,mA1/imu,0.5147039229739219,0.8573675922690429,0.0003028379792223553,0.0007692146629693618,0.0,0.0,0.0,0.0,0.0,0.0,0.0,0.0,0.0,-0.001332031801065973,-0.001210991266154863,-4.388793388584241e-05,0.0,0.0,0.0,0.0,0.0,0.0,0.0,0.0,0.0,0.0022652989907143914,0.60513854748951,9.80922210637325,0.0,0.0,0.0,0.0,0.0,0.0,0.0,0.0,0.0
2025/05/25 17:33:40.318737913,1748187220,318455455,mA1/imu,0.5147029819770446,0.857368124853939,0.0003052326788260537,0.0008035305783423482,0.0,0.0,0.0,0.0,0.0,0.0,0.0,0.0,0.0,0.0013543971456880432,-0.0010999266038963648,-6.770622702390099e-05,0.0,0.0,0.0,0.0,0.0,0.0,0.0,0.0,0.0,0.011670723331414843,-0.23003675289324169,9.810939419873844,0.0,0.0,0.0,0.0,0.0,0.0,0.0,0.0,0.0
2025/05/25 17:33:40.369812860,1748187220,369580731,mA1/imu,0.5147019733701955,0.8573686862996437,0.0003231486955214871,0.0008425773379283418,0.0,0.0,0.0,0.0,0.0,0.0,0.0,0.0,0.0,0.00014296710942434063,-0.0009374802244511505,-1.7343924277831598e-05,0.0,0.0,0.0,0.0,0.0,0.0,0.0,0.0,0.0,0.013111303803835092,-0.5558171744900918,9.809179426239345,0.0,0.0,0.0,0.0,0.0,0.0,0.0,0.0,0.0
2025/05/25 17:33:40.419927825,1748187220,419662545,mA1/imu,0.5147012134642897,0.8573691068244623,0.0003345604117844121,0.000873836793845153,0.0,0.0,0.0,0.0,0.0,0.0,0.0,0.0,0.0,-0.0012917992125579918,-0.0007800400121273732,-6.025325502674106e-05,0.0,0.0,0.0,0.0,0.0,0.0,0.0,0.0,0.0,0.013845889199015436,-0.6646840363030059,9.81035388059525,0.0,0.0,0.0,0.0,0.0,0.0,0.0,0.0,0.0
2025/05/25 17:33:40.471417343,1748187220,471184208,mA1/imu,0.5147007968612858,0.8573693349648412,0.000339964407063959,0.000893082585706764,0.0,0.0,0.0,0.0,0.0,0.0,0.0,0.0,0.0,-0.002961787789620351,-0.00035020787155396523,3.4194260622484075e-05,0.0,0.0,0.0,0.0,0.0,0.0,0.0,0.0,0.0,0.0073851495115138735,0.4551223776828177,9.811825750071263,0.0,0.0,0.0,0.0,0.0,0.0,0.0,0.0,0.0
2025/05/25 17:33:40.521367133,1748187220,521048160,mA1/imu,0.5147016644264094,0.8573688096756348,0.00033784143123350487,0.0008981621437283891,0.0,0.0,0.0,0.0,0.0,0.0,0.0,0.0,0.0,-0.0014711356228068496,-0.00013159133278066448,1.1519938785789413e-05,0.0,0.0,0.0,0.0,0.0,0.0,0.0,0.0,0.0,0.015425559982258856,0.562605736498864,9.810972311149824,0.0,0.0,0.0,0.0,0.0,0.0,0.0,0.0,0.0
2025/05/25 17:33:40.572327217,1748187220,572065282,mA1/imu,0.5147017682325581,0.8573687478911397,0.00033615243246270696,0.0008982869249568243,0.0,0.0,0.0,0.0,0.0,0.0,0.0,0.0,0.0,0.00038553913256336936,2.8674712159510745e-05,-2.00746073687138e-05,0.0,0.0,0.0,0.0,0.0,0.0,0.0,0.0,0.0,0.016462893819366727,0.6765893962086569,9.812641772606131,0.0,0.0,0.0,0.0,0.0,0.0,0.0,0.0,0.0
2025/05/25 17:33:40.622566092,1748187220,622263577,mA1/imu,0.5147005738088606,0.8573694569833172,0.00034735876173990876,0.0009016068168008947,0.0,0.0,0.0,0.0,0.0,0.0,0.0,0.0,0.0,0.0008674077468902823,0.0001774218353093639,-5.870238083545823e-05,0.0,0.0,0.0,0.0,0.0,0.0,0.0,0.0,0.0,0.013426025079473637,0.061413303076746,9.811058596799109,0.0,0.0,0.0,0.0,0.0,0.0,0.0,0.0,0.0
2025/05/25 17:33:40.673652826,1748187220,673500640,mA1/imu,0.5147013475628313,0.8573690023205882,0.0003490043710711222,0.0008915563658994251,0.0,0.0,0.0,0.0,0.0,0.0,0.0,0.0,0.0,0.000407081489708447,0.0005314596028364141,0.00014124522498107185,0.0,0.0,0.0,0.0,0.0,0.0,0.0,0.0,0.0,0.013857525252292818,0.018690622085515904,9.810193071671444,0.0,0.0,0.0,0.0,0.0,0.0,0.0,0.0,0.0
2025/05/25 17:33:40.723652485,1748187220,723423341,mA1/imu,0.5147052058957376,0.8573667056253936,0.0003468539260762775,0.0008733849321162931,0.0,0.0,0.0,0.0,0.0,0.0,0.0,0.0,0.0,0.0010838412566644379,0.000604043816986919,0.00019613872686015317,0.0,0.0,0.0,0.0,0.0,0.0,0.0,0.0,0.0,0.016177885824645123,0.4292022541794317,9.811737722769145,0.0,0.0,0.0,0.0,0.0,0.0,0.0,0.0,0.0
2025/05/25 17:33:40.765391849,1748187220,764748608,mA1/imu,0.5147095226925644,0.8573641322749366,0.000346230097862892,0.0008556066601401126,0.0,0.0,0.0,0.0,0.0,0.0,0.0,0.0,0.0,0.00046970297253884943,0.0005628677411291675,0.00018663385836702217,0.0,0.0,0.0,0.0,0.0,0.0,0.0,0.0,0.0,0.019860605547508188,0.6319930471611538,9.811122917991545,0.0,0.0,0.0,0.0,0.0,0.0,0.0,0.0,0.0
2025/05/25 17:33:40.815052197,1748187220,814645676,mA1/imu,0.5147135896960802,0.8573617022129366,0.000350444789942155,0.0008422286864060341,0.0,0.0,0.0,0.0,0.0,0.0,0.0,0.0,0.0,-0.001113657799613993,0.000551198147495213,0.00020445330756641816,0.0,0.0,0.0,0.0,0.0,0.0,0.0,0.0,0.0,0.0161815586503539,0.5132254165848094,9.81034262367579,0.0,0.0,0.0,0.0,0.0,0.0,0.0,0.0,0.0
2025/05/25 17:33:40.866647219,1748187220,865597988,mA1/imu,0.5147184620223311,0.8573588007791172,0.0003411192687009259,0.0008217162554951926,0.0,0.0,0.0,0.0,0.0,0.0,0.0,0.0,0.0,-0.00010537895181126791,0.000498125364937663,0.0002418752529611974,0.0,0.0,0.0,0.0,0.0,0.0,0.0,0.0,0.0,0.01714235050152053,-0.05531493633321722,9.809748177995756,0.0,0.0,0.0,0.0,0.0,0.0,0.0,0.0,0.0
2025/05/25 17:33:40.922098591,1748187220,918513452,mA1/imu,0.5147241426600602,0.8573554149762596,0.00032867529921938756,0.0008008409949827275,0.0,0.0,0.0,0.0,0.0,0.0,0.0,0.0,0.0,0.001578159785602958,0.00042585566863290007,0.0002793954170588357,0.0,0.0,0.0,0.0,0.0,0.0,0.0,0.0,0.0,0.016607935309977763,-0.5719327100555428,9.808554583485604,0.0,0.0,0.0,0.0,0.0,0.0,0.0,0.0,0.0
2025/05/25 17:33:40.970089444,1748187220,969803893,mA1/imu,0.5147305801499662,0.8573515722054048,0.00031600968634651176,0.0007820698675871428,0.0,0.0,0.0,0.0,0.0,0.0,0.0,0.0,0.0,0.0003296375231741143,0.0003382790054674497,0.00031887676571747375,0.0,0.0,0.0,0.0,0.0,0.0,0.0,0.0,0.0,0.019555292526101435,0.603470259275928,9.810427884212123,0.0,0.0,0.0,0.0,0.0,0.0,0.0,0.0,0.0
2025/05/25 17:33:41.23991756,1748187221,23609510,mA1/imu,0.5147380997269603,0.8573470761475107,0.00030296389434196025,0.000766761808630567,0.0,0.0,0.0,0.0,0.0,0.0,0.0,0.0,0.0,0.00044799072766746334,0.0002119355886702949,0.000361164240082905,0.0,0.0,0.0,0.0,0.0,0.0,0.0,0.0,0.0,0.016951697454944913,-0.04489479657400495,9.809282637761523,0.0,0.0,0.0,0.0,0.0,0.0,0.0,0.0,0.0
2025/05/25 17:33:41.65273174,1748187221,64930125,mA1/imu,0.5147462665133414,0.8573421913915621,0.0002857311364960426,0.0007525478108000243,0.0,0.0,0.0,0.0,0.0,0.0,0.0,0.0,0.0,0.0009944878593441554,0.00010118676011719446,0.00041020333425110096,0.0,0.0,0.0,0.0,0.0,0.0,0.0,0.0,0.0,0.012616408401961154,-0.2416731878458058,9.8084227636718,0.0,0.0,0.0,0.0,0.0,0.0,0.0,0.0,0.0
2025/05/25 17:33:41.116169049,1748187221,115337680,mA1/imu,0.5147560239794807,0.8573363444517823,0.00027255181011769916,0.0007442945667043457,0.0,0.0,0.0,0.0,0.0,0.0,0.0,0.0,0.0,0.001514253987676067,-9.893912482538139e-05,0.00045746848956534333,0.0,0.0,0.0,0.0,0.0,0.0,0.0,0.0,0.0,0.021524933729721828,-0.5709923465166998,9.809259461324825,0.0,0.0,0.0,0.0,0.0,0.0,0.0,0.0,0.0
2025/05/25 17:33:41.166336953,1748187221,165929381,mA1/imu,0.5147663380483278,0.8573301597141147,0.0002567017218754975,0.00074064911472295,0.0,0.0,0.0,0.0,0.0,0.0,0.0,0.0,0.0,0.00038288090786315634,-0.00029422559700107716,0.0004890471305134484,0.0,0.0,0.0,0.0,0.0,0.0,0.0,0.0,0.0,0.021782647983708405,-0.30853550391917633,9.810673647086505,0.0,0.0,0.0,0.0,0.0,0.0,0.0,0.0,0.0
2025/05/25 17:33:41.216888822,1748187221,216177344,mA1/imu,0.514776628634374,0.8573239879911823,0.0002335971000332899,0.0007400399434486287,0.0,0.0,0.0,0.0,0.0,0.0,0.0,0.0,0.0,-0.00011126137812916602,-0.0005419462266178361,0.0004687729572759841,0.0,0.0,0.0,0.0,0.0,0.0,0.0,0.0,0.0,0.021636461251777213,0.5951494091274945,9.808834708599877,0.0,0.0,0.0,0.0,0.0,0.0,0.0,0.0,0.0
2025/05/25 17:33:41.267884353,1748187221,267600765,mA1/imu,0.5147872088856855,0.8573176233841253,0.00022782070707204257,0.0007551823661007743,0.0,0.0,0.0,0.0,0.0,0.0,0.0,0.0,0.0,-0.001200503620748766,-0.000691178569149348,0.0005100333415216929,0.0,0.0,0.0,0.0,0.0,0.0,0.0,0.0,0.0,0.018912925840614853,0.5300904067613054,9.810194827589129,0.0,0.0,0.0,0.0,0.0,0.0,0.0,0.0,0.0
2025/05/25 17:33:41.319690875,1748187221,319260775,mA1/imu,0.5147986792416233,0.8573107273033508,0.00021403753968429745,0.0007686934446086495,0.0,0.0,0.0,0.0,0.0,0.0,0.0,0.0,0.0,8.031524701381847e-06,-0.000778795674715613,0.0005513674411870549,0.0,0.0,0.0,0.0,0.0,0.0,0.0,0.0,0.0,0.017881959073321817,-0.5324698015984419,9.809092792660499,0.0,0.0,0.0,0.0,0.0,0.0,0.0,0.0,0.0
2025/05/25 17:33:41.371025652,1748187221,370858107,mA1/imu,0.5148110304953872,0.8573032989909298,0.00020157268449646034,0.0007847216060303749,0.0,0.0,0.0,0.0,0.0,0.0,0.0,0.0,0.0,0.00024497336638893617,-0.0008168389262436937,0.000592816019026017,0.0,0.0,0.0,0.0,0.0,0.0,0.0,0.0,0.0,0.017667135521463498,0.027573087391540574,9.810009657196826,0.0,0.0,0.0,0.0,0.0,0.0,0.0,0.0,0.0
2025/05/25 17:33:41.421000609,1748187221,420788081,mA1/imu,0.5148242826050601,0.8572953268125887,0.00019203484050904246,0.0008023640708040341,0.0,0.0,0.0,0.0,0.0,0.0,0.0,0.0,0.0,-0.0005305175553215271,-0.0007835327759356574,0.0006349730577824005,0.0,0.0,0.0,0.0,0.0,0.0,0.0,0.0,0.0,0.017885387164899687,0.612764681255072,9.810915649249658,0.0,0.0,0.0,0.0,0.0,0.0,0.0,0.0,0.0
2025/05/25 17:33:41.472051851,1748187221,471786620,mA1/imu,0.5148384497467505,0.8572867948262055,0.00019631742179981133,0.0008267638378823227,0.0,0.0,0.0,0.0,0.0,0.0,0.0,0.0,0.0,-0.0015832362344243367,-0.0007132898806049417,0.0006800353943938476,0.0,0.0,0.0,0.0,0.0,0.0,0.0,0.0,0.0,0.01727193392404574,0.5537017579539744,9.811591570056613,0.0,0.0,0.0,0.0,0.0,0.0,0.0,0.0,0.0
2025/05/25 17:33:41.523419194,1748187221,523211291,mA1/imu,0.5148536189882704,0.8572776662196143,0.0001966602468465589,0.000845778032276819,0.0,0.0,0.0,0.0,0.0,0.0,0.0,0.0,0.0,-0.001879809381579359,-0.0005738801669363557,0.0007262957778245199,0.0,0.0,0.0,0.0,0.0,0.0,0.0,0.0,0.0,0.0162144493766328,0.5451667561889989,9.809431220496544,0.0,0.0,0.0,0.0,0.0,0.0,0.0,0.0,0.0
2025/05/25 17:33:41.565258798,1748187221,564940031,mA1/imu,0.514869793744159,0.8572679297743524,0.000205794158921518,0.0008658631574134372,0.0,0.0,0.0,0.0,0.0,0.0,0.0,0.0,0.0,-0.0008089347986624513,-0.00043391241805004847,0.0007746817863908017,0.0,0.0,0.0,0.0,0.0,0.0,0.0,0.0,0.0,0.016591088796255468,-0.004647595833066841,9.809445565044523,0.0,0.0,0.0,0.0,0.0,0.0,0.0,0.0,0.0
2025/05/25 17:33:41.615236332,1748187221,614759270,mA1/imu,0.5148869952621214,0.8572575769523371,0.0002194479002571754,0.0008835781634256453,0.0,0.0,0.0,0.0,0.0,0.0,0.0,0.0,0.0,-0.0008468667691879125,-0.00025156236980478704,0.000822398444028025,0.0,0.0,0.0,0.0,0.0,0.0,0.0,0.0,0.0,0.016430241723405185,-0.0022109017525701827,9.809246350878059,0.0,0.0,0.0,0.0,0.0,0.0,0.0,0.0,0.0
2025/05/25 17:33:41.667316100,1748187221,666839601,mA1/imu,0.5149052203492596,0.85724661426771,0.00023310882986137845,0.0008955690380556071,0.0,0.0,0.0,0.0,0.0,0.0,0.0,0.0,0.0,-0.0006861929346383538,-4.643618623877952e-05,0.0008708666718348589,0.0,0.0,0.0,0.0,0.0,0.0,0.0,0.0,0.0,0.01614972403919965,0.011944892881507817,9.811821419878234,0.0,0.0,0.0,0.0,0.0,0.0,0.0,0.0,0.0
2025/05/25 17:33:41.718597376,1748187221,717971716,mA1/imu,0.514924505264942,0.8572350155888301,0.0002521937091916672,0.0009046128487912345,0.0,0.0,0.0,0.0,0.0,0.0,0.0,0.0,0.0,-0.0012329413224111605,0.00016774078830218388,0.0009206333714219384,0.0,0.0,0.0,0.0,0.0,0.0,0.0,0.0,0.0,0.016238614004685743,0.16747173588626188,9.811890622777545,0.0,0.0,0.0,0.0,0.0,0.0,0.0,0.0,0.0
2025/05/25 17:33:41.769206887,1748187221,768953488,mA1/imu,0.5149447302750617,0.8572228544984184,0.0002745079188438956,0.00090946848764287,0.0,0.0,0.0,0.0,0.0,0.0,0.0,0.0,0.0,-0.001035579246167239,0.00037833486606962343,0.0009418807265979752,0.0,0.0,0.0,0.0,0.0,0.0,0.0,0.0,0.0,0.0164282822974263,-0.060366502546905995,9.809521128924343,0.0,0.0,0.0,0.0,0.0,0.0,0.0,0.0,0.0
2025/05/25 17:33:41.821270808,1748187221,821001860,mA1/imu,0.5149644687293716,0.8572109967224204,0.00029143535724348235,0.0009044942582052324,0.0,0.0,0.0,0.0,0.0,0.0,0.0,0.0,0.0,-0.00013037309834791744,0.0006018773098035676,0.000928371612206097,0.0,0.0,0.0,0.0,0.0,0.0,0.0,0.0,0.0,0.015574899529874432,0.039853050165521826,9.810227560574893,0.0,0.0,0.0,0.0,0.0,0.0,0.0,0.0,0.0
2025/05/25 17:33:41.872838631,1748187221,872405124,mA1/imu,0.5149847843361115,0.8571987931648445,0.0003126003277823845,0.000896203134371206,0.0,0.0,0.0,0.0,0.0,0.0,0.0,0.0,0.0,-0.0007176580593820463,0.0007941232020433681,0.0009623100687635471,0.0,0.0,0.0,0.0,0.0,0.0,0.0,0.0,0.0,0.014789141602132239,0.6234157469468173,9.810994428702669,0.0,0.0,0.0,0.0,0.0,0.0,0.0,0.0,0.0
2025/05/25 17:33:41.922325008,1748187221,922142265,mA1/imu,0.5150058079887535,0.8571861578122769,0.00034359963143614853,0.0008891187608291808,0.0,0.0,0.0,0.0,0.0,0.0,0.0,0.0,0.0,-0.0021643749962384808,0.0009413982712806181,0.0009955044570687719,0.0,0.0,0.0,0.0,0.0,0.0,0.0,0.0,0.0,0.014782524923281673,0.5113344335431279,9.810744933510897,0.0,0.0,0.0,0.0,0.0,0.0,0.0,0.0,0.0
2025/05/25 17:33:41.965165347,1748187221,965067998,mA1/imu,0.5150271681550997,0.8571733392833718,0.0003581022429213821,0.000868473785381259,0.0,0.0,0.0,0.0,0.0,0.0,0.0,0.0,0.0,-0.0008130041299290262,0.0010558174099595762,0.000986141984580314,0.0,0.0,0.0,0.0,0.0,0.0,0.0,0.0,0.0,0.012331121561224023,-0.03684311890558391,9.809431257685235,0.0,0.0,0.0,0.0,0.0,0.0,0.0,0.0,0.0
2025/05/25 17:33:42.15095420,1748187222,14679357,mA1/imu,0.5150494281829722,0.8571599806457756,0.000376023777023302,0.0008442238129071932,0.0,0.0,0.0,0.0,0.0,0.0,0.0,0.0,0.0,3.446199465903644e-05,0.0013087909388162981,0.001084051820613753,0.0,0.0,0.0,0.0,0.0,0.0,0.0,0.0,0.0,0.007874547371595026,0.011680336479266607,9.809985011606708,0.0,0.0,0.0,0.0,0.0,0.0,0.0,0.0,0.0
2025/05/25 17:33:42.66457859,1748187222,66123922,mA1/imu,0.5150741455140349,0.8571451501562588,0.0003942328011287447,0.0008128758147389344,0.0,0.0,0.0,0.0,0.0,0.0,0.0,0.0,0.0,0.000450889822027378,0.0015405739461124039,0.0012080315692006127,0.0,0.0,0.0,0.0,0.0,0.0,0.0,0.0,0.0,0.006558512377284756,-0.17394033281886628,9.808470383324092,0.0,0.0,0.0,0.0,0.0,0.0,0.0,0.0,0.0
2025/05/25 17:33:42.116847321,1748187222,116689759,mA1/imu,0.515101656814494,0.8571286455241147,0.0004103267961296656,0.000774468127278633,0.0,0.0,0.0,0.0,0.0,0.0,0.0,0.0,0.0,0.00035864335716129513,0.0016874231755786622,0.0013199596321576293,0.0,0.0,0.0,0.0,0.0,0.0,0.0,0.0,0.0,0.009847308445676585,0.19981764910523933,9.81028405825066,0.0,0.0,0.0,0.0,0.0,0.0,0.0,0.0,0.0
2025/05/25 17:33:42.169950941,1748187222,169530725,mA1/imu,0.51512832155755,0.8571126465524399,0.0004247961903785999,0.0007368835527132398,0.0,0.0,0.0,0.0,0.0,0.0,0.0,0.0,0.0,-0.0007356275436968064,0.0014328672649591633,0.0011036457115460973,0.0,0.0,0.0,0.0,0.0,0.0,0.0,0.0,0.0,0.023814785002212197,0.5450235192619723,9.810550965845547,0.0,0.0,0.0,0.0,0.0,0.0,0.0,0.0,0.0
2025/05/25 17:33:42.220275270,1748187222,220125158,mA1/imu,0.5151504303163118,0.8570993891544326,0.0004270356110011212,0.000699211416069582,0.0,0.0,0.0,0.0,0.0,0.0,0.0,0.0,0.0,0.00038126033506810674,0.0013305019983655738,0.0010410824799843867,0.0,0.0,0.0,0.0,0.0,0.0,0.0,0.0,0.0,0.0075932363437408255,0.6225369914745031,9.809900004710904,0.0,0.0,0.0,0.0,0.0,0.0,0.0,0.0,0.0
2025/05/25 17:33:42.273870141,1748187222,273259628,mA1/imu,0.5151735231050465,0.857085532841854,0.000433885422919034,0.0006650023827793775,0.0,0.0,0.0,0.0,0.0,0.0,0.0,0.0,0.0,0.0009061993797355803,0.0013156137561796677,0.0011191549838887233,0.0,0.0,0.0,0.0,0.0,0.0,0.0,0.0,0.0,0.003585518448942896,0.07295705324485294,9.808913392245712,0.0,0.0,0.0,0.0,0.0,0.0,0.0,0.0,0.0
2025/05/25 17:33:42.324462839,1748187222,323835212,mA1/imu,0.5151982756947059,0.8570706745784211,0.00044172264484272053,0.0006327558748709338,0.0,0.0,0.0,0.0,0.0,0.0,0.0,0.0,0.0,-0.0001759070545786253,0.0012147719460561049,0.0011708246310968354,0.0,0.0,0.0,0.0,0.0,0.0,0.0,0.0,0.0,0.0064683293237279916,-0.055083715150443135,9.80832228986521,0.0,0.0,0.0,0.0,0.0,0.0,0.0,0.0,0.0
2025/05/25 17:33:42.366335572,1748187222,365739648,mA1/imu,0.5152237075426882,0.857055415020431,0.00043627908587289763,0.0005970181593719075,0.0,0.0,0.0,0.0,0.0,0.0,0.0,0.0,0.0,-0.00026937230856754357,0.001048176170226239,0.0011722145130755235,0.0,0.0,0.0,0.0,0.0,0.0,0.0,0.0,0.0,0.006030504515744718,-0.07641689199484283,9.810877235535063,0.0,0.0,0.0,0.0,0.0,0.0,0.0,0.0,0.0
