time,header_stamp_secs,header_stamp_nsecs,header_frame_id,orientation_x,orientation_y,orientation_z,orientation_w,orientation_covariance_0,orientation_covariance_1,orientation_covariance_2,orientation_covariance_3,orientation_covariance_4,orientation_covariance_5,orientation_covariance_6,orientation_covariance_7,orientation_covariance_8,angular_velocity_x,angular_velocity_y,angular_velocity_z,angular_velocity_covariance_0,angular_velocity_covariance_1,angular_velocity_covariance_2,angular_velocity_covariance_3,angular_velocity_covariance_4,angular_velocity_covariance_5,angular_velocity_covariance_6,angular_velocity_covariance_7,angular_velocity_covariance_8,linear_acceleration_x,linear_acceleration_y,linear_acceleration_z,linear_acceleration_covariance_0,linear_acceleration_covariance_1,linear_acceleration_covariance_2,linear_acceleration_covariance_3,linear_acceleration_covariance_4,linear_acceleration_covariance_5,linear_acceleration_covariance_6,linear_acceleration_covariance_7,linear_acceleration_covariance_8
2025/05/21 13:11:46.480421708,1747825906,479122552,mA1/imu,0.8396588392551236,0.5431135371148292,0.00010134633420407141,0.0008421355461884697,0.0,0.0,0.0,0.0,0.0,0.0,0.0,0.0,0.0,-0.00010956605611102362,-0.0003218118895843965,-0.0010398820883263198,0.0,0.0,0.0,0.0,0.0,0.0,0.0,0.0,0.0,0.005531243635541334,0.5987789590241384,9.810771913683277,0.0,0.0,0.0,0.0,0.0,0.0,0.0,0.0,0.0
2025/05/21 13:11:46.531472573,1747825906,530260143,mA1/imu,0.8396638831321733,0.543105772549851,0.0001348185704350291,0.0008154816874694578,0.0,0.0,0.0,0.0,0.0,0.0,0.0,0.0,0.0,0.0015858846420706552,0.0031290550670294965,0.0013318751721163318,0.0,0.0,0.0,0.0,0.0,0.0,0.0,0.0,0.0,-0.1199803428044797,0.10464574195051489,9.816541823589246,0.0,0.0,0.0,0.0,0.0,0.0,0.0,0.0,0.0
2025/05/21 13:11:46.580120474,1747825906,579976643,mA1/imu,0.839700788218985,0.5430487702588428,0.00024311921749817076,0.0007485170804006543,0.0,0.0,0.0,0.0,0.0,0.0,0.0,0.0,0.0,0.0018387024136987363,0.00611207607098272,0.003611136616237026,0.0,0.0,0.0,0.0,0.0,0.0,0.0,0.0,0.0,-0.08855200592578241,-0.5289859967128397,9.810145831832026,0.0,0.0,0.0,0.0,0.0,0.0,0.0,0.0,0.0
2025/05/21 13:11:46.631575341,1747825906,631320534,mA1/imu,0.8397682295097191,0.5429445075489573,0.0004102431589143618,0.0006435286183348219,0.0,0.0,0.0,0.0,0.0,0.0,0.0,0.0,0.0,0.0004795819570081307,0.008716657049364423,0.005829112427765591,0.0,0.0,0.0,0.0,0.0,0.0,0.0,0.0,0.0,-0.07878805744554698,-0.6261060571421839,9.810347935537008,0.0,0.0,0.0,0.0,0.0,0.0,0.0,0.0,0.0
2025/05/21 13:11:46.680943786,1747825906,680759967,mA1/imu,0.8398648384268833,0.5427950066042392,0.0006160708704347021,0.0005044168631727311,0.0,0.0,0.0,0.0,0.0,0.0,0.0,0.0,0.0,-0.0011761897364977356,0.010603352532393157,0.007962742979859692,0.0,0.0,0.0,0.0,0.0,0.0,0.0,0.0,0.0,-0.08140469393680365,-0.10719969383574132,9.807459886705905,0.0,0.0,0.0,0.0,0.0,0.0,0.0,0.0,0.0
2025/05/21 13:11:46.732133590,1747825906,731992048,mA1/imu,0.8399893447413408,0.5426021318381338,0.0008430590052518614,0.00034131691862411984,0.0,0.0,0.0,0.0,0.0,0.0,0.0,0.0,0.0,-0.0014132540245966883,0.01156394001531485,0.010010130993032267,0.0,0.0,0.0,0.0,0.0,0.0,0.0,0.0,0.0,-0.07145520489690554,0.5005925664082929,9.80761306625116,0.0,0.0,0.0,0.0,0.0,0.0,0.0,0.0,0.0
2025/05/21 13:11:46.781883841,1747825906,781746145,mA1/imu,0.8401405214702393,0.5423676913465096,0.0010779842338033878,0.00017180559759151883,0.0,0.0,0.0,0.0,0.0,0.0,0.0,0.0,0.0,4.4807557215053564e-05,0.011703706487765768,0.011974260561577231,0.0,0.0,0.0,0.0,0.0,0.0,0.0,0.0,0.0,-0.08794313463400945,0.6132709080030971,9.816279673922747,0.0,0.0,0.0,0.0,0.0,0.0,0.0,0.0,0.0
2025/05/21 13:11:46.832923408,1747825906,832835000,mA1/imu,0.8403171994157298,0.5420934360093667,0.0013079681079732537,1.4869155346687699e-05,0.0,0.0,0.0,0.0,0.0,0.0,0.0,0.0,0.0,0.001651118154907919,0.010759684283090539,0.01380376939792891,0.0,0.0,0.0,0.0,0.0,0.0,0.0,0.0,0.0,-0.0805751792856965,0.10137961930527192,9.815485311027084,0.0,0.0,0.0,0.0,0.0,0.0,0.0,0.0,0.0
2025/05/21 13:11:46.882787477,1747825906,882624283,mA1/imu,0.8405183367135626,0.5417809628208327,0.0015163013254832478,-0.00012166958634840465,0.0,0.0,0.0,0.0,0.0,0.0,0.0,0.0,0.0,0.0019664604976684045,0.009097104094258478,0.015533954889159245,0.0,0.0,0.0,0.0,0.0,0.0,0.0,0.0,0.0,-0.04692991278716814,-0.5196463559629542,9.810056380906815,0.0,0.0,0.0,0.0,0.0,0.0,0.0,0.0,0.0
2025/05/21 13:11:46.934434057,1747825906,934194388,mA1/imu,0.8407428701978414,0.5414319189846711,0.0016881717903767552,-0.00023106725900777524,0.0,0.0,0.0,0.0,0.0,0.0,0.0,0.0,0.0,0.00045631430423683487,0.007117956814970769,0.01725084492700395,0.0,0.0,0.0,0.0,0.0,0.0,0.0,0.0,0.0,-0.041424301888762755,-0.6229399223084555,9.809251965547615,0.0,0.0,0.0,0.0,0.0,0.0,0.0,0.0,0.0
2025/05/21 13:11:46.984622477,1747825906,984413198,mA1/imu,0.840988429947143,0.5410500202668369,0.001800279609350266,-0.0003086383366439604,0.0,0.0,0.0,0.0,0.0,0.0,0.0,0.0,0.0,-0.001304701479196496,0.004331320344835109,0.01876005848693459,0.0,0.0,0.0,0.0,0.0,0.0,0.0,0.0,0.0,-0.047976249634872466,0.5288466985947751,9.809464614549674,0.0,0.0,0.0,0.0,0.0,0.0,0.0,0.0,0.0
2025/05/21 13:11:47.35962408,1747825907,35663686,mA1/imu,0.8412536819134024,0.5406373162601581,0.001848767277135851,-0.0003420434369655524,0.0,0.0,0.0,0.0,0.0,0.0,0.0,0.0,0.0,-0.0010434677190306984,0.0010759816251622771,0.02018414551918567,0.0,0.0,0.0,0.0,0.0,0.0,0.0,0.0,0.0,-0.0422755592621596,0.37511261254168193,9.80726191601996,0.0,0.0,0.0,0.0,0.0,0.0,0.0,0.0,0.0
2025/05/21 13:11:47.76058107,1747825907,75787661,mA1/imu,0.8415375884275722,0.5401953529813441,0.0018328649385922586,-0.0003293736235410419,0.0,0.0,0.0,0.0,0.0,0.0,0.0,0.0,0.0,-0.0009215382219566057,-0.0020553969239359535,0.021561877884583077,0.0,0.0,0.0,0.0,0.0,0.0,0.0,0.0,0.0,-0.04476897924430827,-0.00455339517300476,9.805511026193091,0.0,0.0,0.0,0.0,0.0,0.0,0.0,0.0,0.0
2025/05/21 13:11:47.127899063,1747825907,127647803,mA1/imu,0.8418392200148912,0.5397254758084661,0.001750495498799711,-0.0002723482206830729,0.0,0.0,0.0,0.0,0.0,0.0,0.0,0.0,0.0,4.640848144870635e-05,-0.005245970800827462,0.022837228737915716,0.0,0.0,0.0,0.0,0.0,0.0,0.0,0.0,0.0,-0.04109404583096306,0.015808938911031335,9.80675132080356,0.0,0.0,0.0,0.0,0.0,0.0,0.0,0.0,0.0
2025/05/21 13:11:47.177296073,1747825907,176957921,mA1/imu,0.8421575303050396,0.5392291566200221,0.0016059881995372526,-0.00017777311151694,0.0,0.0,0.0,0.0,0.0,0.0,0.0,0.0,0.0,0.00014735967091194553,-0.007958972411683817,0.024079976373310295,0.0,0.0,0.0,0.0,0.0,0.0,0.0,0.0,0.0,-0.04455793217485861,0.026193126712393607,9.808129155788533,0.0,0.0,0.0,0.0,0.0,0.0,0.0,0.0,0.0
2025/05/21 13:11:47.228603281,1747825907,228240799,mA1/imu,0.8424921753852994,0.5387067210172078,0.0014146646981064391,-4.3234546985760464e-05,0.0,0.0,0.0,0.0,0.0,0.0,0.0,0.0,0.0,-0.00046323267973429316,-0.010162358588030027,0.025319391563275038,0.0,0.0,0.0,0.0,0.0,0.0,0.0,0.0,0.0,-0.05527974022201236,0.3434230477214242,9.812917616515847,0.0,0.0,0.0,0.0,0.0,0.0,0.0,0.0,0.0
2025/05/21 13:11:47.280524648,1747825907,280263534,mA1/imu,0.8428404454994645,0.5381622272185448,0.0011773610967104372,0.00012019271071319747,0.0,0.0,0.0,0.0,0.0,0.0,0.0,0.0,0.0,-0.00037104179263589964,-0.01305349996040458,0.025796706356375026,0.0,0.0,0.0,0.0,0.0,0.0,0.0,0.0,0.0,0.05353304935927211,-0.010591707442782422,9.808782141982315,0.0,0.0,0.0,0.0,0.0,0.0,0.0,0.0,0.0
2025/05/21 13:11:47.331523452,1747825907,331382656,mA1/imu,0.8431822487855002,0.5376270569760222,0.0008553553527912819,0.00033362785881675553,0.0,0.0,0.0,0.0,0.0,0.0,0.0,0.0,0.0,0.00018787921278205454,-0.016923890596291496,0.025122679393904626,0.0,0.0,0.0,0.0,0.0,0.0,0.0,0.0,0.0,0.045121357777954466,0.037906614874515715,9.806700119148315,0.0,0.0,0.0,0.0,0.0,0.0,0.0,0.0,0.0
2025/05/21 13:11:47.381511710,1747825907,381175041,mA1/imu,0.8435140140902622,0.5371066205530814,0.000471405226826992,0.0006032980134148401,0.0,0.0,0.0,0.0,0.0,0.0,0.0,0.0,0.0,-0.00040171640293360574,-0.019924195385793035,0.024260325941304017,0.0,0.0,0.0,0.0,0.0,0.0,0.0,0.0,0.0,0.05693157153427884,-0.011634381147158404,9.811466696006153,0.0,0.0,0.0,0.0,0.0,0.0,0.0,0.0,0.0
2025/05/21 13:11:47.433013205,1747825907,432835859,mA1/imu,0.843829995027433,0.536609839052556,3.682843499286571e-05,0.0009048578112086751,0.0,0.0,0.0,0.0,0.0,0.0,0.0,0.0,0.0,0.0002507244482837411,-0.02181703531380243,0.023067766127694615,0.0,0.0,0.0,0.0,0.0,0.0,0.0,0.0,0.0,0.04578835324497022,-0.5830997209727456,9.80976259448701,0.0,0.0,0.0,0.0,0.0,0.0,0.0,0.0,0.0
2025/05/21 13:11:47.482258032,1747825907,482017990,mA1/imu,0.8441301081042908,0.5361368129966703,-0.00041623836426853464,0.0012268199687623955,0.0,0.0,0.0,0.0,0.0,0.0,0.0,0.0,0.0,-0.00044912728509583833,-0.022339895386161587,0.021938489923919623,0.0,0.0,0.0,0.0,0.0,0.0,0.0,0.0,0.0,0.04406827618921581,-0.4084252682408313,9.81224370124807,0.0,0.0,0.0,0.0,0.0,0.0,0.0,0.0,0.0
2025/05/21 13:11:47.533338457,1747825907,533186709,mA1/imu,0.8444147491327989,0.5356870262448165,-0.0008582558254732063,0.0015507278664573859,0.0,0.0,0.0,0.0,0.0,0.0,0.0,0.0,0.0,-0.001784069398520851,-0.021441975151934224,0.020830356784252074,0.0,0.0,0.0,0.0,0.0,0.0,0.0,0.0,0.0,0.036732821954514425,-0.13069942713008836,9.81168821934079,0.0,0.0,0.0,0.0,0.0,0.0,0.0,0.0,0.0
2025/05/21 13:11:47.583309249,1747825907,582979561,mA1/imu,0.8446844334502,0.535259952196291,-0.0012783162657043715,0.0018323125453155362,0.0,0.0,0.0,0.0,0.0,0.0,0.0,0.0,0.0,-0.0026286676366133934,-0.019185812080799412,0.01976500479187579,0.0,0.0,0.0,0.0,0.0,0.0,0.0,0.0,0.0,0.0254368151901462,0.4972657840740197,9.810856239794541,0.0,0.0,0.0,0.0,0.0,0.0,0.0,0.0,0.0
2025/05/21 13:11:47.634249585,1747825907,633897511,mA1/imu,0.8449393250197563,0.5348555882512572,-0.00163016514532323,0.002092680854595681,0.0,0.0,0.0,0.0,0.0,0.0,0.0,0.0,0.0,-0.0007945049937129894,-0.01607803186929111,0.018685701546789547,0.0,0.0,0.0,0.0,0.0,0.0,0.0,0.0,0.0,0.01925303745862028,0.6269492896081704,9.813361435795915,0.0,0.0,0.0,0.0,0.0,0.0,0.0,0.0,0.0
2025/05/21 13:11:47.684185380,1747825907,683947892,mA1/imu,0.8451801447872056,0.5344732096546854,-0.0019022558900443024,0.0023005306835220517,0.0,0.0,0.0,0.0,0.0,0.0,0.0,0.0,0.0,-0.000619831652363956,-0.011964277264737207,0.01767485231890613,0.0,0.0,0.0,0.0,0.0,0.0,0.0,0.0,0.0,0.02136131106672777,-0.3594271101776085,9.813146528125898,0.0,0.0,0.0,0.0,0.0,0.0,0.0,0.0,0.0
2025/05/21 13:11:47.736341078,1747825907,735534949,mA1/imu,0.8454079116148903,0.534111562429849,-0.0020823695841151522,0.002442456675233954,0.0,0.0,0.0,0.0,0.0,0.0,0.0,0.0,0.0,-0.0007756170366623292,-0.007208076374935742,0.01669172929811664,0.0,0.0,0.0,0.0,0.0,0.0,0.0,0.0,0.0,0.017474714928085756,0.3842557414618966,9.812962858262502,0.0,0.0,0.0,0.0,0.0,0.0,0.0,0.0,0.0
2025/05/21 13:11:47.785487427,1747825907,784906468,mA1/imu,0.8456226788042873,0.5337708271110095,-0.0021621458104183057,0.0025128355665177612,0.0,0.0,0.0,0.0,0.0,0.0,0.0,0.0,0.0,-0.00013681756458048497,-0.0021747717499757406,0.015732786595992494,0.0,0.0,0.0,0.0,0.0,0.0,0.0,0.0,0.0,0.019237217914056817,0.013607475151483143,9.813561012381168,0.0,0.0,0.0,0.0,0.0,0.0,0.0,0.0,0.0
2025/05/21 13:11:47.836314457,1747825907,836127954,mA1/imu,0.8458253117194957,0.533449762714971,-0.0021316606829004034,0.0025196699569473035,0.0,0.0,0.0,0.0,0.0,0.0,0.0,0.0,0.0,-0.0014002809985629618,0.0028507252182873462,0.014825548630128573,0.0,0.0,0.0,0.0,0.0,0.0,0.0,0.0,0.0,0.021815629400138578,0.5326857328633117,9.81343381978971,0.0,0.0,0.0,0.0,0.0,0.0,0.0,0.0,0.0
2025/05/21 13:11:47.875939331,1747825907,875690315,mA1/imu,0.846015928954331,0.5331482197678926,-0.0020058272568376926,0.0024495654478186323,0.0,0.0,0.0,0.0,0.0,0.0,0.0,0.0,0.0,0.00026531180261340397,0.007641764020161244,0.013922614600133774,0.0,0.0,0.0,0.0,0.0,0.0,0.0,0.0,0.0,0.021530489188379277,0.008767790645274852,9.811748516728334,0.0,0.0,0.0,0.0,0.0,0.0,0.0,0.0,0.0
2025/05/21 13:11:47.927305889,1747825907,927041136,mA1/imu,0.8461952687968832,0.5328649088704939,-0.0017866288877625954,0.0023160132616099694,0.0,0.0,0.0,0.0,0.0,0.0,0.0,0.0,0.0,0.0003006328881276755,0.011881116978281078,0.01308324158527654,0.0,0.0,0.0,0.0,0.0,0.0,0.0,0.0,0.0,0.027778263543435416,-0.008708400107547837,9.808559491692161,0.0,0.0,0.0,0.0,0.0,0.0,0.0,0.0,0.0
2025/05/21 13:11:47.977318291,1747825907,977093203,mA1/imu,0.8463633741150478,0.5325995652517537,-0.0014929408312708533,0.0021244241358322606,0.0,0.0,0.0,0.0,0.0,0.0,0.0,0.0,0.0,0.001459553297750318,0.015272166618616178,0.012245872306502726,0.0,0.0,0.0,0.0,0.0,0.0,0.0,0.0,0.0,0.03429697924927275,-0.5778237981450954,9.807805898063815,0.0,0.0,0.0,0.0,0.0,0.0,0.0,0.0,0.0
2025/05/21 13:11:48.29596145,1747825908,29271539,mA1/imu,0.8465207295107414,0.5323511785932972,-0.0011403899164198477,0.0018912085469340663,0.0,0.0,0.0,0.0,0.0,0.0,0.0,0.0,0.0,0.00010688765020014813,0.017816266582836804,0.011468747338354955,0.0,0.0,0.0,0.0,0.0,0.0,0.0,0.0,0.0,0.03531235171838856,0.5715491042304389,9.810524972451232,0.0,0.0,0.0,0.0,0.0,0.0,0.0,0.0,0.0
2025/05/21 13:11:48.79217986,1747825908,78361376,mA1/imu,0.8466676825755549,0.5321189821987113,-0.0007493240546868654,0.0016317412196947948,0.0,0.0,0.0,0.0,0.0,0.0,0.0,0.0,0.0,4.1669309517790125e-05,0.019238774921966396,0.010709543375482541,0.0,0.0,0.0,0.0,0.0,0.0,0.0,0.0,0.0,0.03824815741831038,-0.07869898404197326,9.810401095320403,0.0,0.0,0.0,0.0,0.0,0.0,0.0,0.0,0.0
2025/05/21 13:11:48.130827171,1747825908,130509161,mA1/imu,0.8468045475123241,0.5319023511606358,-0.0003519500950987125,0.0013502864014967467,0.0,0.0,0.0,0.0,0.0,0.0,0.0,0.0,0.0,0.0018792821405564527,0.019441882457923287,0.00997888292657654,0.0,0.0,0.0,0.0,0.0,0.0,0.0,0.0,0.0,0.04727952312344899,-0.5986156205343328,9.805805679203102,0.0,0.0,0.0,0.0,0.0,0.0,0.0,0.0,0.0
2025/05/21 13:11:48.180351116,1747825908,179886629,mA1/imu,0.8469317263363645,0.5317005776411008,3.442135169055659e-05,0.0010702692164310057,0.0,0.0,0.0,0.0,0.0,0.0,0.0,0.0,0.0,0.0019178148084196074,0.0186051691361645,0.009278845959143137,0.0,0.0,0.0,0.0,0.0,0.0,0.0,0.0,0.0,0.04794093646066637,0.02103401878926114,9.806615003784525,0.0,0.0,0.0,0.0,0.0,0.0,0.0,0.0,0.0
2025/05/21 13:11:48.231665210,1747825908,231432061,mA1/imu,0.8470496435899634,0.5315130161424723,0.0003922637790001716,0.0008130771031761002,0.0,0.0,0.0,0.0,0.0,0.0,0.0,0.0,0.0,0.0004572133191736137,0.016760665695079797,0.008612320434414055,0.0,0.0,0.0,0.0,0.0,0.0,0.0,0.0,0.0,0.04950851762312367,0.5462372266312484,9.80934007026194,0.0,0.0,0.0,0.0,0.0,0.0,0.0,0.0,0.0
2025/05/21 13:11:48.281099726,1747825908,280783049,mA1/imu,0.8471597879776173,0.531337428147896,0.0007004755825813835,0.0005834525312500972,0.0,0.0,0.0,0.0,0.0,0.0,0.0,0.0,0.0,0.0006829740244766177,0.014518303146211053,0.008264606895742209,0.0,0.0,0.0,0.0,0.0,0.0,0.0,0.0,0.0,0.009535507243368897,-0.06869662669793633,9.808487893965344,0.0,0.0,0.0,0.0,0.0,0.0,0.0,0.0,0.0
2025/05/21 13:11:48.332611668,1747825908,332418668,mA1/imu,0.8472706521417949,0.5311604090247521,0.0009593708623302898,0.0003761800422261378,0.0,0.0,0.0,0.0,0.0,0.0,0.0,0.0,0.0,0.0022129789588760645,0.012184328758310272,0.00843199582619117,0.0,0.0,0.0,0.0,0.0,0.0,0.0,0.0,0.0,0.014157626662726996,-0.5974850509837497,9.804512359732039,0.0,0.0,0.0,0.0,0.0,0.0,0.0,0.0,0.0
2025/05/21 13:11:48.382433942,1747825908,382045291,mA1/imu,0.8473836026991383,0.5309798858775159,0.0011612044739535293,0.00020560714728998588,0.0,0.0,0.0,0.0,0.0,0.0,0.0,0.0,0.0,0.0020478228124061752,0.009214685724070002,0.008591710992405927,0.0,0.0,0.0,0.0,0.0,0.0,0.0,0.0,0.0,0.014924759329046435,0.022633176509589042,9.80577279871906,0.0,0.0,0.0,0.0,0.0,0.0,0.0,0.0,0.0
2025/05/21 13:11:48.434926473,1747825908,434837554,mA1/imu,0.847498502600147,0.5307961919548562,0.0012975588130437897,8.389194680791744e-05,0.0,0.0,0.0,0.0,0.0,0.0,0.0,0.0,0.0,0.0004857182310965803,0.005803487554930748,0.008728854940232235,0.0,0.0,0.0,0.0,0.0,0.0,0.0,0.0,0.0,0.01605574769186967,0.5551312341577169,9.8102948056458,0.0,0.0,0.0,0.0,0.0,0.0,0.0,0.0,0.0
2025/05/21 13:11:48.477255115,1747825908,476702763,mA1/imu,0.8476152459298998,0.5306095988603989,0.001359523805628936,1.2626317624393215e-05,0.0,0.0,0.0,0.0,0.0,0.0,0.0,0.0,0.0,0.001434609310314154,0.0021139084416216952,0.008854572761423062,0.0,0.0,0.0,0.0,0.0,0.0,0.0,0.0,0.0,0.016490783363432748,-0.5224825866603184,9.808524644722388,0.0,0.0,0.0,0.0,0.0,0.0,0.0,0.0,0.0
2025/05/21 13:11:48.528773361,1747825908,527878559,mA1/imu,0.8477333459082912,0.5304209428254634,0.001340720942104146,-1.070678911134612e-05,0.0,0.0,0.0,0.0,0.0,0.0,0.0,0.0,0.0,0.0020951196526906744,-0.0016510166300874227,0.008942477495163052,0.0,0.0,0.0,0.0,0.0,0.0,0.0,0.0,0.0,0.015237487982589622,-0.5714201722980272,9.807220192601363,0.0,0.0,0.0,0.0,0.0,0.0,0.0,0.0,0.0
2025/05/21 13:11:48.577824508,1747825908,577609064,mA1/imu,0.8478528546284831,0.5302301139826564,0.0012500008815722339,2.4941280956289054e-05,0.0,0.0,0.0,0.0,0.0,0.0,0.0,0.0,0.0,0.0002119171355446832,-0.005260177840415452,0.009041145188646354,0.0,0.0,0.0,0.0,0.0,0.0,0.0,0.0,0.0,0.01610401916158005,0.5741724444044244,9.810098776488104,0.0,0.0,0.0,0.0,0.0,0.0,0.0,0.0,0.0
2025/05/21 13:11:48.629955905,1747825908,629660646,mA1/imu,0.8479736651191357,0.5300372182126042,0.001094332397320692,0.0001140634393779827,0.0,0.0,0.0,0.0,0.0,0.0,0.0,0.0,0.0,-0.000393700614225207,-0.008371146821709094,0.009143715149040351,0.0,0.0,0.0,0.0,0.0,0.0,0.0,0.0,0.0,0.008126543682833092,-0.07952596149559599,9.809004572541737,0.0,0.0,0.0,0.0,0.0,0.0,0.0,0.0,0.0
2025/05/21 13:11:48.679161087,1747825908,678909297,mA1/imu,0.8480960307632988,0.5298417629883487,0.0008787899834967752,0.00023775008152929948,0.0,0.0,0.0,0.0,0.0,0.0,0.0,0.0,0.0,0.0009487010618323457,-0.010912344060046996,0.009270348319675813,0.0,0.0,0.0,0.0,0.0,0.0,0.0,0.0,0.0,0.006185754987784363,-0.5947132864391277,9.808711018286122,0.0,0.0,0.0,0.0,0.0,0.0,0.0,0.0,0.0
2025/05/21 13:11:48.730497323,1747825908,730230881,mA1/imu,0.8482198549223803,0.5296437835803034,0.0006214241533726906,0.00039250760289430604,0.0,0.0,0.0,0.0,0.0,0.0,0.0,0.0,0.0,0.00039386891538514314,-0.012660417893305022,0.0093770803714646,0.0,0.0,0.0,0.0,0.0,0.0,0.0,0.0,0.0,0.00041297987354714516,0.14664971901123447,9.813827789404243,0.0,0.0,0.0,0.0,0.0,0.0,0.0,0.0,0.0
2025/05/21 13:11:48.781088854,1747825908,780036887,mA1/imu,0.8483449252436028,0.5294435174469518,0.0003430062496162577,0.000576188803814413,0.0,0.0,0.0,0.0,0.0,0.0,0.0,0.0,0.0,0.0006843808953543921,-0.013714480924469958,0.009458743378274244,0.0,0.0,0.0,0.0,0.0,0.0,0.0,0.0,0.0,0.002795095866949346,-0.2519867002503524,9.811221699312675,0.0,0.0,0.0,0.0,0.0,0.0,0.0,0.0,0.0
2025/05/21 13:11:48.831829476,1747825908,831548019,mA1/imu,0.848471161773782,0.5292410435995764,6.05871265651637e-05,0.0007757171391897807,0.0,0.0,0.0,0.0,0.0,0.0,0.0,0.0,0.0,6.044579062781597e-05,-0.01384845452338525,0.009586166215579379,0.0,0.0,0.0,0.0,0.0,0.0,0.0,0.0,0.0,-0.005353057381195299,-0.5593758334760321,9.809028622434129,0.0,0.0,0.0,0.0,0.0,0.0,0.0,0.0,0.0
2025/05/21 13:11:48.881559479,1747825908,881087101,mA1/imu,0.848598689646572,0.5290361721179554,-0.00021662788066851088,0.0009724161985124498,0.0,0.0,0.0,0.0,0.0,0.0,0.0,0.0,0.0,-0.000140648804020789,-0.013303990592016219,0.009666206941025426,0.0,0.0,0.0,0.0,0.0,0.0,0.0,0.0,0.0,-0.005997418531159537,-0.6035013836567477,9.814825736601138,0.0,0.0,0.0,0.0,0.0,0.0,0.0,0.0,0.0
2025/05/21 13:11:48.932458906,1747825908,932287069,mA1/imu,0.8487267533712305,0.5288301588010615,-0.00047076436799943885,0.001157426146427719,0.0,0.0,0.0,0.0,0.0,0.0,0.0,0.0,0.0,-0.001175060907322651,-0.011967897225113424,0.009722107813302369,0.0,0.0,0.0,0.0,0.0,0.0,0.0,0.0,0.0,-0.007938607344263902,-0.032538039407816535,9.814342836472349,0.0,0.0,0.0,0.0,0.0,0.0,0.0,0.0,0.0
2025/05/21 13:11:48.982342688,1747825908,982045326,mA1/imu,0.8488539344603907,0.5286253616466485,-0.0006930492785891861,0.001320854936105655,0.0,0.0,0.0,0.0,0.0,0.0,0.0,0.0,0.0,3.113712672106433e-05,-0.010600617398465422,0.00940512227634478,0.0,0.0,0.0,0.0,0.0,0.0,0.0,0.0,0.0,0.03635247318516073,-0.5404675716495505,9.812692054150117,0.0,0.0,0.0,0.0,0.0,0.0,0.0,0.0,0.0
2025/05/21 13:11:49.34036194,1747825909,33859588,mA1/imu,0.8489714332643347,0.528435938389111,-0.0008889579232813221,0.0014745418718659325,0.0,0.0,0.0,0.0,0.0,0.0,0.0,0.0,0.0,-0.0004063749729174797,-0.009389684301741358,0.008576491233888657,0.0,0.0,0.0,0.0,0.0,0.0,0.0,0.0,0.0,0.029616442056389705,0.2799117583891695,9.811847103644064,0.0,0.0,0.0,0.0,0.0,0.0,0.0,0.0,0.0
2025/05/21 13:11:49.83302888,1747825909,82963338,mA1/imu,0.8490782703617108,0.5282635649464059,-0.001050512421062516,0.0016103332987311252,0.0,0.0,0.0,0.0,0.0,0.0,0.0,0.0,0.0,-3.773328605194861e-05,-0.007636556966052636,0.007814587698127045,0.0,0.0,0.0,0.0,0.0,0.0,0.0,0.0,0.0,0.03098832811478997,0.09094810233678777,9.812334201336295,0.0,0.0,0.0,0.0,0.0,0.0,0.0,0.0,0.0
2025/05/21 13:11:49.134826630,1747825909,134519448,mA1/imu,0.8491752255143917,0.5281070913867199,-0.0011621253485289635,0.0017279653685774474,0.0,0.0,0.0,0.0,0.0,0.0,0.0,0.0,0.0,-0.0016123488986940794,-0.005396291977596519,0.007067144259483212,0.0,0.0,0.0,0.0,0.0,0.0,0.0,0.0,0.0,0.029914280390374068,-0.05478059188628728,9.811471163800126,0.0,0.0,0.0,0.0,0.0,0.0,0.0,0.0,0.0
2025/05/21 13:11:49.184625636,1747825909,184264950,mA1/imu,0.8492624759195321,0.5279663544892269,-0.0012278861936919048,0.0018077106730924482,0.0,0.0,0.0,0.0,0.0,0.0,0.0,0.0,0.0,-0.0013330314477413676,-0.002941154625164649,0.006327386817100322,0.0,0.0,0.0,0.0,0.0,0.0,0.0,0.0,0.0,0.03000190598828182,-0.6700503181986011,9.810993712105573,0.0,0.0,0.0,0.0,0.0,0.0,0.0,0.0,0.0
2025/05/21 13:11:49.235686914,1747825909,235525450,mA1/imu,0.8493403395190068,0.5278409227096531,-0.0012472530632097545,0.0018418302192274702,0.0,0.0,0.0,0.0,0.0,0.0,0.0,0.0,0.0,-0.0009462810805505536,-0.0003294960184515349,0.005622411581397634,0.0,0.0,0.0,0.0,0.0,0.0,0.0,0.0,0.0,0.030077564260516422,-0.18643169063753073,9.810500979190135,0.0,0.0,0.0,0.0,0.0,0.0,0.0,0.0,0.0
2025/05/21 13:11:49.285544236,1747825909,285348121,mA1/imu,0.8494092794352431,0.5277300565214299,-0.001211774448159844,0.0018425677399516159,0.0,0.0,0.0,0.0,0.0,0.0,0.0,0.0,0.0,-0.0010323032390056068,0.002202023502092942,0.0049643829894873825,0.0,0.0,0.0,0.0,0.0,0.0,0.0,0.0,0.0,0.02964832304850302,0.16496022870511096,9.80887350324602,0.0,0.0,0.0,0.0,0.0,0.0,0.0,0.0,0.0
2025/05/21 13:11:49.326394446,1747825909,326269297,mA1/imu,0.8494697641324773,0.5276329915349308,-0.0011250469252984477,0.0018111703478649603,0.0,0.0,0.0,0.0,0.0,0.0,0.0,0.0,0.0,-0.0005868529106000701,0.0045147471965861705,0.004328767499676748,0.0,0.0,0.0,0.0,0.0,0.0,0.0,0.0,0.0,0.03234183807971722,-0.03051384277690167,9.807953464182443,0.0,0.0,0.0,0.0,0.0,0.0,0.0,0.0,0.0
2025/05/21 13:11:49.376775144,1747825909,376314978,mA1/imu,0.8495219461552012,0.5275494602286399,-0.000998060370696354,0.001741806144940333,0.0,0.0,0.0,0.0,0.0,0.0,0.0,0.0,0.0,0.0007561316689984875,0.006527804533046055,0.0036735217785910483,0.0,0.0,0.0,0.0,0.0,0.0,0.0,0.0,0.0,0.03438403932562433,-0.5852157223622728,9.8090636083243,0.0,0.0,0.0,0.0,0.0,0.0,0.0,0.0,0.0
2025/05/21 13:11:49.427501219,1747825909,427313976,mA1/imu,0.8495655339566132,0.5274798673082829,-0.0008360778376175117,0.0016413626352553337,0.0,0.0,0.0,0.0,0.0,0.0,0.0,0.0,0.0,0.0008230869234274976,0.008242973885265634,0.0030347855611768788,0.0,0.0,0.0,0.0,0.0,0.0,0.0,0.0,0.0,0.03701574198147045,-0.5992910514065486,9.81027553381249,0.0,0.0,0.0,0.0,0.0,0.0,0.0,0.0,0.0
2025/05/21 13:11:49.477463325,1747825909,477279910,mA1/imu,0.8496006367111659,0.5274239411078768,-0.0006435167420747338,0.001526542635757189,0.0,0.0,0.0,0.0,0.0,0.0,0.0,0.0,0.0,0.00015681039620974008,0.009321215120220666,0.0023917990711663515,0.0,0.0,0.0,0.0,0.0,0.0,0.0,0.0,0.0,0.04234512609416005,-0.03085877741334803,9.804050049271419,0.0,0.0,0.0,0.0,0.0,0.0,0.0,0.0,0.0
2025/05/21 13:11:49.529259822,1747825909,528801358,mA1/imu,0.8496275126258473,0.5273812259600015,-0.00044071890405404234,0.0013921425893206347,0.0,0.0,0.0,0.0,0.0,0.0,0.0,0.0,0.0,0.0006617083639356858,0.009885159540355681,0.0017806631828131425,0.0,0.0,0.0,0.0,0.0,0.0,0.0,0.0,0.0,0.0433681973132906,-0.6386066860299741,9.804913622317931,0.0,0.0,0.0,0.0,0.0,0.0,0.0,0.0,0.0
2025/05/21 13:11:49.578772534,1747825909,578516301,mA1/imu,0.8496438156327487,0.5273554410397039,-0.0002442927172376367,0.0012512729164086474,0.0,0.0,0.0,0.0,0.0,0.0,0.0,0.0,0.0,5.0765927260342876e-05,0.008922582195523651,0.0005317112200170804,0.0,0.0,0.0,0.0,0.0,0.0,0.0,0.0,0.0,0.12509026393758638,0.0338463918569997,9.80976965748339,0.0,0.0,0.0,0.0,0.0,0.0,0.0,0.0,0.0
2025/05/21 13:11:49.630470632,1747825909,630214711,mA1/imu,0.8496322284836197,0.5273744119923143,-0.0001101392207625463,0.0011374388208194232,0.0,0.0,0.0,0.0,0.0,0.0,0.0,0.0,0.0,0.00038558851934763827,0.005798580725717546,-0.0017900828052729231,0.0,0.0,0.0,0.0,0.0,0.0,0.0,0.0,0.0,0.11781101238495868,0.5908302384499335,9.808137560274412,0.0,0.0,0.0,0.0,0.0,0.0,0.0,0.0,0.0
2025/05/21 13:11:49.679698153,1747825909,679449284,mA1/imu,0.849590500952086,0.5274417712260033,-3.8778147325220546e-05,0.001075711027695611,0.0,0.0,0.0,0.0,0.0,0.0,0.0,0.0,0.0,-0.00016717134428555116,0.002433278161461857,-0.004062360321073198,0.0,0.0,0.0,0.0,0.0,0.0,0.0,0.0,0.0,0.11529295885331768,0.5405901083019721,9.810134503931215,0.0,0.0,0.0,0.0,0.0,0.0,0.0,0.0,0.0
2025/05/21 13:11:49.731780956,1747825909,731232668,mA1/imu,0.8495200668347888,0.5275552622807861,-4.109729174359112e-05,0.001048616173575465,0.0,0.0,0.0,0.0,0.0,0.0,0.0,0.0,0.0,0.0012027956832875667,-0.0007770663243627901,-0.006207382094314961,0.0,0.0,0.0,0.0,0.0,0.0,0.0,0.0,0.0,0.12789933790199828,-0.6548661806057653,9.804665956775489,0.0,0.0,0.0,0.0,0.0,0.0,0.0,0.0,0.0
2025/05/21 13:11:49.780731275,1747825909,780504391,mA1/imu,0.849421693335908,0.5277136219551624,-0.0001129703442285029,0.0010522979731078805,0.0,0.0,0.0,0.0,0.0,0.0,0.0,0.0,0.0,0.0008318591928095944,-0.003525446969841556,-0.008237988346104974,0.0,0.0,0.0,0.0,0.0,0.0,0.0,0.0,0.0,0.1043127330453783,-0.05519094076497835,9.81131723068111,0.0,0.0,0.0,0.0,0.0,0.0,0.0,0.0,0.0
2025/05/21 13:11:49.832803726,1747825909,832356766,mA1/imu,0.849297562096485,0.5279132584778683,-0.0002413043237207224,0.0010882612139800913,0.0,0.0,0.0,0.0,0.0,0.0,0.0,0.0,0.0,0.0008873939992202484,-0.005735247980008218,-0.010011185213051678,0.0,0.0,0.0,0.0,0.0,0.0,0.0,0.0,0.0,0.052407534538107994,0.24461225028915598,9.812195631955905,0.0,0.0,0.0,0.0,0.0,0.0,0.0,0.0,0.0
2025/05/21 13:11:49.881769263,1747825909,881579320,mA1/imu,0.849160257705359,0.5281339064912125,-0.00038052096227087607,0.0011352320893545345,0.0,0.0,0.0,0.0,0.0,0.0,0.0,0.0,0.0,0.0003300103595394925,-0.005387978870753322,-0.010518430169664191,0.0,0.0,0.0,0.0,0.0,0.0,0.0,0.0,0.0,0.009980893645986845,0.4291266435503418,9.813525364448749,0.0,0.0,0.0,0.0,0.0,0.0,0.0,0.0,0.0
2025/05/21 13:11:49.933289107,1747825909,933064930,mA1/imu,0.8490173447116484,0.5283634297667528,-0.0005062247635899486,0.0011739677953040168,0.0,0.0,0.0,0.0,0.0,0.0,0.0,0.0,0.0,0.0020084041245586426,-0.004890880420886065,-0.011092109500723724,0.0,0.0,0.0,0.0,0.0,0.0,0.0,0.0,0.0,0.0409311877292076,-0.19685465747330885,9.817291138278415,0.0,0.0,0.0,0.0,0.0,0.0,0.0,0.0,0.0
2025/05/21 13:11:49.982676603,1747825909,982453093,mA1/imu,0.8488663683814737,0.5286057647560106,-0.0006132348948961818,0.0012074934885335591,0.0,0.0,0.0,0.0,0.0,0.0,0.0,0.0,0.0,0.0006570171637398173,-0.003763687358384397,-0.011519198257406691,0.0,0.0,0.0,0.0,0.0,0.0,0.0,0.0,0.0,0.007819325628704483,0.4874271866565749,9.813574818487293,0.0,0.0,0.0,0.0,0.0,0.0,0.0,0.0,0.0
2025/05/21 13:11:50.34388468,1747825910,34138447,mA1/imu,0.8487107001213077,0.5288555208525035,-0.0006900933648107835,0.0012285497852564315,0.0,0.0,0.0,0.0,0.0,0.0,0.0,0.0,0.0,0.00037903671555108347,-0.0026450659092960987,-0.012011316262426413,0.0,0.0,0.0,0.0,0.0,0.0,0.0,0.0,0.0,0.0348867624822132,-0.055414304928678694,9.812981114017992,0.0,0.0,0.0,0.0,0.0,0.0,0.0,0.0,0.0
2025/05/21 13:11:50.83563704,1747825910,83367276,mA1/imu,0.8485479462844234,0.5291165342879862,-0.0007405323738107299,0.0012359657604851177,0.0,0.0,0.0,0.0,0.0,0.0,0.0,0.0,0.0,0.00141414110732054,-0.001175573010396256,-0.012404604284617225,0.0,0.0,0.0,0.0,0.0,0.0,0.0,0.0,0.0,0.007077031274143542,-0.5984933309738972,9.813546467079268,0.0,0.0,0.0,0.0,0.0,0.0,0.0,0.0,0.0
2025/05/21 13:11:50.135116179,1747825910,134756582,mA1/imu,0.8483806636712742,0.5293847149647403,-0.000753698511282417,0.0012267880596884108,0.0,0.0,0.0,0.0,0.0,0.0,0.0,0.0,0.0,0.0010652464370959438,0.00025434914601130983,-0.01286833457622063,0.0,0.0,0.0,0.0,0.0,0.0,0.0,0.0,0.0,0.02801212875768015,0.03496319615226608,9.811559420611601,0.0,0.0,0.0,0.0,0.0,0.0,0.0,0.0,0.0
2025/05/21 13:11:50.185250411,1747825910,184284865,mA1/imu,0.8482057359158459,0.5296650099793846,-0.0007346885248856122,0.001211196007321138,0.0,0.0,0.0,0.0,0.0,0.0,0.0,0.0,0.0,-0.0005983281220078842,0.001493690556648284,-0.013440555171856435,0.0,0.0,0.0,0.0,0.0,0.0,0.0,0.0,0.0,0.027842079892268758,0.5253983199193716,9.812381073936994,0.0,0.0,0.0,0.0,0.0,0.0,0.0,0.0,0.0
2025/05/21 13:11:50.236285024,1747825910,235991886,mA1/imu,0.8480233126112983,0.5299571543487499,-0.0006882558806012018,0.001184114090114854,0.0,0.0,0.0,0.0,0.0,0.0,0.0,0.0,0.0,0.0002680216068772653,0.002574708771534596,-0.014003450847745283,0.0,0.0,0.0,0.0,0.0,0.0,0.0,0.0,0.0,0.03861153563561707,-0.6225300822002116,9.81108085641092,0.0,0.0,0.0,0.0,0.0,0.0,0.0,0.0,0.0
2025/05/21 13:11:50.275967046,1747825910,275732860,mA1/imu,0.8478360783354122,0.5302568268714922,-0.0006115391026357956,0.0011436122293052228,0.0,0.0,0.0,0.0,0.0,0.0,0.0,0.0,0.0,-0.000199154314209215,0.004172537235510081,-0.014143725763853634,0.0,0.0,0.0,0.0,0.0,0.0,0.0,0.0,0.0,0.006959069273268854,-0.06358590982251704,9.81363036909761,0.0,0.0,0.0,0.0,0.0,0.0,0.0,0.0,0.0
2025/05/21 13:11:50.327663535,1747825910,327409471,mA1/imu,0.8476441001885852,0.5305638681517836,-0.0005050612306428321,0.0010982442596971648,0.0,0.0,0.0,0.0,0.0,0.0,0.0,0.0,0.0,-0.0015727101383498916,0.0047991558676926185,-0.014710846494959962,0.0,0.0,0.0,0.0,0.0,0.0,0.0,0.0,0.0,0.036901765779073704,0.22408662920738914,9.808216975335888,0.0,0.0,0.0,0.0,0.0,0.0,0.0,0.0,0.0
2025/05/21 13:11:50.377519427,1747825910,377084892,mA1/imu,0.8474457955341317,0.5308807581786928,-0.00038551492134111483,0.0010467117006946625,0.0,0.0,0.0,0.0,0.0,0.0,0.0,0.0,0.0,-0.0014595526364604896,0.005544357829919692,-0.014997398360233673,0.0,0.0,0.0,0.0,0.0,0.0,0.0,0.0,0.0,0.006376075138761227,0.08020894247303667,9.811163056209782,0.0,0.0,0.0,0.0,0.0,0.0,0.0,0.0,0.0
2025/05/21 13:11:50.428794004,1747825910,428492586,mA1/imu,0.8472442329931142,0.5312025705481561,-0.00025304094175442016,0.0009872553989307197,0.0,0.0,0.0,0.0,0.0,0.0,0.0,0.0,0.0,0.00016649046501783298,0.005786569007719946,-0.015360351070580926,0.0,0.0,0.0,0.0,0.0,0.0,0.0,0.0,0.0,0.03218653670396541,-0.5579792421869286,9.809123099058851,0.0,0.0,0.0,0.0,0.0,0.0,0.0,0.0,0.0
2025/05/21 13:11:50.480289431,1747825910,479986757,mA1/imu,0.8470367020876594,0.5315335668434068,-0.00011560657557672,0.0009376941436125716,0.0,0.0,0.0,0.0,0.0,0.0,0.0,0.0,0.0,-0.0016628440263420595,0.005641951076621502,-0.015793090067006837,0.0,0.0,0.0,0.0,0.0,0.0,0.0,0.0,0.0,0.03194707372086571,0.579298833507102,9.810575057812121,0.0,0.0,0.0,0.0,0.0,0.0,0.0,0.0,0.0
2025/05/21 13:11:50.531720777,1747825910,531541267,mA1/imu,0.8468234293818241,0.5318733683321534,1.5951628492176756e-05,0.0008940103813397473,0.0,0.0,0.0,0.0,0.0,0.0,0.0,0.0,0.0,-0.0016696434952534177,0.005203002089165672,-0.016206186304885663,0.0,0.0,0.0,0.0,0.0,0.0,0.0,0.0,0.0,0.03245422545117779,-0.04393522320969329,9.808184747055053,0.0,0.0,0.0,0.0,0.0,0.0,0.0,0.0,0.0
2025/05/21 13:11:50.582595442,1747825910,582395384,mA1/imu,0.8466054068518636,0.5322203766748352,0.0001380695054673766,0.0008582995390994791,0.0,0.0,0.0,0.0,0.0,0.0,0.0,0.0,0.0,-0.0016674943270393167,0.004826299333023686,-0.016418050521035215,0.0,0.0,0.0,0.0,0.0,0.0,0.0,0.0,0.0,0.00840273439757757,-0.04413907867476109,9.807993706165925,0.0,0.0,0.0,0.0,0.0,0.0,0.0,0.0,0.0
2025/05/21 13:11:50.633850428,1747825910,633633431,mA1/imu,0.8463859324228139,0.532569356252449,0.0002482022413115532,0.0008201056415582267,0.0,0.0,0.0,0.0,0.0,0.0,0.0,0.0,0.0,-6.458583704416077e-05,0.0041997847893734085,-0.01661902415077819,0.0,0.0,0.0,0.0,0.0,0.0,0.0,0.0,0.0,0.030232849738089047,-0.5630792532939211,9.80655205641865,0.0,0.0,0.0,0.0,0.0,0.0,0.0,0.0,0.0
2025/05/21 13:11:50.683465582,1747825910,683239816,mA1/imu,0.8461622148219936,0.532924713485472,0.0003418186597802527,0.0007994522936676655,0.0,0.0,0.0,0.0,0.0,0.0,0.0,0.0,0.0,-0.0016291151764719718,0.0033551126014295355,-0.016822524288235136,0.0,0.0,0.0,0.0,0.0,0.0,0.0,0.0,0.0,0.009531655312430434,0.5757459836725288,9.808450320883905,0.0,0.0,0.0,0.0,0.0,0.0,0.0,0.0,0.0
2025/05/21 13:11:50.735147188,1747825910,734713580,mA1/imu,0.8459381391946654,0.5332802952234418,0.0004197564773005736,0.0007843384252567105,0.0,0.0,0.0,0.0,0.0,0.0,0.0,0.0,0.0,-0.0013137051881025948,0.0026048609864106377,-0.01685975190787008,0.0,0.0,0.0,0.0,0.0,0.0,0.0,0.0,0.0,0.03351859395177071,-0.03805778483675669,9.806714403856043,0.0,0.0,0.0,0.0,0.0,0.0,0.0,0.0,0.0
2025/05/21 13:11:50.784763097,1747825910,784322323,mA1/imu,0.845710929693842,0.5336405107665031,0.0004707477253297498,0.0007791417214579369,0.0,0.0,0.0,0.0,0.0,0.0,0.0,0.0,0.0,-0.0010184140535584,0.0014959538946218648,-0.017054113212130975,0.0,0.0,0.0,0.0,0.0,0.0,0.0,0.0,0.0,0.008564844076414661,-0.03255111795946933,9.806825046955161,0.0,0.0,0.0,0.0,0.0,0.0,0.0,0.0,0.0
2025/05/21 13:11:50.835984474,1747825910,835594461,mA1/imu,0.8454817320796864,0.5340035453277243,0.0004951698854646192,0.0007804509844442769,0.0,0.0,0.0,0.0,0.0,0.0,0.0,0.0,0.0,-0.0004818523063136606,0.0002921199138862864,-0.01729368841328718,0.0,0.0,0.0,0.0,0.0,0.0,0.0,0.0,0.0,0.028769351711156656,-0.010712636000989094,9.806931374012478,0.0,0.0,0.0,0.0,0.0,0.0,0.0,0.0,0.0
2025/05/21 13:11:50.885442585,1747825910,885215458,mA1/imu,0.8452482025829721,0.5343730889330557,0.0004911972740511874,0.0007978594095802875,0.0,0.0,0.0,0.0,0.0,0.0,0.0,0.0,0.0,-0.0003922613221283626,-0.0010060404053869219,-0.017617462176786308,0.0,0.0,0.0,0.0,0.0,0.0,0.0,0.0,0.0,0.02809022039379347,-0.02601421652604713,9.808124275118429,0.0,0.0,0.0,0.0,0.0,0.0,0.0,0.0,0.0
2025/05/21 13:11:50.926601569,1747825910,926341742,mA1/imu,0.8450102549636663,0.5347492737092012,0.00045671857582170987,0.0008213902019472641,0.0,0.0,0.0,0.0,0.0,0.0,0.0,0.0,0.0,-0.001842909018156516,-0.0020492853403462114,-0.017941307346977204,0.0,0.0,0.0,0.0,0.0,0.0,0.0,0.0,0.0,0.028040846202089346,0.47858503499480387,9.809207132847622,0.0,0.0,0.0,0.0,0.0,0.0,0.0,0.0,0.0
2025/05/21 13:11:50.976535288,1747825910,976248490,mA1/imu,0.8447673915131347,0.5351328623271415,0.00039287178834059066,0.0008482602270416484,0.0,0.0,0.0,0.0,0.0,0.0,0.0,0.0,0.0,0.0007379763948828946,-0.003068537437852471,-0.018291522539616602,0.0,0.0,0.0,0.0,0.0,0.0,0.0,0.0,0.0,0.020153088116020543,0.015488444474775567,9.808148693233571,0.0,0.0,0.0,0.0,0.0,0.0,0.0,0.0,0.0
2025/05/21 13:11:51.28379566,1747825911,28060409,mA1/imu,0.8445199007011868,0.5355233453482289,0.00031190163536150094,0.0008869182991669192,0.0,0.0,0.0,0.0,0.0,0.0,0.0,0.0,0.0,0.0015272259634260864,-0.0038526336411791617,-0.01864133136091915,0.0,0.0,0.0,0.0,0.0,0.0,0.0,0.0,0.0,0.01808198439148836,-0.12654857276165063,9.809002927657556,0.0,0.0,0.0,0.0,0.0,0.0,0.0,0.0,0.0
2025/05/21 13:11:51.77497731,1747825911,77242465,mA1/imu,0.844267691652703,0.5359208482012494,0.0002155845906862335,0.0009288799460284516,0.0,0.0,0.0,0.0,0.0,0.0,0.0,0.0,0.0,-3.069144357145777e-05,-0.004247342936367873,-0.01895884050205549,0.0,0.0,0.0,0.0,0.0,0.0,0.0,0.0,0.0,0.015792885489872285,0.5587981137021807,9.809540934378667,0.0,0.0,0.0,0.0,0.0,0.0,0.0,0.0,0.0
2025/05/21 13:11:51.129393015,1747825911,128900664,mA1/imu,0.8440108367419338,0.5363252335477221,0.00010907816828764866,0.0009692389363070913,0.0,0.0,0.0,0.0,0.0,0.0,0.0,0.0,0.0,0.0013856654169546912,-0.004460573661029975,-0.0192851255387269,0.0,0.0,0.0,0.0,0.0,0.0,0.0,0.0,0.0,0.012097794644070691,0.20198395010423184,9.809876792560862,0.0,0.0,0.0,0.0,0.0,0.0,0.0,0.0,0.0
2025/05/21 13:11:51.179287378,1747825911,178361463,mA1/imu,0.8437498256748878,0.5367357006533306,4.689613004547075e-06,0.0010096017941122527,0.0,0.0,0.0,0.0,0.0,0.0,0.0,0.0,0.0,0.0017074870581952433,-0.004393180987427064,-0.019611912999508516,0.0,0.0,0.0,0.0,0.0,0.0,0.0,0.0,0.0,0.024992484666705318,-0.6123832686627011,9.813760574926906,0.0,0.0,0.0,0.0,0.0,0.0,0.0,0.0,0.0
2025/05/21 13:11:51.230521909,1747825911,230116354,mA1/imu,0.8434844382395935,0.5371525955687259,-9.879685672354492e-05,0.001040077208348244,0.0,0.0,0.0,0.0,0.0,0.0,0.0,0.0,0.0,0.0012866746215606628,-0.003957127638164368,-0.019880347884448413,0.0,0.0,0.0,0.0,0.0,0.0,0.0,0.0,0.0,0.01599908088423435,-0.11187479128069908,9.813103451830699,0.0,0.0,0.0,0.0,0.0,0.0,0.0,0.0,0.0
2025/05/21 13:11:51.279622459,1747825911,279285270,mA1/imu,0.8432154484130264,0.5375746872521862,-0.00019241320249274344,0.0010612070921267205,0.0,0.0,0.0,0.0,0.0,0.0,0.0,0.0,0.0,0.0012834935343042058,-0.0032133510342380735,-0.02004714840716725,0.0,0.0,0.0,0.0,0.0,0.0,0.0,0.0,0.0,-0.0004505017848641397,-0.0150970749866146,9.813425140733438,0.0,0.0,0.0,0.0,0.0,0.0,0.0,0.0,0.0
2025/05/21 13:11:51.331315006,1747825911,330902912,mA1/imu,0.8429475426878658,0.5379946425670296,-0.00025944230386297875,0.00106655302448349,0.0,0.0,0.0,0.0,0.0,0.0,0.0,0.0,0.0,0.001129353668986019,-0.0016965504322714246,-0.019781904955340022,0.0,0.0,0.0,0.0,0.0,0.0,0.0,0.0,0.0,-0.013831044691285425,0.047311868881883344,9.813158665524652,0.0,0.0,0.0,0.0,0.0,0.0,0.0,0.0,0.0
2025/05/21 13:11:51.381624597,1747825911,381432645,mA1/imu,0.8426847079268589,0.5384062570568123,-0.0002903596338704374,0.0010493233921635428,0.0,0.0,0.0,0.0,0.0,0.0,0.0,0.0,0.0,0.0014051891351991486,3.371360700869757e-05,-0.019374592188328352,0.0,0.0,0.0,0.0,0.0,0.0,0.0,0.0,0.0,-0.012861804785611712,-0.07314547636154255,9.813239632283567,0.0,0.0,0.0,0.0,0.0,0.0,0.0,0.0,0.0
2025/05/21 13:11:51.433499151,1747825911,433256600,mA1/imu,0.8424270573167324,0.5388093878537487,-0.0002866002449078425,0.0010072346494381815,0.0,0.0,0.0,0.0,0.0,0.0,0.0,0.0,0.0,0.0012670716516216662,0.001705043720853929,-0.01898090465296065,0.0,0.0,0.0,0.0,0.0,0.0,0.0,0.0,0.0,-0.011415065708541814,-0.005068169071342117,9.812579908477149,0.0,0.0,0.0,0.0,0.0,0.0,0.0,0.0,0.0
2025/05/21 13:11:51.482546567,1747825911,482356693,mA1/imu,0.8421743922294125,0.5392043537454078,-0.00024762723182475687,0.0009469190940541492,0.0,0.0,0.0,0.0,0.0,0.0,0.0,0.0,0.0,0.0011090307885204432,0.0032126928906039223,-0.018604711577194667,0.0,0.0,0.0,0.0,0.0,0.0,0.0,0.0,0.0,-0.01034743590058466,-0.004865405407815953,9.81270634571363,0.0,0.0,0.0,0.0,0.0,0.0,0.0,0.0,0.0
2025/05/21 13:11:51.534549397,1747825911,534354103,mA1/imu,0.8419264744612655,0.5395915249333291,-0.000175385686809754,0.0008758203066156431,0.0,0.0,0.0,0.0,0.0,0.0,0.0,0.0,0.0,-0.0003064483391406354,0.0044518517385801456,-0.018246306447485785,0.0,0.0,0.0,0.0,0.0,0.0,0.0,0.0,0.0,-0.007826587989182633,0.5351964498602386,9.811893234393086,0.0,0.0,0.0,0.0,0.0,0.0,0.0,0.0,0.0
2025/05/21 13:11:51.583635897,1747825911,583371640,mA1/imu,0.8416831344010176,0.5399711779564669,-8.14468639285848e-05,0.0007884209488095494,0.0,0.0,0.0,0.0,0.0,0.0,0.0,0.0,0.0,0.0012305703927119693,0.005422937973543141,-0.017896084604208228,0.0,0.0,0.0,0.0,0.0,0.0,0.0,0.0,0.0,-0.007451394839418852,-0.6010437420775254,9.809620969656537,0.0,0.0,0.0,0.0,0.0,0.0,0.0,0.0,0.0
2025/05/21 13:11:51.635708016,1747825911,635260457,mA1/imu,0.8414442250617638,0.5403435326950269,3.0440111826846516e-05,0.0006941601153833922,0.0,0.0,0.0,0.0,0.0,0.0,0.0,0.0,0.0,0.0009870000162077652,0.006024437215071503,-0.017559123422348565,0.0,0.0,0.0,0.0,0.0,0.0,0.0,0.0,0.0,-0.004486056669589466,0.02500999346133201,9.809654024032488,0.0,0.0,0.0,0.0,0.0,0.0,0.0,0.0,0.0
2025/05/21 13:11:51.685336378,1747825911,684743431,mA1/imu,0.8412201431083627,0.5406924198830505,0.000177144799380261,0.0005886675438706884,0.0,0.0,0.0,0.0,0.0,0.0,0.0,0.0,0.0,-0.00031345434476391773,0.008340182065061057,-0.01568606033761857,0.0,0.0,0.0,0.0,0.0,0.0,0.0,0.0,0.0,-0.08674047473628964,0.5861332694236085,9.81007556720479,0.0,0.0,0.0,0.0,0.0,0.0,0.0,0.0,0.0
2025/05/21 13:11:51.736878779,1747825911,736603270,mA1/imu,0.8410264897592961,0.5409936113466162,0.00038190711848776155,0.00045842366392149527,0.0,0.0,0.0,0.0,0.0,0.0,0.0,0.0,0.0,-0.0010956149891774634,0.010556785477270198,-0.013399756525001978,0.0,0.0,0.0,0.0,0.0,0.0,0.0,0.0,0.0,-0.08311376411156177,0.04955964661710594,9.809109231254157,0.0,0.0,0.0,0.0,0.0,0.0,0.0,0.0,0.0
2025/05/21 13:11:51.776186745,1747825911,775948081,mA1/imu,0.8408638439355437,0.541246267589567,0.0006218270431505284,0.0002951498482081233,0.0,0.0,0.0,0.0,0.0,0.0,0.0,0.0,0.0,9.440364282300001e-05,0.01222243212961224,-0.011082588189143261,0.0,0.0,0.0,0.0,0.0,0.0,0.0,0.0,0.0,-0.0839370727903154,0.018826811215766973,9.801122159959338,0.0,0.0,0.0,0.0,0.0,0.0,0.0,0.0,0.0
2025/05/21 13:11:51.827389408,1747825911,827120285,mA1/imu,0.8407315351963834,0.5414514492012785,0.0008932109453359072,0.0001267216423304023,0.0,0.0,0.0,0.0,0.0,0.0,0.0,0.0,0.0,2.732192300118658e-05,0.012980804470298408,-0.008883010660615628,0.0,0.0,0.0,0.0,0.0,0.0,0.0,0.0,0.0,-0.07550400511647647,0.027178855922787973,9.802115386518253,0.0,0.0,0.0,0.0,0.0,0.0,0.0,0.0,0.0
2025/05/21 13:11:51.877891693,1747825911,877611475,mA1/imu,0.8406290072235535,0.5416100952368347,0.001172648236471245,-4.2988411620867154e-05,0.0,0.0,0.0,0.0,0.0,0.0,0.0,0.0,0.0,0.0006312361584186434,0.012978470173384552,-0.006692290863329344,0.0,0.0,0.0,0.0,0.0,0.0,0.0,0.0,0.0,-0.06888317956321438,-0.2533591342619823,9.808038740609593,0.0,0.0,0.0,0.0,0.0,0.0,0.0,0.0,0.0
2025/05/21 13:11:51.929578625,1747825911,929324401,mA1/imu,0.840555020332116,0.5417242224236082,0.0014441442524400585,-0.0001976901389791095,0.0,0.0,0.0,0.0,0.0,0.0,0.0,0.0,0.0,0.0004859572924097327,0.012045191446347409,-0.00458822556125333,0.0,0.0,0.0,0.0,0.0,0.0,0.0,0.0,0.0,-0.06286405969146197,-0.5265991542855931,9.806487279386237,0.0,0.0,0.0,0.0,0.0,0.0,0.0,0.0,0.0
2025/05/21 13:11:51.978806786,1747825911,978560428,mA1/imu,0.8405089397187413,0.541794954464039,0.0016849915612152724,-0.0003322252640515143,0.0,0.0,0.0,0.0,0.0,0.0,0.0,0.0,0.0,0.00023279916577165192,0.010226576172620926,-0.0025565788720769227,0.0,0.0,0.0,0.0,0.0,0.0,0.0,0.0,0.0,-0.06156129357716308,-0.5540836517366391,9.807530878187086,0.0,0.0,0.0,0.0,0.0,0.0,0.0,0.0,0.0
2025/05/21 13:11:52.30391030,1747825912,29959870,mA1/imu,0.840491352540782,0.5418214767508291,0.0018948879869155094,-0.00042782617327275635,0.0,0.0,0.0,0.0,0.0,0.0,0.0,0.0,0.0,-0.0024492364189550742,0.008161718732779976,-0.00040695614801536275,0.0,0.0,0.0,0.0,0.0,0.0,0.0,0.0,0.0,-0.06870501553416572,-0.12261532155211613,9.802506145205088,0.0,0.0,0.0,0.0,0.0,0.0,0.0,0.0,0.0
2025/05/21 13:11:52.79674332,1747825912,79462804,mA1/imu,0.8405028114247385,0.541803110953282,0.0020356472306889543,-0.0005187377064449516,0.0,0.0,0.0,0.0,0.0,0.0,0.0,0.0,0.0,-0.0015714361189651065,0.005922487835745527,0.0017157087304279673,0.0,0.0,0.0,0.0,0.0,0.0,0.0,0.0,0.0,-0.07993096360615128,0.5956096194177207,9.812782573967592,0.0,0.0,0.0,0.0,0.0,0.0,0.0,0.0,0.0
2025/05/21 13:11:52.131967282,1747825912,131023888,mA1/imu,0.8405423619944045,0.5417413398044078,0.0021353556707274755,-0.0005465308337142499,0.0,0.0,0.0,0.0,0.0,0.0,0.0,0.0,0.0,0.00015846373058622806,0.002654580977136477,0.0037544075052389925,0.0,0.0,0.0,0.0,0.0,0.0,0.0,0.0,0.0,-0.054560273709565184,0.09191857043499556,9.80752526638282,0.0,0.0,0.0,0.0,0.0,0.0,0.0,0.0,0.0
2025/05/21 13:11:52.180687991,1747825912,180365802,mA1/imu,0.8406076604356729,0.5416399177520665,0.002162399147210058,-0.0005336143992302124,0.0,0.0,0.0,0.0,0.0,0.0,0.0,0.0,0.0,0.00010152838931893292,-0.0007610645269397464,0.005522014445280657,0.0,0.0,0.0,0.0,0.0,0.0,0.0,0.0,0.0,-0.05187707282507377,0.07321745262317811,9.810611491006808,0.0,0.0,0.0,0.0,0.0,0.0,0.0,0.0,0.0
2025/05/21 13:11:52.231588421,1747825912,231390135,mA1/imu,0.840697405313074,0.5415008313130069,0.0021221702427010073,-0.00046773993661045066,0.0,0.0,0.0,0.0,0.0,0.0,0.0,0.0,0.0,-0.0004704884444225348,-0.004109774111850866,0.0073719848240440386,0.0,0.0,0.0,0.0,0.0,0.0,0.0,0.0,0.0,-0.05233732006943967,0.0457616478742912,9.810629509382958,0.0,0.0,0.0,0.0,0.0,0.0,0.0,0.0,0.0
2025/05/21 13:11:52.282280118,1747825912,281359552,mA1/imu,0.8408094443790689,0.5413273521556432,0.0020107109866298444,-0.0003648183796355301,0.0,0.0,0.0,0.0,0.0,0.0,0.0,0.0,0.0,-0.002737276161995159,-0.007687484032725791,0.008502778603090209,0.0,0.0,0.0,0.0,0.0,0.0,0.0,0.0,0.0,0.015783663713838568,0.48885112964335453,9.809983722023766,0.0,0.0,0.0,0.0,0.0,0.0,0.0,0.0,0.0
2025/05/21 13:11:52.332916954,1747825912,332678432,mA1/imu,0.8409266438302303,0.5411460872996733,0.0018034383808717726,-0.00019876288807489932,0.0,0.0,0.0,0.0,0.0,0.0,0.0,0.0,0.0,-0.0024970770816238,-0.012383110629388789,0.008668745493706033,0.0,0.0,0.0,0.0,0.0,0.0,0.0,0.0,0.0,0.010810628810111494,0.5125671918104994,9.81205213004037,0.0,0.0,0.0,0.0,0.0,0.0,0.0,0.0,0.0
2025/05/21 13:11:52.382602733,1747825912,382286355,mA1/imu,0.8410448370560307,0.5409633073926101,0.0015104797267294706,2.38167575936565e-05,0.0,0.0,0.0,0.0,0.0,0.0,0.0,0.0,0.0,-0.0013251846968346487,-0.016073505800162795,0.008709293212860682,0.0,0.0,0.0,0.0,0.0,0.0,0.0,0.0,0.0,0.002570779176512831,-0.45788270741637976,9.81190321288508,0.0,0.0,0.0,0.0,0.0,0.0,0.0,0.0,0.0
2025/05/21 13:11:52.433936739,1747825912,433734604,mA1/imu,0.8411638580720958,0.5407790428100769,0.0011462464334030071,0.00027721796031236035,0.0,0.0,0.0,0.0,0.0,0.0,0.0,0.0,0.0,-0.0007959155951546212,-0.018697440765253506,0.008797055262365364,0.0,0.0,0.0,0.0,0.0,0.0,0.0,0.0,0.0,-0.007340004982944331,0.057438969422168015,9.811071715063267,0.0,0.0,0.0,0.0,0.0,0.0,0.0,0.0,0.0
2025/05/21 13:11:52.483371178,1747825912,483125661,mA1/imu,0.8412855993014238,0.5405901236118551,0.000748050674855416,0.0005468834893994925,0.0,0.0,0.0,0.0,0.0,0.0,0.0,0.0,0.0,0.0003254881447712386,-0.01893356208849268,0.009341876807915133,0.0,0.0,0.0,0.0,0.0,0.0,0.0,0.0,0.0,-0.0903053577299058,-0.5709134743666022,9.812496769097828,0.0,0.0,0.0,0.0,0.0,0.0,0.0,0.0,0.0
2025/05/21 13:11:52.527318319,1747825912,527003086,mA1/imu,0.8414229434305128,0.5403764131878828,0.0003786516077758627,0.0007867413110217439,0.0,0.0,0.0,0.0,0.0,0.0,0.0,0.0,0.0,0.0005252126884291538,-0.016653587551936445,0.010688994372721528,0.0,0.0,0.0,0.0,0.0,0.0,0.0,0.0,0.0,-0.09389213710944493,-0.18695699636296775,9.810369813561534,0.0,0.0,0.0,0.0,0.0,0.0,0.0,0.0,0.0
2025/05/21 13:11:52.577715425,1747825912,577502740,mA1/imu,0.8415782097716442,0.5401343732142007,6.47576998464851e-05,0.0009856553641417085,0.0,0.0,0.0,0.0,0.0,0.0,0.0,0.0,0.0,-6.912825937648183e-05,-0.013518998076998716,0.011975368991430028,0.0,0.0,0.0,0.0,0.0,0.0,0.0,0.0,0.0,-0.10082581623773204,-0.016092066522377213,9.810197221015668,0.0,0.0,0.0,0.0,0.0,0.0,0.0,0.0,0.0
2025/05/21 13:11:52.629976351,1747825912,629188480,mA1/imu,0.8417498567968428,0.5398665489676239,-0.00017792346454298798,0.0011208173460704358,0.0,0.0,0.0,0.0,0.0,0.0,0.0,0.0,0.0,0.000498888085243465,-0.00945290966688549,0.013180028906939985,0.0,0.0,0.0,0.0,0.0,0.0,0.0,0.0,0.0,-0.09972957506329835,-0.012736010912129125,9.811845314911956,0.0,0.0,0.0,0.0,0.0,0.0,0.0,0.0,0.0
2025/05/21 13:11:52.678754467,1747825912,678498999,mA1/imu,0.8419366212368735,0.5395750106418215,-0.0003393224509988707,0.0011910379463868546,0.0,0.0,0.0,0.0,0.0,0.0,0.0,0.0,0.0,0.001560982404138975,-0.005262316812643623,0.014271244676994184,0.0,0.0,0.0,0.0,0.0,0.0,0.0,0.0,0.0,-0.0969597523715004,0.05824277913850001,9.813001120680276,0.0,0.0,0.0,0.0,0.0,0.0,0.0,0.0,0.0
2025/05/21 13:11:52.731040705,1747825912,730779229,mA1/imu,0.8421375003830338,0.5392613485488382,-0.00040751912669727535,0.0012092717087771262,0.0,0.0,0.0,0.0,0.0,0.0,0.0,0.0,0.0,-0.0004203653807645884,-0.0010140769694667359,0.015317913119102617,0.0,0.0,0.0,0.0,0.0,0.0,0.0,0.0,0.0,-0.09100178190651469,0.5137739176880901,9.812289244453574,0.0,0.0,0.0,0.0,0.0,0.0,0.0,0.0,0.0
2025/05/21 13:11:52.780960636,1747825912,779903517,mA1/imu,0.8423525203375273,0.5389255467805871,-0.00040120991702778376,0.0011513204868683694,0.0,0.0,0.0,0.0,0.0,0.0,0.0,0.0,0.0,0.001169398042555847,0.003086713140877737,0.016369032546147796,0.0,0.0,0.0,0.0,0.0,0.0,0.0,0.0,0.0,-0.0890304874617337,-0.007696098795866899,9.807850872295925,0.0,0.0,0.0,0.0,0.0,0.0,0.0,0.0,0.0
2025/05/21 13:11:52.831427875,1747825912,831066771,mA1/imu,0.8425817471297764,0.5385673693087535,-0.0003131768082317013,0.0010440497444731355,0.0,0.0,0.0,0.0,0.0,0.0,0.0,0.0,0.0,0.002458801487985593,0.006676527162182993,0.01743884474542148,0.0,0.0,0.0,0.0,0.0,0.0,0.0,0.0,0.0,-0.08277896851358658,0.07062924741037166,9.80903199046835,0.0,0.0,0.0,0.0,0.0,0.0,0.0,0.0,0.0
2025/05/21 13:11:52.881181809,1747825912,880937682,mA1/imu,0.842825426830691,0.5381862765727423,-0.00015194395651949532,0.0008991715439753683,0.0,0.0,0.0,0.0,0.0,0.0,0.0,0.0,0.0,0.0026252192087804966,0.009670384550265415,0.01853291381294274,0.0,0.0,0.0,0.0,0.0,0.0,0.0,0.0,0.0,-0.0759330210275863,0.0713429848100779,9.810932123005125,0.0,0.0,0.0,0.0,0.0,0.0,0.0,0.0,0.0
2025/05/21 13:11:52.931816549,1747825912,931726544,mA1/imu,0.8430830295182381,0.5377829330284075,6.351297117115635e-05,0.0007198943085996964,0.0,0.0,0.0,0.0,0.0,0.0,0.0,0.0,0.0,-0.00045268787696057145,0.011931332016709033,0.019582325165635843,0.0,0.0,0.0,0.0,0.0,0.0,0.0,0.0,0.0,-0.06849803448004338,0.3561034103299994,9.811130689285228,0.0,0.0,0.0,0.0,0.0,0.0,0.0,0.0,0.0
2025/05/21 13:11:52.982148341,1747825912,981754811,mA1/imu,0.8433552226276286,0.5373561262046442,0.0003138119092998278,0.0005134385328402208,0.0,0.0,0.0,0.0,0.0,0.0,0.0,0.0,0.0,-0.00011480292389538609,0.013422881116971055,0.020683033499508983,0.0,0.0,0.0,0.0,0.0,0.0,0.0,0.0,0.0,-0.06804605465092667,0.5332107775373989,9.808726493483379,0.0,0.0,0.0,0.0,0.0,0.0,0.0,0.0,0.0
2025/05/21 13:11:53.33536022,1747825913,33251644,mA1/imu,0.8436430410753596,0.5369040771080311,0.0005853550895560955,0.00029763956663979903,0.0,0.0,0.0,0.0,0.0,0.0,0.0,0.0,0.0,-8.527064737976342e-05,0.013955305725312768,0.021876689426368875,0.0,0.0,0.0,0.0,0.0,0.0,0.0,0.0,0.0,-0.05889342535721257,0.547791372218904,9.809801482022522,0.0,0.0,0.0,0.0,0.0,0.0,0.0,0.0,0.0
2025/05/21 13:11:53.83390750,1747825913,83009448,mA1/imu,0.843942489151091,0.5364329708089134,0.000856350374277657,9.746086818454466e-05,0.0,0.0,0.0,0.0,0.0,0.0,0.0,0.0,0.0,0.00010601064107008518,0.012467084053336257,0.022327338852317004,0.0,0.0,0.0,0.0,0.0,0.0,0.0,0.0,0.0,0.024273148400216715,0.420908180467152,9.809199119031582,0.0,0.0,0.0,0.0,0.0,0.0,0.0,0.0,0.0
2025/05/21 13:11:53.135734544,1747825913,135008829,mA1/imu,0.8442364915985693,0.5359698055217856,0.0010534294213835334,-6.40993950276752e-05,0.0,0.0,0.0,0.0,0.0,0.0,0.0,0.0,0.0,0.001242769033024626,0.008541886182897585,0.021709877047981545,0.0,0.0,0.0,0.0,0.0,0.0,0.0,0.0,0.0,0.026328071017695232,0.5812600868515051,9.811234180447922,0.0,0.0,0.0,0.0,0.0,0.0,0.0,0.0,0.0
2025/05/21 13:11:53.184840097,1747825913,184367429,mA1/imu,0.8445255319416766,0.5355139444812701,0.001191903484700509,-0.00014328580738929544,0.0,0.0,0.0,0.0,0.0,0.0,0.0,0.0,0.0,-0.0002194919671431651,0.0053960040431251105,0.021917398675874708,0.0,0.0,0.0,0.0,0.0,0.0,0.0,0.0,0.0,-0.06602078051406554,-0.09053858082869987,9.79829820305743,0.0,0.0,0.0,0.0,0.0,0.0,0.0,0.0,0.0
2025/05/21 13:11:53.236842120,1747825913,235892232,mA1/imu,0.8448163940116744,0.5350548161443257,0.0012527188386434488,-0.00018661560660672617,0.0,0.0,0.0,0.0,0.0,0.0,0.0,0.0,0.0,0.0006033260249076861,0.0011394095779336023,0.02150896143042381,0.0,0.0,0.0,0.0,0.0,0.0,0.0,0.0,0.0,0.03821993847586298,-0.5682307583618963,9.809083382901838,0.0,0.0,0.0,0.0,0.0,0.0,0.0,0.0,0.0
2025/05/21 13:11:53.286167919,1747825913,285226252,mA1/imu,0.8450990023628343,0.5346084129563156,0.0012232722111144409,-0.00015686545005401512,0.0,0.0,0.0,0.0,0.0,0.0,0.0,0.0,0.0,-2.678636640251721e-05,-0.0034836887814380605,0.02088473531267297,0.0,0.0,0.0,0.0,0.0,0.0,0.0,0.0,0.0,0.03749039650852286,0.04067531684086556,9.810071643512781,0.0,0.0,0.0,0.0,0.0,0.0,0.0,0.0,0.0
2025/05/21 13:11:53.326934743,1747825913,326713379,mA1/imu,0.8453732629343856,0.5341748873736429,0.0011105108759971055,-5.2731589738346516e-05,0.0,0.0,0.0,0.0,0.0,0.0,0.0,0.0,0.0,-0.0022481247375303213,-0.007702032352219521,0.020269586561234888,0.0,0.0,0.0,0.0,0.0,0.0,0.0,0.0,0.0,0.030580582194493364,0.4385791043530356,9.809576806021724,0.0,0.0,0.0,0.0,0.0,0.0,0.0,0.0,0.0
2025/05/21 13:11:53.377483423,1747825913,377223178,mA1/imu,0.8456392903333089,0.5337540135954453,0.0009130522193539347,9.975457600280797e-05,0.0,0.0,0.0,0.0,0.0,0.0,0.0,0.0,0.0,-0.0008321562656003577,-0.011363372415459363,0.01967760579106168,0.0,0.0,0.0,0.0,0.0,0.0,0.0,0.0,0.0,0.029061105028390884,-0.2970139500393959,9.809640749554852,0.0,0.0,0.0,0.0,0.0,0.0,0.0,0.0,0.0
2025/05/21 13:11:53.429363600,1747825913,428458675,mA1/imu,0.8458974514327487,0.5333450860448664,0.0006547331112558656,0.0003036048873881373,0.0,0.0,0.0,0.0,0.0,0.0,0.0,0.0,0.0,-0.0016785230495969846,-0.014159373756550117,0.019106483350349625,0.0,0.0,0.0,0.0,0.0,0.0,0.0,0.0,0.0,0.021414110707346445,-0.011795062855206342,9.809647034453825,0.0,0.0,0.0,0.0,0.0,0.0,0.0,0.0,0.0
2025/05/21 13:11:53.478247302,1747825913,477988168,mA1/imu,0.8461510014079282,0.5329428288421935,0.0003605276116397921,0.0005422378460728134,0.0,0.0,0.0,0.0,0.0,0.0,0.0,0.0,0.0,-0.0019278883116657436,-0.014937613083300943,0.01933131768823159,0.0,0.0,0.0,0.0,0.0,0.0,0.0,0.0,0.0,-0.07629974452843909,-0.16830236007294463,9.80863506779287,0.0,0.0,0.0,0.0,0.0,0.0,0.0,0.0,0.0
2025/05/21 13:11:53.529897609,1747825913,529112711,mA1/imu,0.8464071457902136,0.5325357496672247,6.152969248166869e-05,0.0007842803886232966,0.0,0.0,0.0,0.0,0.0,0.0,0.0,0.0,0.0,-0.0027237533340084045,-0.015615493135527108,0.019052076708716538,0.0,0.0,0.0,0.0,0.0,0.0,0.0,0.0,0.0,0.017378500719172334,-0.06391963625149866,9.811824242141334,0.0,0.0,0.0,0.0,0.0,0.0,0.0,0.0,0.0
2025/05/21 13:11:53.579171427,1747825913,579013428,mA1/imu,0.8466599293161075,0.5321333119851896,-0.0002443065175880334,0.0010211172521235145,0.0,0.0,0.0,0.0,0.0,0.0,0.0,0.0,0.0,-0.001232066823669753,-0.014519011001381199,0.01936873087531356,0.0,0.0,0.0,0.0,0.0,0.0,0.0,0.0,0.0,-0.08764474862446633,0.05157770734333246,9.804580394268228,0.0,0.0,0.0,0.0,0.0,0.0,0.0,0.0,0.0
2025/05/21 13:11:53.631115073,1747825913,630807479,mA1/imu,0.8469286304809668,0.5317049602161523,-0.00047911698646303504,0.001224989831519961,0.0,0.0,0.0,0.0,0.0,0.0,0.0,0.0,0.0,6.039153135195862e-05,-0.010866620475309664,0.02076890992928529,0.0,0.0,0.0,0.0,0.0,0.0,0.0,0.0,0.0,-0.08031289028346823,-0.49471934299743825,9.810736616329951,0.0,0.0,0.0,0.0,0.0,0.0,0.0,0.0,0.0
2025/05/21 13:11:53.680489931,1747825913,680202752,mA1/imu,0.8472146485880957,0.5312485748811036,-0.0006342232527768134,0.0013742872376989682,0.0,0.0,0.0,0.0,0.0,0.0,0.0,0.0,0.0,-0.0031484108355894695,-0.00683615705330076,0.022044115282501636,0.0,0.0,0.0,0.0,0.0,0.0,0.0,0.0,0.0,-0.0738337507606163,0.5193271091972107,9.813437134262179,0.0,0.0,0.0,0.0,0.0,0.0,0.0,0.0,0.0
2025/05/21 13:11:53.732102556,1747825913,731616310,mA1/imu,0.847511411775495,0.5307746193629292,-0.0007235404667257496,0.0014787966857868087,0.0,0.0,0.0,0.0,0.0,0.0,0.0,0.0,0.0,-0.002868487983477894,-0.004705072422673558,0.022199120353970925,0.0,0.0,0.0,0.0,0.0,0.0,0.0,0.0,0.0,0.021763730289530787,0.5250206718704113,9.81313866953245,0.0,0.0,0.0,0.0,0.0,0.0,0.0,0.0,0.0
2025/05/21 13:11:53.781371072,1747825913,781109202,mA1/imu,0.8478009706810454,0.5303116706218582,-0.0007911516961914721,0.0015556971184749447,0.0,0.0,0.0,0.0,0.0,0.0,0.0,0.0,0.0,-0.0009499032979613467,-0.0034096479867912646,0.02160269779981514,0.0,0.0,0.0,0.0,0.0,0.0,0.0,0.0,0.0,0.020797542223845836,-0.6167145436073512,9.811736825668516,0.0,0.0,0.0,0.0,0.0,0.0,0.0,0.0,0.0
2025/05/21 13:11:53.832775862,1747825913,832549861,mA1/imu,0.8480826572967021,0.5298608618960281,-0.0008346391772059275,0.0016052416661101493,0.0,0.0,0.0,0.0,0.0,0.0,0.0,0.0,0.0,-0.0002546650406488148,-0.0019445731683245427,0.021043984802179512,0.0,0.0,0.0,0.0,0.0,0.0,0.0,0.0,0.0,0.019065034820376775,0.03888149315885731,9.81294449861923,0.0,0.0,0.0,0.0,0.0,0.0,0.0,0.0,0.0
2025/05/21 13:11:53.882219311,1747825913,881974571,mA1/imu,0.8483599538360886,0.5294166942140772,-0.0008397410028714189,0.001627098557538451,0.0,0.0,0.0,0.0,0.0,0.0,0.0,0.0,0.0,-0.0009276058478168837,0.0007915221060149913,0.021252055906252308,0.0,0.0,0.0,0.0,0.0,0.0,0.0,0.0,0.0,-0.07326674862331667,0.5979637426203183,9.811679252136956,0.0,0.0,0.0,0.0,0.0,0.0,0.0,0.0,0.0
2025/05/21 13:11:53.933836119,1747825913,933629419,mA1/imu,0.8486399156922659,0.5289679210745712,-0.0007884546294815825,0.001615644505167047,0.0,0.0,0.0,0.0,0.0,0.0,0.0,0.0,0.0,-0.0011395502749554378,0.0025234448326025066,0.020984423464825677,0.0,0.0,0.0,0.0,0.0,0.0,0.0,0.0,0.0,0.02674334818583972,-0.07299188215954286,9.810489234787642,0.0,0.0,0.0,0.0,0.0,0.0,0.0,0.0,0.0
2025/05/21 13:11:53.983152934,1747825913,982845773,mA1/imu,0.8489134898101879,0.5285290061504302,-0.0007227787519536957,0.0015665461379089575,0.0,0.0,0.0,0.0,0.0,0.0,0.0,0.0,0.0,-0.0005339070418816178,0.00372186662015892,0.02048477098713593,0.0,0.0,0.0,0.0,0.0,0.0,0.0,0.0,0.0,0.02542373619721146,-0.05115554792540376,9.811626282560399,0.0,0.0,0.0,0.0,0.0,0.0,0.0,0.0,0.0
2025/05/21 13:11:54.34845900,1747825914,34638868,mA1/imu,0.8491803474899351,0.528100441028527,-0.0006374908283764649,0.0015017415862626081,0.0,0.0,0.0,0.0,0.0,0.0,0.0,0.0,0.0,0.0015111024250581773,0.004578727181829525,0.02001268190159874,0.0,0.0,0.0,0.0,0.0,0.0,0.0,0.0,0.0,0.026742517742019325,-0.41517201333057635,9.814184246354808,0.0,0.0,0.0,0.0,0.0,0.0,0.0,0.0,0.0
2025/05/21 13:11:54.84234779,1747825914,83921831,mA1/imu,0.8494410438786519,0.5276813232016896,-0.0005334511639943563,0.0014316243626638246,0.0,0.0,0.0,0.0,0.0,0.0,0.0,0.0,0.0,-7.165649536198555e-05,0.005196245275028618,0.019570391105697457,0.0,0.0,0.0,0.0,0.0,0.0,0.0,0.0,0.0,0.028918636703245317,-0.4959070961244128,9.807987664458361,0.0,0.0,0.0,0.0,0.0,0.0,0.0,0.0,0.0
2025/05/21 13:11:54.135682163,1747825914,135394456,mA1/imu,0.8496957774256644,0.5272713979389183,-0.00043820426269754653,0.0013291792802294785,0.0,0.0,0.0,0.0,0.0,0.0,0.0,0.0,0.0,0.0014333736706977573,0.005504019420469535,0.019133705813834945,0.0,0.0,0.0,0.0,0.0,0.0,0.0,0.0,0.0,0.030033327491644946,0.02292868288199338,9.809818347695357,0.0,0.0,0.0,0.0,0.0,0.0,0.0,0.0,0.0
2025/05/21 13:11:54.185417837,1747825914,184990721,mA1/imu,0.84995498899285,0.5268538141489507,-0.00030964962587856236,0.0012162729858231501,0.0,0.0,0.0,0.0,0.0,0.0,0.0,0.0,0.0,0.002026691875289621,0.007914216684739619,0.020272481250881023,0.0,0.0,0.0,0.0,0.0,0.0,0.0,0.0,0.0,-0.0659127460818778,-0.3321712354627019,9.812776212414349,0.0,0.0,0.0,0.0,0.0,0.0,0.0,0.0,0.0
2025/05/21 13:11:54.226392251,1747825914,226292794,mA1/imu,0.8502183188213926,0.5264290975933237,-0.00016595030001144775,0.0010899578439237559,0.0,0.0,0.0,0.0,0.0,0.0,0.0,0.0,0.0,0.00084622471614722,0.007221071193956188,0.019815081172200964,0.0,0.0,0.0,0.0,0.0,0.0,0.0,0.0,0.0,0.03812327770861025,0.5865806437482441,9.808290200985688,0.0,0.0,0.0,0.0,0.0,0.0,0.0,0.0,0.0
2025/05/21 13:11:54.277007064,1747825914,276654946,mA1/imu,0.8504755509429053,0.5260136750847946,-4.313202474709476e-05,0.0009741723555965802,0.0,0.0,0.0,0.0,0.0,0.0,0.0,0.0,0.0,0.0007590068360310455,0.006131092927596362,0.01937074673131255,0.0,0.0,0.0,0.0,0.0,0.0,0.0,0.0,0.0,0.039218616750654564,-0.054807653618634655,9.806441467194,0.0,0.0,0.0,0.0,0.0,0.0,0.0,0.0,0.0
2025/05/21 13:11:54.328564193,1747825914,328105262,mA1/imu,0.8507268130786548,0.5256073983097136,4.491237270373076e-05,0.0008662182222122048,0.0,0.0,0.0,0.0,0.0,0.0,0.0,0.0,0.0,0.0025915898420471152,0.004645828103923273,0.018940226675223038,0.0,0.0,0.0,0.0,0.0,0.0,0.0,0.0,0.0,0.04143974014501459,-0.5638529376525109,9.808290323130088,0.0,0.0,0.0,0.0,0.0,0.0,0.0,0.0,0.0
2025/05/21 13:11:54.377709530,1747825914,377421436,mA1/imu,0.8509724873660371,0.5252096679007779,0.00010398039075277388,0.0007871960954638358,0.0,0.0,0.0,0.0,0.0,0.0,0.0,0.0,0.0,0.0028877699015687408,0.0029342243650554546,0.018560053626357733,0.0,0.0,0.0,0.0,0.0,0.0,0.0,0.0,0.0,0.04161857226521924,-0.5413961901396491,9.806295696659863,0.0,0.0,0.0,0.0,0.0,0.0,0.0,0.0,0.0
2025/05/21 13:11:54.429573118,1747825914,429023867,mA1/imu,0.8512132604694234,0.5248194279448363,0.00012818556751241324,0.0007326807822920394,0.0,0.0,0.0,0.0,0.0,0.0,0.0,0.0,0.0,0.0010501911622745061,0.0012431024300153372,0.018193757132925037,0.0,0.0,0.0,0.0,0.0,0.0,0.0,0.0,0.0,0.03810602323845139,-0.02501044647417929,9.80534861252784,0.0,0.0,0.0,0.0,0.0,0.0,0.0,0.0,0.0
2025/05/21 13:11:54.478608069,1747825914,478363782,mA1/imu,0.8514490796418193,0.524436791821191,0.00011919229575472367,0.0007084875385857738,0.0,0.0,0.0,0.0,0.0,0.0,0.0,0.0,0.0,-0.0009249199012912312,-0.0004890029609099548,0.017831843164375968,0.0,0.0,0.0,0.0,0.0,0.0,0.0,0.0,0.0,0.03842470227213013,0.4857098883365804,9.807633804399456,0.0,0.0,0.0,0.0,0.0,0.0,0.0,0.0,0.0
2025/05/21 13:11:54.529630806,1747825914,529291346,mA1/imu,0.8516804836331543,0.5240609262335563,7.037038959849663e-05,0.0007031654370624214,0.0,0.0,0.0,0.0,0.0,0.0,0.0,0.0,0.0,0.00045116737179768843,-0.002205269553793017,0.017520158104791655,0.0,0.0,0.0,0.0,0.0,0.0,0.0,0.0,0.0,0.03887192883671892,-0.0357698934296944,9.809678598321542,0.0,0.0,0.0,0.0,0.0,0.0,0.0,0.0,0.0
2025/05/21 13:11:54.580114888,1747825914,579954124,mA1/imu,0.8519099501583024,0.5236878057177082,-9.961337563081283e-07,0.0007203907677791235,0.0,0.0,0.0,0.0,0.0,0.0,0.0,0.0,0.0,0.001405684533007995,-0.002632424434168971,0.01787188872267373,0.0,0.0,0.0,0.0,0.0,0.0,0.0,0.0,0.0,-0.04986315610039474,-0.26815770984690007,9.809740311028358,0.0,0.0,0.0,0.0,0.0,0.0,0.0,0.0,0.0
2025/05/21 13:11:54.631825395,1747825914,631523952,mA1/imu,0.852143844052951,0.5233070775404477,-7.155500225494493e-05,0.0007526743104245362,0.0,0.0,0.0,0.0,0.0,0.0,0.0,0.0,0.0,0.0003706747167834245,-0.0035773612585229585,0.017753267280801736,0.0,0.0,0.0,0.0,0.0,0.0,0.0,0.0,0.0,0.03711802164866107,0.13622859959997702,9.808994455900377,0.0,0.0,0.0,0.0,0.0,0.0,0.0,0.0,0.0
2025/05/21 13:11:54.681305565,1747825914,681128813,mA1/imu,0.8523735537299146,0.5229327408532103,-0.00016552393329187796,0.0008037707466372712,0.0,0.0,0.0,0.0,0.0,0.0,0.0,0.0,0.0,0.0005180551565748966,-0.004629437030737098,0.017471065996705958,0.0,0.0,0.0,0.0,0.0,0.0,0.0,0.0,0.0,0.026175981425307193,0.04431545655102624,9.809227673351618,0.0,0.0,0.0,0.0,0.0,0.0,0.0,0.0,0.0
2025/05/21 13:11:54.732627167,1747825914,732468251,mA1/imu,0.8526003467377242,0.5225627371102876,-0.000269579686108712,0.0008728420874910224,0.0,0.0,0.0,0.0,0.0,0.0,0.0,0.0,0.0,0.0006310353319395387,-0.005231407601110845,0.017284538306741756,0.0,0.0,0.0,0.0,0.0,0.0,0.0,0.0,0.0,0.02438737637812661,-0.06777916915642172,9.809907888446226,0.0,0.0,0.0,0.0,0.0,0.0,0.0,0.0,0.0
2025/05/21 13:11:54.782282869,1747825914,782056460,mA1/imu,0.8528247486433355,0.5221962192369408,-0.00037685131801052046,0.0009563990593262371,0.0,0.0,0.0,0.0,0.0,0.0,0.0,0.0,0.0,-0.0015505162510023416,-0.005466933983804133,0.017133382720278242,0.0,0.0,0.0,0.0,0.0,0.0,0.0,0.0,0.0,0.02422266175577246,0.5633131046437483,9.81016002634923,0.0,0.0,0.0,0.0,0.0,0.0,0.0,0.0,0.0
2025/05/21 13:11:54.833490722,1747825914,833317717,mA1/imu,0.8530471657323098,0.5218325486500183,-0.0004840202256209747,0.001043997088482311,0.0,0.0,0.0,0.0,0.0,0.0,0.0,0.0,0.0,-0.0006667563296250273,-0.005521114943641038,0.016957468952786676,0.0,0.0,0.0,0.0,0.0,0.0,0.0,0.0,0.0,0.04535823834822942,-0.6352495575637502,9.812080428280428,0.0,0.0,0.0,0.0,0.0,0.0,0.0,0.0,0.0
2025/05/21 13:11:54.883375933,1747825914,882981186,mA1/imu,0.8532642630917036,0.5214771923066841,-0.0005992630217711938,0.0011296540799955786,0.0,0.0,0.0,0.0,0.0,0.0,0.0,0.0,0.0,-0.0012321273625930935,-0.005830532628901592,0.016440796447290136,0.0,0.0,0.0,0.0,0.0,0.0,0.0,0.0,0.0,0.04700908012029263,-0.028315258877529857,9.813210483986754,0.0,0.0,0.0,0.0,0.0,0.0,0.0,0.0,0.0
2025/05/21 13:11:54.934902495,1747825914,934268593,mA1/imu,0.8534742842764655,0.5211330307523303,-0.000710338606531678,0.0012270927958852001,0.0,0.0,0.0,0.0,0.0,0.0,0.0,0.0,0.0,-0.001843637203060563,-0.005775700023152547,0.015921939337694643,0.0,0.0,0.0,0.0,0.0,0.0,0.0,0.0,0.0,0.04354018785540162,0.5779143983383704,9.811524421891306,0.0,0.0,0.0,0.0,0.0,0.0,0.0,0.0,0.0
2025/05/21 13:11:54.984256114,1747825914,983926527,mA1/imu,0.8536777415636569,0.5207992771722435,-0.0008113173320484742,0.0013297442721613658,0.0,0.0,0.0,0.0,0.0,0.0,0.0,0.0,0.0,-0.0018986486412453265,-0.005403428504013474,0.015444289311290998,0.0,0.0,0.0,0.0,0.0,0.0,0.0,0.0,0.0,0.042746890268918064,0.5865519975054511,9.812096429380375,0.0,0.0,0.0,0.0,0.0,0.0,0.0,0.0,0.0
2025/05/21 13:11:55.35509829,1747825915,35184284,mA1/imu,0.8538749957335149,0.5204754101184712,-0.000898799587723015,0.0014252306481088027,0.0,0.0,0.0,0.0,0.0,0.0,0.0,0.0,0.0,-0.0016154575374352706,-0.004655633421953956,0.014984735424573811,0.0,0.0,0.0,0.0,0.0,0.0,0.0,0.0,0.0,0.0412700204462354,-0.022631189934375115,9.813553823938962,0.0,0.0,0.0,0.0,0.0,0.0,0.0,0.0,0.0
2025/05/21 13:11:55.85240853,1747825915,84801976,mA1/imu,0.8540663212948711,0.52016105102901,-0.0009705467149763477,0.001502618153728705,0.0,0.0,0.0,0.0,0.0,0.0,0.0,0.0,0.0,-4.4598424130180536e-05,-0.00366792055568964,0.014545643047119406,0.0,0.0,0.0,0.0,0.0,0.0,0.0,0.0,0.0,0.0413536359656971,-0.54218692052064,9.811798271167508,0.0,0.0,0.0,0.0,0.0,0.0,0.0,0.0,0.0
2025/05/21 13:11:55.137284865,1747825915,136638977,mA1/imu,0.854252068615466,0.5198556575073581,-0.0010128875725166657,0.0015724765673697258,0.0,0.0,0.0,0.0,0.0,0.0,0.0,0.0,0.0,-0.001908696470316751,-0.002399376033531841,0.014133454913196243,0.0,0.0,0.0,0.0,0.0,0.0,0.0,0.0,0.0,0.03981784033990777,0.5878049945275824,9.81120265709381,0.0,0.0,0.0,0.0,0.0,0.0,0.0,0.0,0.0
2025/05/21 13:11:55.176339752,1747825915,176034099,mA1/imu,0.8544325440775496,0.5195587922593871,-0.0010295078573097952,0.0016214563530529097,0.0,0.0,0.0,0.0,0.0,0.0,0.0,0.0,0.0,-0.0010702488809029545,-0.001041207937126728,0.013743833192516293,0.0,0.0,0.0,0.0,0.0,0.0,0.0,0.0,0.0,0.03920391072162203,-0.2429058750945943,9.80932285025682,0.0,0.0,0.0,0.0,0.0,0.0,0.0,0.0,0.0
2025/05/21 13:11:55.228964021,1747825915,228673510,mA1/imu,0.8546074630942623,0.5192709558172707,-0.0010173095609309435,0.0016503179889101843,0.0,0.0,0.0,0.0,0.0,0.0,0.0,0.0,0.0,-0.0017757160914664905,0.00037227374295900563,0.013273022027115512,0.0,0.0,0.0,0.0,0.0,0.0,0.0,0.0,0.0,0.03966378273212253,0.5396494525746498,9.811022527506974,0.0,0.0,0.0,0.0,0.0,0.0,0.0,0.0,0.0
2025/05/21 13:11:55.278785339,1747825915,278462845,mA1/imu,0.854775760178502,0.5189939372728523,-0.0009797508575423858,0.0016531707545455478,0.0,0.0,0.0,0.0,0.0,0.0,0.0,0.0,0.0,-0.0007831077909439047,0.0017611154971565797,0.012767797057376169,0.0,0.0,0.0,0.0,0.0,0.0,0.0,0.0,0.0,0.0393175076017212,0.02518415331221735,9.810402595367519,0.0,0.0,0.0,0.0,0.0,0.0,0.0,0.0,0.0
2025/05/21 13:11:55.330429601,1747825915,330059174,mA1/imu,0.8549376282986715,0.5187274063921868,-0.00091201161513564,0.0016425015954929646,0.0,0.0,0.0,0.0,0.0,0.0,0.0,0.0,0.0,-0.0019044618841907556,0.003013092696440668,0.012286726925587755,0.0,0.0,0.0,0.0,0.0,0.0,0.0,0.0,0.0,0.04038571237446144,0.32650064273293994,9.809371647669527,0.0,0.0,0.0,0.0,0.0,0.0,0.0,0.0,0.0
2025/05/21 13:11:55.379683125,1747825915,379366503,mA1/imu,0.8550933212761346,0.5184709945209152,-0.0008319988229262716,0.0015960975537070085,0.0,0.0,0.0,0.0,0.0,0.0,0.0,0.0,0.0,1.1295113547604634e-05,0.004119204177357154,0.011809989686913372,0.0,0.0,0.0,0.0,0.0,0.0,0.0,0.0,0.0,0.04033670957577508,0.02497199417502445,9.810048030341948,0.0,0.0,0.0,0.0,0.0,0.0,0.0,0.0,0.0
2025/05/21 13:11:55.431385954,1747825915,430854909,mA1/imu,0.8552428067970479,0.5182246884618901,-0.000728226170871817,0.0015438190077610924,0.0,0.0,0.0,0.0,0.0,0.0,0.0,0.0,0.0,0.0010188867615382692,0.004919929074544134,0.011342503168982302,0.0,0.0,0.0,0.0,0.0,0.0,0.0,0.0,0.0,0.040876615005842915,0.07981593040974042,9.808004399618937,0.0,0.0,0.0,0.0,0.0,0.0,0.0,0.0,0.0
2025/05/21 13:11:55.480623808,1747825915,480342194,mA1/imu,0.8553863172866402,0.5179881087048128,-0.0006114264709050167,0.001481079633586227,0.0,0.0,0.0,0.0,0.0,0.0,0.0,0.0,0.0,0.0018480818670486968,0.005459023990335201,0.010894116060571222,0.0,0.0,0.0,0.0,0.0,0.0,0.0,0.0,0.0,0.04233506712206677,-0.514906778785697,9.805911566853982,0.0,0.0,0.0,0.0,0.0,0.0,0.0,0.0,0.0
2025/05/21 13:11:55.531523734,1747825915,531318651,mA1/imu,0.8555240163611396,0.5177609743067157,-0.0004873720957079725,0.0014118720569642998,0.0,0.0,0.0,0.0,0.0,0.0,0.0,0.0,0.0,0.0005213220187233785,0.005732061530993961,0.010458860641232179,0.0,0.0,0.0,0.0,0.0,0.0,0.0,0.0,0.0,0.04354135890229083,-0.6236200478042361,9.805776308191161,0.0,0.0,0.0,0.0,0.0,0.0,0.0,0.0,0.0
2025/05/21 13:11:55.581582203,1747825915,581298458,mA1/imu,0.8556563163653196,0.5175426260048118,-0.00037096089245807005,0.0013269966811749845,0.0,0.0,0.0,0.0,0.0,0.0,0.0,0.0,0.0,-0.00018675658634383638,0.005697281112885228,0.010090519895134833,0.0,0.0,0.0,0.0,0.0,0.0,0.0,0.0,0.0,0.041842157391528384,-0.3663941227846772,9.808544276372874,0.0,0.0,0.0,0.0,0.0,0.0,0.0,0.0,0.0
2025/05/21 13:11:55.633180721,1747825915,632883596,mA1/imu,0.8557840662426754,0.5173316406404328,-0.0002620546347604645,0.0012397115787764839,0.0,0.0,0.0,0.0,0.0,0.0,0.0,0.0,0.0,0.0007916192075504693,0.005358543021952154,0.009709115293974545,0.0,0.0,0.0,0.0,0.0,0.0,0.0,0.0,0.0,0.043782894197284775,-0.6387220398525624,9.807468917963861,0.0,0.0,0.0,0.0,0.0,0.0,0.0,0.0,0.0
2025/05/21 13:11:55.682505856,1747825915,682148703,mA1/imu,0.8559065481870155,0.5171292167216067,-0.0001691190971036384,0.0011512524554784344,0.0,0.0,0.0,0.0,0.0,0.0,0.0,0.0,0.0,0.0024651842346805203,0.00472249482880087,0.009309616954068288,0.0,0.0,0.0,0.0,0.0,0.0,0.0,0.0,0.0,0.04322405593429481,-0.5360908543901253,9.807112370909206,0.0,0.0,0.0,0.0,0.0,0.0,0.0,0.0,0.0
2025/05/21 13:11:55.734622897,1747825915,733789644,mA1/imu,0.8560238636361989,0.5169351791498699,-9.037663528122967e-05,0.001075767033270618,0.0,0.0,0.0,0.0,0.0,0.0,0.0,0.0,0.0,0.0009104357904077753,0.0038981075494309144,0.008918328110878867,0.0,0.0,0.0,0.0,0.0,0.0,0.0,0.0,0.0,0.042895275329641144,0.6115738399551058,9.809787277055669,0.0,0.0,0.0,0.0,0.0,0.0,0.0,0.0,0.0
2025/05/21 13:11:55.783289065,1747825915,783103483,mA1/imu,0.8561365416641219,0.5167486806036509,-3.11527058946027e-05,0.001011014981061869,0.0,0.0,0.0,0.0,0.0,0.0,0.0,0.0,0.0,-0.00029332898696454956,0.0030619647501362018,0.008630635647326437,0.0,0.0,0.0,0.0,0.0,0.0,0.0,0.0,0.0,0.031231307020847407,0.5243369822504106,9.808820227659906,0.0,0.0,0.0,0.0,0.0,0.0,0.0,0.0,0.0
2025/05/21 13:11:55.834893387,1747825915,834427400,mA1/imu,0.856245752007038,0.5165678165464779,3.430004702772093e-06,0.0009502981329676389,0.0,0.0,0.0,0.0,0.0,0.0,0.0,0.0,0.0,0.0019108475942675115,0.001987696851867268,0.008314348450132167,0.0,0.0,0.0,0.0,0.0,0.0,0.0,0.0,0.0,0.0414578745057473,-0.09772423494066379,9.808477022498538,0.0,0.0,0.0,0.0,0.0,0.0,0.0,0.0,0.0
2025/05/21 13:11:55.884272237,1747825915,883978669,mA1/imu,0.8563504782792778,0.5163942681423564,1.3669461040885652e-05,0.0009044300513086005,0.0,0.0,0.0,0.0,0.0,0.0,0.0,0.0,0.0,0.0032071215932964626,0.0008089764402013322,0.007972687502654199,0.0,0.0,0.0,0.0,0.0,0.0,0.0,0.0,0.0,0.04077047324230845,-0.5026021243621577,9.808667235924295,0.0,0.0,0.0,0.0,0.0,0.0,0.0,0.0,0.0
2025/05/21 13:11:55.935522780,1747825915,935266166,mA1/imu,0.8564507446764483,0.5162280008816517,2.939177770448244e-06,0.000879227076355455,0.0,0.0,0.0,0.0,0.0,0.0,0.0,0.0,0.0,0.0015906401765374233,-0.0003007372758621371,0.007635463094429992,0.0,0.0,0.0,0.0,0.0,0.0,0.0,0.0,0.0,0.038529164205988294,0.02134181495018944,9.812380110746703,0.0,0.0,0.0,0.0,0.0,0.0,0.0,0.0,0.0
2025/05/21 13:11:55.975908255,1747825915,975687535,mA1/imu,0.8565467779539676,0.5160686534599513,-2.827246445156529e-05,0.0008725212759876109,0.0,0.0,0.0,0.0,0.0,0.0,0.0,0.0,0.0,0.0021653635105811954,-0.0013567641661544811,0.007317748814094534,0.0,0.0,0.0,0.0,0.0,0.0,0.0,0.0,0.0,0.0369051269005832,-0.5623751736788309,9.810550384612435,0.0,0.0,0.0,0.0,0.0,0.0,0.0,0.0,0.0
2025/05/21 13:11:56.26952949,1747825916,26693093,mA1/imu,0.8566387426056878,0.5159159682602695,-7.943622960382738e-05,0.0008786642704154857,0.0,0.0,0.0,0.0,0.0,0.0,0.0,0.0,0.0,0.00026708009505038406,-0.002236981773512639,0.007006016040575178,0.0,0.0,0.0,0.0,0.0,0.0,0.0,0.0,0.0,0.03656877096666284,-0.05346975652469979,9.810435892495516,0.0,0.0,0.0,0.0,0.0,0.0,0.0,0.0,0.0
2025/05/21 13:11:56.76749552,1747825916,76594491,mA1/imu,0.8567267601851281,0.5157697579858874,-0.00015079360270128876,0.0008901635595528155,0.0,0.0,0.0,0.0,0.0,0.0,0.0,0.0,0.0,0.0006852859649579175,-0.002945261746669595,0.006706956233748314,0.0,0.0,0.0,0.0,0.0,0.0,0.0,0.0,0.0,0.03363835331859961,-0.011398290625735464,9.813018960053911,0.0,0.0,0.0,0.0,0.0,0.0,0.0,0.0,0.0
2025/05/21 13:11:56.127800364,1747825916,127590408,mA1/imu,0.8568109518882348,0.5156298117025272,-0.00023108718494917164,0.0009146620722202187,0.0,0.0,0.0,0.0,0.0,0.0,0.0,0.0,0.0,-6.167961490827786e-05,-0.0034240465897589817,0.006417366785615704,0.0,0.0,0.0,0.0,0.0,0.0,0.0,0.0,0.0,0.03134339196240958,0.3452118268303647,9.812685085558384,0.0,0.0,0.0,0.0,0.0,0.0,0.0,0.0,0.0
2025/05/21 13:11:56.177897966,1747825916,177591441,mA1/imu,0.8568914481182122,0.5154959170721828,-0.0003131634249214201,0.0009526554738657086,0.0,0.0,0.0,0.0,0.0,0.0,0.0,0.0,0.0,8.583716732261866e-05,-0.00367882645702032,0.006136182625735676,0.0,0.0,0.0,0.0,0.0,0.0,0.0,0.0,0.0,0.030610413148727346,0.6057833274527528,9.813857915866915,0.0,0.0,0.0,0.0,0.0,0.0,0.0,0.0,0.0
2025/05/21 13:11:56.229428741,1747825916,229106880,mA1/imu,0.856968500733179,0.5153676787295042,-0.00039525765481470017,0.0009941043588196142,0.0,0.0,0.0,0.0,0.0,0.0,0.0,0.0,0.0,-0.0004392873758442423,-0.003629321393462379,0.005876733801700632,0.0,0.0,0.0,0.0,0.0,0.0,0.0,0.0,0.0,0.02826952636532311,0.5881714831774398,9.811733553207272,0.0,0.0,0.0,0.0,0.0,0.0,0.0,0.0,0.0
2025/05/21 13:11:56.278833737,1747825916,278584062,mA1/imu,0.8570417221372783,0.5152457415421051,-0.0004663626881132053,0.001046348191485396,0.0,0.0,0.0,0.0,0.0,0.0,0.0,0.0,0.0,-8.457571881519629e-05,-0.0034734859620200852,0.005502058278486066,0.0,0.0,0.0,0.0,0.0,0.0,0.0,0.0,0.0,0.035492970629348086,-0.13058057865030873,9.812110544182662,0.0,0.0,0.0,0.0,0.0,0.0,0.0,0.0,0.0
2025/05/21 13:11:56.330354312,1747825916,329973657,mA1/imu,0.8571101772918376,0.5151317025436482,-0.0005334668092663551,0.0010901515493402809,0.0,0.0,0.0,0.0,0.0,0.0,0.0,0.0,0.0,-0.00031188531554425183,-0.0029799728643462417,0.005214311493277402,0.0,0.0,0.0,0.0,0.0,0.0,0.0,0.0,0.0,0.024803160461107348,-0.0022502430183352212,9.811635185070449,0.0,0.0,0.0,0.0,0.0,0.0,0.0,0.0,0.0
2025/05/21 13:11:56.379665509,1747825916,379371232,mA1/imu,0.8571753816466189,0.5150230519677418,-0.0005834527067037252,0.0011316464752263937,0.0,0.0,0.0,0.0,0.0,0.0,0.0,0.0,0.0,0.0002907137125914534,-0.002286341269402096,0.0049686596882294945,0.0,0.0,0.0,0.0,0.0,0.0,0.0,0.0,0.0,0.024731258863222177,-0.3160139487187069,9.81048436501643,0.0,0.0,0.0,0.0,0.0,0.0,0.0,0.0,0.0
2025/05/21 13:11:56.431184442,1747825916,430744864,mA1/imu,0.8572373160386436,0.5149198465858239,-0.0006161229975149027,0.0011644635443278412,0.0,0.0,0.0,0.0,0.0,0.0,0.0,0.0,0.0,0.0003357567074107914,-0.0014678839554040468,0.00471089935167532,0.0,0.0,0.0,0.0,0.0,0.0,0.0,0.0,0.0,0.024093390541727773,0.06752887498471392,9.810603048503356,0.0,0.0,0.0,0.0,0.0,0.0,0.0,0.0,0.0
2025/05/21 13:11:56.480583340,1747825916,480242457,mA1/imu,0.8572960273102406,0.5148220185851217,-0.0006273217265828058,0.0011904643931672223,0.0,0.0,0.0,0.0,0.0,0.0,0.0,0.0,0.0,0.0001445035969598827,-0.000572016945867021,0.0044642884174190866,0.0,0.0,0.0,0.0,0.0,0.0,0.0,0.0,0.0,0.025211485419725246,0.05957761673255777,9.808675537614805,0.0,0.0,0.0,0.0,0.0,0.0,0.0,0.0,0.0
2025/05/21 13:11:56.531558417,1747825916,531375023,mA1/imu,0.8573515839116801,0.514729460698817,-0.0006151739543573025,0.0012105427891611013,0.0,0.0,0.0,0.0,0.0,0.0,0.0,0.0,0.0,-0.001039640924534248,0.0003767130093864261,0.004222028317098895,0.0,0.0,0.0,0.0,0.0,0.0,0.0,0.0,0.0,0.02434841518467933,0.615099483304093,9.810748390764326,0.0,0.0,0.0,0.0,0.0,0.0,0.0,0.0,0.0
2025/05/21 13:11:56.581292207,1747825916,581122457,mA1/imu,0.8574037489013964,0.5146425780522004,-0.000582379307871898,0.0012202704445895786,0.0,0.0,0.0,0.0,0.0,0.0,0.0,0.0,0.0,-0.0010227672110228849,0.0012337455096081452,0.003896948662432224,0.0,0.0,0.0,0.0,0.0,0.0,0.0,0.0,0.0,0.030339047294914108,-0.01773811689392251,9.809552901036708,0.0,0.0,0.0,0.0,0.0,0.0,0.0,0.0,0.0
2025/05/21 13:11:56.632462309,1747825916,632322192,mA1/imu,0.85745197715844,0.5145622770064833,-0.0005311480565601799,0.0012197666692265248,0.0,0.0,0.0,0.0,0.0,0.0,0.0,0.0,0.0,-0.0029288234262152112,0.002126160785148671,0.00366889653109753,0.0,0.0,0.0,0.0,0.0,0.0,0.0,0.0,0.0,0.022596503429241053,0.481318801699291,9.809407294880854,0.0,0.0,0.0,0.0,0.0,0.0,0.0,0.0,0.0
2025/05/21 13:11:56.682407541,1747825916,682106029,mA1/imu,0.8574978065799425,0.5144860098758869,-0.000466657584085297,0.0011998263522909267,0.0,0.0,0.0,0.0,0.0,0.0,0.0,0.0,0.0,-0.0012994261431147085,0.002939600324086178,0.003488042521600918,0.0,0.0,0.0,0.0,0.0,0.0,0.0,0.0,0.0,0.021993155825237573,-0.03326365113293405,9.806563166570156,0.0,0.0,0.0,0.0,0.0,0.0,0.0,0.0,0.0
2025/05/21 13:11:56.733764652,1747825916,733510004,mA1/imu,0.857541370812492,0.5144135307492578,-0.00038803225892914366,0.001168827652128628,0.0,0.0,0.0,0.0,0.0,0.0,0.0,0.0,0.0,-0.0005462446837233574,0.003574571200723752,0.0033129717065938902,0.0,0.0,0.0,0.0,0.0,0.0,0.0,0.0,0.0,0.02368877761889227,0.4514976571433181,9.807860239827676,0.0,0.0,0.0,0.0,0.0,0.0,0.0,0.0,0.0
2025/05/21 13:11:56.783339255,1747825916,783072131,mA1/imu,0.8575826580943006,0.5143448368956494,-0.0002964985389455232,0.0011337474666635455,0.0,0.0,0.0,0.0,0.0,0.0,0.0,0.0,0.0,5.889083452441313e-05,0.004015871129846749,0.0031452911894162775,0.0,0.0,0.0,0.0,0.0,0.0,0.0,0.0,0.0,0.02290220939821066,0.024000296264910244,9.807864212235009,0.0,0.0,0.0,0.0,0.0,0.0,0.0,0.0,0.0
2025/05/21 13:11:56.835163855,1747825916,834520225,mA1/imu,0.8576216862619881,0.514279895468599,-0.00020051273015928337,0.0010918629015276853,0.0,0.0,0.0,0.0,0.0,0.0,0.0,0.0,0.0,0.00025743921263254513,0.00420672593650948,0.002963557663723025,0.0,0.0,0.0,0.0,0.0,0.0,0.0,0.0,0.0,0.024530436318611452,-0.5608183047975109,9.806510547918865,0.0,0.0,0.0,0.0,0.0,0.0,0.0,0.0,0.0
2025/05/21 13:11:56.884245427,1747825916,883976444,mA1/imu,0.8576584969014603,0.5142186376728946,-0.00010813383206550466,0.001040994541051204,0.0,0.0,0.0,0.0,0.0,0.0,0.0,0.0,0.0,-0.0002978090065174487,0.004192571141582639,0.002798119373736999,0.0,0.0,0.0,0.0,0.0,0.0,0.0,0.0,0.0,0.02390700863639405,-0.010455789009305338,9.809019921418809,0.0,0.0,0.0,0.0,0.0,0.0,0.0,0.0,0.0
2025/05/21 13:11:56.935398583,1747825916,935196058,mA1/imu,0.8576932047770193,0.5141608533440276,-1.9889297751232563e-05,0.0009914495867489749,0.0,0.0,0.0,0.0,0.0,0.0,0.0,0.0,0.0,3.476966990262366e-06,0.003910049892486077,0.002631325870922981,0.0,0.0,0.0,0.0,0.0,0.0,0.0,0.0,0.0,0.024783831314670927,-0.004579769911175835,9.809155184550688,0.0,0.0,0.0,0.0,0.0,0.0,0.0,0.0,0.0
2025/05/21 13:11:56.985114570,1747825916,984783586,mA1/imu,0.8577257186061704,0.5141067096274832,5.510199371878152e-05,0.0009379345933070172,0.0,0.0,0.0,0.0,0.0,0.0,0.0,0.0,0.0,-0.0009057048892179523,0.0034847219361185877,0.0024603951132431993,0.0,0.0,0.0,0.0,0.0,0.0,0.0,0.0,0.0,0.025016772680486826,0.1188764594488162,9.808115742291186,0.0,0.0,0.0,0.0,0.0,0.0,0.0,0.0,0.0
2025/05/21 13:11:57.36448758,1747825917,36115636,mA1/imu,0.8577561322427368,0.5140560530886957,0.00011251651904053674,0.0008827360226275373,0.0,0.0,0.0,0.0,0.0,0.0,0.0,0.0,0.0,0.0002201836373580729,0.002845636821693701,0.0023002911715992737,0.0,0.0,0.0,0.0,0.0,0.0,0.0,0.0,0.0,0.02545562297383835,0.3316426291032035,9.809037952849328,0.0,0.0,0.0,0.0,0.0,0.0,0.0,0.0,0.0
2025/05/21 13:11:57.75700652,1747825917,75511148,mA1/imu,0.8577845966425767,0.5140086129361966,0.00015751054081402532,0.0008407024257587329,0.0,0.0,0.0,0.0,0.0,0.0,0.0,0.0,0.0,0.0008625259461743387,0.0020995584223058453,0.002161445921911967,0.0,0.0,0.0,0.0,0.0,0.0,0.0,0.0,0.0,0.0240024807813152,-0.10098796909686301,9.810512321133393,0.0,0.0,0.0,0.0,0.0,0.0,0.0,0.0,0.0
2025/05/21 13:11:57.126696845,1747825917,126526496,mA1/imu,0.8578111848313251,0.5139642994519434,0.00017859505835850098,0.0007988560296936385,0.0,0.0,0.0,0.0,0.0,0.0,0.0,0.0,0.0,0.0010771511608051153,0.0012433019024109021,0.0020113803758398624,0.0,0.0,0.0,0.0,0.0,0.0,0.0,0.0,0.0,0.023961408505573434,0.01279940299514152,9.810854695995571,0.0,0.0,0.0,0.0,0.0,0.0,0.0,0.0,0.0
2025/05/21 13:11:57.177045333,1747825917,176728457,mA1/imu,0.8578359001415167,0.5139230937751162,0.00018060112084263344,0.0007677865863365224,0.0,0.0,0.0,0.0,0.0,0.0,0.0,0.0,0.0,0.0009547652349644895,0.00035068342264456904,0.0018653496497702143,0.0,0.0,0.0,0.0,0.0,0.0,0.0,0.0,0.0,0.023461859778879185,-0.004349513551820576,9.812555217155762,0.0,0.0,0.0,0.0,0.0,0.0,0.0,0.0,0.0
2025/05/21 13:11:57.228482528,1747825917,228279264,mA1/imu,0.8578588477969867,0.5138848228813923,0.0001634701375768192,0.0007478944448466696,0.0,0.0,0.0,0.0,0.0,0.0,0.0,0.0,0.0,0.0010773998942343048,-0.0005351935876853432,0.0017279616346725138,0.0,0.0,0.0,0.0,0.0,0.0,0.0,0.0,0.0,0.02242061938431992,-0.0015583984202104991,9.812513389871508,0.0,0.0,0.0,0.0,0.0,0.0,0.0,0.0,0.0
2025/05/21 13:11:57.277866426,1747825917,277651946,mA1/imu,0.8578801080502395,0.5138493636302269,0.00012468682491830287,0.0007322306438254144,0.0,0.0,0.0,0.0,0.0,0.0,0.0,0.0,0.0,0.0009531326481599215,-0.0013077596189324536,0.0015981521734948303,0.0,0.0,0.0,0.0,0.0,0.0,0.0,0.0,0.0,0.0218630396025504,-0.00951492232786266,9.810993281646557,0.0,0.0,0.0,0.0,0.0,0.0,0.0,0.0,0.0
2025/05/21 13:11:57.329762928,1747825917,329434287,mA1/imu,0.8578997810174753,0.513816527148512,7.452097564397963e-05,0.0007325338451893929,0.0,0.0,0.0,0.0,0.0,0.0,0.0,0.0,0.0,0.0010437755456213654,-0.0020036416345152494,0.0014795750147201794,0.0,0.0,0.0,0.0,0.0,0.0,0.0,0.0,0.0,0.022299359952999843,-0.004702733231044398,9.810831390987715,0.0,0.0,0.0,0.0,0.0,0.0,0.0,0.0,0.0
2025/05/21 13:11:57.378616459,1747825917,378428650,mA1/imu,0.8579178219755161,0.5137864126837369,4.410870911498348e-06,0.0007299718539546204,0.0,0.0,0.0,0.0,0.0,0.0,0.0,0.0,0.0,0.001714994133442493,-0.00254811966392913,0.0013494347333494606,0.0,0.0,0.0,0.0,0.0,0.0,0.0,0.0,0.0,0.020221765852909423,0.04569304730961364,9.813552734978863,0.0,0.0,0.0,0.0,0.0,0.0,0.0,0.0,0.0
2025/05/21 13:11:57.430402249,1747825917,430112840,mA1/imu,0.8579342523366603,0.5137589471553424,-6.633450192672911e-05,0.0007473186091603214,0.0,0.0,0.0,0.0,0.0,0.0,0.0,0.0,0.0,0.0017212736512751984,-0.002916430551810713,0.0012309128943822868,0.0,0.0,0.0,0.0,0.0,0.0,0.0,0.0,0.0,0.018672932513342337,0.054267721411778796,9.813721798998474,0.0,0.0,0.0,0.0,0.0,0.0,0.0,0.0,0.0
2025/05/21 13:11:57.479734008,1747825917,479454779,mA1/imu,0.857948610013102,0.5137349195414418,-0.00014146095150388593,0.0007713683514103576,0.0,0.0,0.0,0.0,0.0,0.0,0.0,0.0,0.0,0.001745181549328482,-0.003224895736296965,0.0009814666064938958,0.0,0.0,0.0,0.0,0.0,0.0,0.0,0.0,0.0,0.026081437813027172,-0.5678802193409007,9.811900144726602,0.0,0.0,0.0,0.0,0.0,0.0,0.0,0.0,0.0
2025/05/21 13:11:57.531256419,1747825917,530977411,mA1/imu,0.8579597652357854,0.5137162165189942,-0.0002170313012856264,0.0008018848919184383,0.0,0.0,0.0,0.0,0.0,0.0,0.0,0.0,0.0,-5.775177374952443e-05,-0.0031870226149968706,0.0008185415863737002,0.0,0.0,0.0,0.0,0.0,0.0,0.0,0.0,0.0,0.015534964214834088,-0.04530416125158073,9.811806113712224,0.0,0.0,0.0,0.0,0.0,0.0,0.0,0.0,0.0
2025/05/21 13:11:57.580497448,1747825917,580282292,mA1/imu,0.8579693413342234,0.5137001451188862,-0.00029008515120244405,0.0008283030599558622,0.0,0.0,0.0,0.0,0.0,0.0,0.0,0.0,0.0,-0.0004114549983142507,-0.002931782040058277,0.0006964844681944567,0.0,0.0,0.0,0.0,0.0,0.0,0.0,0.0,0.0,0.01534873248781296,-0.052285433450290755,9.809793426036343,0.0,0.0,0.0,0.0,0.0,0.0,0.0,0.0,0.0
2025/05/21 13:11:57.631942570,1747825917,631561923,mA1/imu,0.8579774293488354,0.5136865540385487,-0.00035263025183195225,0.0008547396509877127,0.0,0.0,0.0,0.0,0.0,0.0,0.0,0.0,0.0,-0.0007985210993625488,-0.002497659438986829,0.0005824145942680834,0.0,0.0,0.0,0.0,0.0,0.0,0.0,0.0,0.0,0.014669446181911242,0.563961263025705,9.810166045121983,0.0,0.0,0.0,0.0,0.0,0.0,0.0,0.0,0.0
2025/05/21 13:11:57.681429158,1747825917,681141505,mA1/imu,0.8579844612121663,0.5136747379344524,-0.00040000223829034996,0.0008763131002770516,0.0,0.0,0.0,0.0,0.0,0.0,0.0,0.0,0.0,0.00013640195166350912,-0.0015671830814754626,0.0006392634319566844,0.0,0.0,0.0,0.0,0.0,0.0,0.0,0.0,0.0,-0.013039077401421335,0.30940325914988204,9.812948176065063,0.0,0.0,0.0,0.0,0.0,0.0,0.0,0.0,0.0
2025/05/21 13:11:57.732367703,1747825917,732174761,mA1/imu,0.8579956691960244,0.5136559770935293,-0.0004141989956976589,0.0008929032141377039,0.0,0.0,0.0,0.0,0.0,0.0,0.0,0.0,0.0,-0.0010356334163396735,-0.0003526765130684761,0.00102924777995033,0.0,0.0,0.0,0.0,0.0,0.0,0.0,0.0,0.0,-0.0048777243253972265,0.5826745593231758,9.808467307149764,0.0,0.0,0.0,0.0,0.0,0.0,0.0,0.0,0.0
2025/05/21 13:11:57.782406121,1747825917,782101325,mA1/imu,0.8580102307311943,0.5136316556622321,-0.00040934369247385327,0.0008937001837617316,0.0,0.0,0.0,0.0,0.0,0.0,0.0,0.0,0.0,-0.0004567025274680377,0.0001905625353947763,0.0010339175655758525,0.0,0.0,0.0,0.0,0.0,0.0,0.0,0.0,0.0,0.0422879359191148,-0.0058166279910402754,9.808080176036915,0.0,0.0,0.0,0.0,0.0,0.0,0.0,0.0,0.0
2025/05/21 13:11:57.834128526,1747825917,833848248,mA1/imu,0.8580225103014499,0.5136111494969015,-0.0004000053965547357,0.0008938255715661045,0.0,0.0,0.0,0.0,0.0,0.0,0.0,0.0,0.0,0.00021074272604345592,0.0004043359261818264,0.0009117806686246675,0.0,0.0,0.0,0.0,0.0,0.0,0.0,0.0,0.0,0.027044625536827117,0.05538261509527116,9.806339933564432,0.0,0.0,0.0,0.0,0.0,0.0,0.0,0.0,0.0
2025/05/21 13:11:57.883273033,1747825917,882973093,mA1/imu,0.8580345476241539,0.51359104053206,-0.00037577242301104467,0.0009038604404415726,0.0,0.0,0.0,0.0,0.0,0.0,0.0,0.0,0.0,-0.0009175331016555102,0.0008126618450908619,0.0009785684472434011,0.0,0.0,0.0,0.0,0.0,0.0,0.0,0.0,0.0,0.017904849581717307,0.6163119066427708,9.808962326686393,0.0,0.0,0.0,0.0,0.0,0.0,0.0,0.0,0.0
2025/05/21 13:11:57.934426160,1747825917,934206563,mA1/imu,0.8580478750877432,0.5135687832223241,-0.0003386907986513303,0.0009133704029316986,0.0,0.0,0.0,0.0,0.0,0.0,0.0,0.0,0.0,-0.002508579670155027,0.0012432075712200902,0.0010818724071618435,0.0,0.0,0.0,0.0,0.0,0.0,0.0,0.0,0.0,0.01899001420072537,0.5227214779010556,9.808019021064364,0.0,0.0,0.0,0.0,0.0,0.0,0.0,0.0,0.0
2025/05/21 13:11:57.984159907,1747825917,983996444,mA1/imu,0.8580626597488994,0.5135441002379676,-0.00029384774558752257,0.0009179917881125793,0.0,0.0,0.0,0.0,0.0,0.0,0.0,0.0,0.0,-0.001792128825377233,0.0015757593545563024,0.001202203801674009,0.0,0.0,0.0,0.0,0.0,0.0,0.0,0.0,0.0,0.019153610716038,-0.04096694696637226,9.807747409080132,0.0,0.0,0.0,0.0,0.0,0.0,0.0,0.0,0.0
2025/05/21 13:11:58.35771228,1747825918,35385203,mA1/imu,0.8580791626597079,0.5135165454470927,-0.0002425808985808542,0.0009215833150251916,0.0,0.0,0.0,0.0,0.0,0.0,0.0,0.0,0.0,-0.0005246503962616925,0.0017446313842920634,0.001347600431696443,0.0,0.0,0.0,0.0,0.0,0.0,0.0,0.0,0.0,0.021575960859986268,-0.2688673956490723,9.809807719470149,0.0,0.0,0.0,0.0,0.0,0.0,0.0,0.0,0.0
2025/05/21 13:11:58.85274002,1747825918,84967905,mA1/imu,0.8580979283083382,0.5134851923303847,-0.0001802472109893727,0.0009328458118285699,0.0,0.0,0.0,0.0,0.0,0.0,0.0,0.0,0.0,-0.002170543572130369,0.0020272480980481696,0.0015522811961624099,0.0,0.0,0.0,0.0,0.0,0.0,0.0,0.0,0.0,0.012785010376271177,-0.05646028190017152,9.805727724878416,0.0,0.0,0.0,0.0,0.0,0.0,0.0,0.0,0.0
2025/05/21 13:11:58.126553229,1747825918,126434351,mA1/imu,0.8581180733076618,0.5134515392500565,-0.00012073926602928608,0.000935161228752304,0.0,0.0,0.0,0.0,0.0,0.0,0.0,0.0,0.0,-0.0012252957706990805,0.0019508400710204661,0.0015798190999641074,0.0,0.0,0.0,0.0,0.0,0.0,0.0,0.0,0.0,0.02345160061155492,-0.6179586897316847,9.807382898837362,0.0,0.0,0.0,0.0,0.0,0.0,0.0,0.0,0.0
2025/05/21 13:11:58.176136317,1747825918,175741325,mA1/imu,0.8581385110110009,0.5134173849122965,-6.50090018322655e-05,0.0009383834348729713,0.0,0.0,0.0,0.0,0.0,0.0,0.0,0.0,0.0,-0.00041375531498983394,0.0017692376546975417,0.001604834306370116,0.0,0.0,0.0,0.0,0.0,0.0,0.0,0.0,0.0,0.02211722225363549,-0.45998542215849386,9.80726905083136,0.0,0.0,0.0,0.0,0.0,0.0,0.0,0.0,0.0
2025/05/21 13:11:58.227715362,1747825918,227409327,mA1/imu,0.8581592190880974,0.5133827566919245,-1.1385808088719678e-05,0.0009485229942236522,0.0,0.0,0.0,0.0,0.0,0.0,0.0,0.0,0.0,-0.001338471613975704,0.0015189157644169126,0.0016264705347261797,0.0,0.0,0.0,0.0,0.0,0.0,0.0,0.0,0.0,0.022016207326331225,0.11305546501324235,9.809657067221963,0.0,0.0,0.0,0.0,0.0,0.0,0.0,0.0,0.0
2025/05/21 13:11:58.276988570,1747825918,276709403,mA1/imu,0.8581803285694005,0.5133474522033901,3.206384599429565e-05,0.0009570500058769819,0.0,0.0,0.0,0.0,0.0,0.0,0.0,0.0,0.0,-0.00023024138111355145,0.0011773903769256898,0.0016617080780221146,0.0,0.0,0.0,0.0,0.0,0.0,0.0,0.0,0.0,0.02174385767694202,0.2892668294614292,9.810887378271838,0.0,0.0,0.0,0.0,0.0,0.0,0.0,0.0,0.0
2025/05/21 13:11:58.328199735,1747825918,327923275,mA1/imu,0.8582019037009587,0.5133113369564916,7.337134002049665e-05,0.0009790059427997168,0.0,0.0,0.0,0.0,0.0,0.0,0.0,0.0,0.0,-0.001386794296829492,0.0008058351491324697,0.0016995750846978662,0.0,0.0,0.0,0.0,0.0,0.0,0.0,0.0,0.0,0.02193140199718293,-0.028886840118597643,9.810911424509706,0.0,0.0,0.0,0.0,0.0,0.0,0.0,0.0,0.0
2025/05/21 13:11:58.377942294,1747825918,377661634,mA1/imu,0.858223940345054,0.5132744586758431,9.902516012871225e-05,0.0009942251491249358,0.0,0.0,0.0,0.0,0.0,0.0,0.0,0.0,0.0,-0.0010389435159510454,0.0003968062249141159,0.0017324783195270506,0.0,0.0,0.0,0.0,0.0,0.0,0.0,0.0,0.0,0.021468566069745246,-0.6492179761182296,9.81132732711973,0.0,0.0,0.0,0.0,0.0,0.0,0.0,0.0,0.0
2025/05/21 13:11:58.428918222,1747825918,428638372,mA1/imu,0.8582464306309683,0.5132368341591803,0.00010825992609160464,0.0010023229286277467,0.0,0.0,0.0,0.0,0.0,0.0,0.0,0.0,0.0,-0.0009423641108909684,-1.273817070023576e-05,0.0017676500206723047,0.0,0.0,0.0,0.0,0.0,0.0,0.0,0.0,0.0,0.02137263129494313,-0.03533835995593775,9.81237364909927,0.0,0.0,0.0,0.0,0.0,0.0,0.0,0.0,0.0
2025/05/21 13:11:58.478865777,1747825918,478580765,mA1/imu,0.8582696772326638,0.5131979474715325,0.00010545817402587483,0.0010083315519755006,0.0,0.0,0.0,0.0,0.0,0.0,0.0,0.0,0.0,-0.00038440119217215556,-0.0002736554495973917,0.0018806341566800426,0.0,0.0,0.0,0.0,0.0,0.0,0.0,0.0,0.0,0.010454527028283745,0.0018942285879938216,9.810884142390384,0.0,0.0,0.0,0.0,0.0,0.0,0.0,0.0,0.0
2025/05/21 13:11:58.530082674,1747825918,529844077,mA1/imu,0.8582943766830898,0.513156626578119,9.549674386625487e-05,0.0010151027154615975,0.0,0.0,0.0,0.0,0.0,0.0,0.0,0.0,0.0,0.000141248599881398,-0.0006342825279319696,0.0019392670220101027,0.0,0.0,0.0,0.0,0.0,0.0,0.0,0.0,0.0,0.021416437851207407,0.2205474434869333,9.811883919588398,0.0,0.0,0.0,0.0,0.0,0.0,0.0,0.0,0.0
2025/05/21 13:11:58.579709146,1747825918,579439262,mA1/imu,0.8583191412431392,0.5131151970606547,7.351133932676944e-05,0.0010202534628189445,0.0,0.0,0.0,0.0,0.0,0.0,0.0,0.0,0.0,0.0018254551080802957,-0.0010997219579014826,0.0018416310427723868,0.0,0.0,0.0,0.0,0.0,0.0,0.0,0.0,0.0,0.03389496463905059,-0.5517285600063584,9.812665325932736,0.0,0.0,0.0,0.0,0.0,0.0,0.0,0.0,0.0
2025/05/21 13:11:58.630916589,1747825918,630579886,mA1/imu,0.8583396339031208,0.513080892331656,4.090818727540057e-05,0.0010339834274496217,0.0,0.0,0.0,0.0,0.0,0.0,0.0,0.0,0.0,0.0006279776029107645,-0.001643646551358457,0.0014386632744248732,0.0,0.0,0.0,0.0,0.0,0.0,0.0,0.0,0.0,0.03214935135906498,-0.016981518546916367,9.81339099456045,0.0,0.0,0.0,0.0,0.0,0.0,0.0,0.0,0.0
2025/05/21 13:11:58.680602171,1747825918,680329543,mA1/imu,0.8583548471246139,0.5130554154275048,-6.490555568630055e-06,0.0010474139888431678,0.0,0.0,0.0,0.0,0.0,0.0,0.0,0.0,0.0,5.5557496257012754e-05,-0.002090166053316032,0.0010084748631527065,0.0,0.0,0.0,0.0,0.0,0.0,0.0,0.0,0.0,0.03167786616277931,-0.06714524798203102,9.81339419559608,0.0,0.0,0.0,0.0,0.0,0.0,0.0,0.0,0.0
2025/05/21 13:11:58.732174444,1747825918,731919655,mA1/imu,0.8583642612214154,0.5130396313599873,-6.559155802129989e-05,0.0010617954462646215,0.0,0.0,0.0,0.0,0.0,0.0,0.0,0.0,0.0,-0.0007236305898851318,-0.00243124198163814,0.0005433463572549572,0.0,0.0,0.0,0.0,0.0,0.0,0.0,0.0,0.0,0.029016449087594154,0.36027599815101774,9.813529172893086,0.0,0.0,0.0,0.0,0.0,0.0,0.0,0.0,0.0
2025/05/21 13:11:58.781900225,1747825918,781716835,mA1/imu,0.8583676311169091,0.5130339599475394,-0.00013271467848914164,0.0010715307305087611,0.0,0.0,0.0,0.0,0.0,0.0,0.0,0.0,0.0,0.0005818619234757479,-0.002464514403315404,6.672320558696307e-05,0.0,0.0,0.0,0.0,0.0,0.0,0.0,0.0,0.0,0.021742139738470848,-0.03809014212018878,9.808419381827736,0.0,0.0,0.0,0.0,0.0,0.0,0.0,0.0,0.0
2025/05/21 13:11:58.833498159,1747825918,833116913,mA1/imu,0.8583647665628114,0.5130387159192228,-0.0001994334663069103,0.0010787575344356213,0.0,0.0,0.0,0.0,0.0,0.0,0.0,0.0,0.0,0.001432357050342283,-0.002353211607513331,-0.0004205377156631421,0.0,0.0,0.0,0.0,0.0,0.0,0.0,0.0,0.0,0.01932294226557093,0.21758204959126118,9.808412883604074,0.0,0.0,0.0,0.0,0.0,0.0,0.0,0.0,0.0
2025/05/21 13:11:58.882697387,1747825918,882470517,mA1/imu,0.8583552264542516,0.5130546318768947,-0.0002586072462699739,0.0010876813075960392,0.0,0.0,0.0,0.0,0.0,0.0,0.0,0.0,0.0,0.0013846930805953347,-0.002109021627975923,-0.0009647956249474654,0.0,0.0,0.0,0.0,0.0,0.0,0.0,0.0,0.0,0.023488473410160075,0.047961578291128654,9.812618528807738,0.0,0.0,0.0,0.0,0.0,0.0,0.0,0.0,0.0
2025/05/21 13:11:58.933691001,1747825918,933578012,mA1/imu,0.8583385126893088,0.5130825525258437,-0.00030939512071314034,0.001093710441135479,0.0,0.0,0.0,0.0,0.0,0.0,0.0,0.0,0.0,0.002539681614813258,-0.0017012154820496184,-0.0015338890133499178,0.0,0.0,0.0,0.0,0.0,0.0,0.0,0.0,0.0,0.0211692671800908,-0.31812733736296384,9.812089232379638,0.0,0.0,0.0,0.0,0.0,0.0,0.0,0.0,0.0
2025/05/21 13:11:58.983735396,1747825918,983474561,mA1/imu,0.8583142974656677,0.5131230238055874,-0.0003438378235583901,0.0011004463543827889,0.0,0.0,0.0,0.0,0.0,0.0,0.0,0.0,0.0,0.0010053070967259963,-0.0011626331077027627,-0.002139638201494637,0.0,0.0,0.0,0.0,0.0,0.0,0.0,0.0,0.0,0.026087790790679955,-0.6420124993052986,9.806668912383788,0.0,0.0,0.0,0.0,0.0,0.0,0.0,0.0,0.0
2025/05/21 13:11:59.35297556,1747825919,34407735,mA1/imu,0.8582837353938351,0.5131741382100768,-0.00036197483504232336,0.0010965422787224633,0.0,0.0,0.0,0.0,0.0,0.0,0.0,0.0,0.0,-0.0006400974551815493,2.5965456983563624e-05,-0.002459882456122063,0.0,0.0,0.0,0.0,0.0,0.0,0.0,0.0,0.0,-0.006965052167680941,-0.12275050719857836,9.808884542798584,0.0,0.0,0.0,0.0,0.0,0.0,0.0,0.0,0.0
2025/05/21 13:11:59.84609731,1747825919,84268544,mA1/imu,0.8582521139316278,0.5132270952597467,-0.00035503835925784397,0.001063753213194457,0.0,0.0,0.0,0.0,0.0,0.0,0.0,0.0,0.0,-0.0010569199663279802,0.001524124477763586,-0.0024550435576222857,0.0,0.0,0.0,0.0,0.0,0.0,0.0,0.0,0.0,-0.007507716322371516,0.5105574247402065,9.807656261768365,0.0,0.0,0.0,0.0,0.0,0.0,0.0,0.0,0.0
2025/05/21 13:11:59.137621045,1747825919,135934361,mA1/imu,0.8582211335460062,0.513279024133159,-0.00031643849241154946,0.001014488344351076,0.0,0.0,0.0,0.0,0.0,0.0,0.0,0.0,0.0,0.00024370610464393043,0.00288061316720324,-0.00240358340192142,0.0,0.0,0.0,0.0,0.0,0.0,0.0,0.0,0.0,-0.00572861794627277,0.6044290048926846,9.807806017836702,0.0,0.0,0.0,0.0,0.0,0.0,0.0,0.0,0.0
2025/05/21 13:11:59.185301764,1747825919,185078036,mA1/imu,0.858190741754533,0.51332998436411,-0.000245404611382684,0.0009579645733044297,0.0,0.0,0.0,0.0,0.0,0.0,0.0,0.0,0.0,0.00180791924184992,0.004050587826738828,-0.00235148056866631,0.0,0.0,0.0,0.0,0.0,0.0,0.0,0.0,0.0,-0.005496319756242965,0.08922174228289843,9.80904319425415,0.0,0.0,0.0,0.0,0.0,0.0,0.0,0.0,0.0
2025/05/21 13:11:59.226715986,1747825919,226405539,mA1/imu,0.8581609154436537,0.5133799901594726,-0.00014634285709798486,0.0008986058859861312,0.0,0.0,0.0,0.0,0.0,0.0,0.0,0.0,0.0,0.0019311723094502114,0.004948659825875601,-0.0023029610477033513,0.0,0.0,0.0,0.0,0.0,0.0,0.0,0.0,0.0,-0.003708714882352514,-0.5200511606758419,9.80752940807509,0.0,0.0,0.0,0.0,0.0,0.0,0.0,0.0,0.0
2025/05/21 13:11:59.276137522,1747825919,275903794,mA1/imu,0.8581316462515615,0.5134290417138994,-2.9124631126703634e-05,0.0008342530118680201,0.0,0.0,0.0,0.0,0.0,0.0,0.0,0.0,0.0,0.00034040703724874286,0.005549107424857263,-0.002255709020446922,0.0,0.0,0.0,0.0,0.0,0.0,0.0,0.0,0.0,-0.0033188981162712763,-0.6224693998220103,9.80669061570915,0.0,0.0,0.0,0.0,0.0,0.0,0.0,0.0,0.0
2025/05/21 13:11:59.327050651,1747825919,326877773,mA1/imu,0.8581029206312499,0.5134771553924599,9.438723312884417e-05,0.0007613049564424649,0.0,0.0,0.0,0.0,0.0,0.0,0.0,0.0,0.0,-0.0013690587630674573,0.005809310685226072,-0.00222020502114618,0.0,0.0,0.0,0.0,0.0,0.0,0.0,0.0,0.0,-0.000521282346574831,-0.16232085642747593,9.808559618662011,0.0,0.0,0.0,0.0,0.0,0.0,0.0,0.0,0.0
2025/05/21 13:11:59.376981183,1747825919,376778791,mA1/imu,0.8580747398473628,0.5135243213616044,0.00021562430699969783,0.0006824310534226641,0.0,0.0,0.0,0.0,0.0,0.0,0.0,0.0,0.0,-0.0018485045097790314,0.005736976155085607,-0.0021864204899808086,0.0,0.0,0.0,0.0,0.0,0.0,0.0,0.0,0.0,0.0006879386505920645,0.5092010617101952,9.80851417365784,0.0,0.0,0.0,0.0,0.0,0.0,0.0,0.0,0.0
2025/05/21 13:11:59.428447065,1747825919,428153421,mA1/imu,0.858047079290445,0.5135705587366866,0.00033511439393820266,0.0006153197277542393,0.0,0.0,0.0,0.0,0.0,0.0,0.0,0.0,0.0,-0.0011146178248708746,0.0052859015325703645,-0.0021395260586628585,0.0,0.0,0.0,0.0,0.0,0.0,0.0,0.0,0.0,0.0029388069900628004,0.5670244069929284,9.810110772056696,0.0,0.0,0.0,0.0,0.0,0.0,0.0,0.0,0.0
2025/05/21 13:11:59.477966928,1747825919,477736068,mA1/imu,0.8580212170323724,0.5136137558698796,0.0004432518961143139,0.000551752914555943,0.0,0.0,0.0,0.0,0.0,0.0,0.0,0.0,0.0,0.00017635461047561067,0.005087067694907425,-0.0017645968501694932,0.0,0.0,0.0,0.0,0.0,0.0,0.0,0.0,0.0,-0.0385152649539324,0.6623712865470538,9.812861444270325,0.0,0.0,0.0,0.0,0.0,0.0,0.0,0.0,0.0
2025/05/21 13:11:59.529347313,1747825919,528951524,mA1/imu,0.8579997782071559,0.5136495077323354,0.0005513492686877622,0.0005097222623850672,0.0,0.0,0.0,0.0,0.0,0.0,0.0,0.0,0.0,0.0015374879259770018,0.0041263995986536425,-0.0016314672805448258,0.0,0.0,0.0,0.0,0.0,0.0,0.0,0.0,0.0,0.0044635238295076644,-0.4918128591276255,9.81029279173794,0.0,0.0,0.0,0.0,0.0,0.0,0.0,0.0,0.0
2025/05/21 13:11:59.579086999,1747825919,578752344,mA1/imu,0.8579791522387205,0.5136838905170367,0.0006335431447196292,0.00048329089731627547,0.0,0.0,0.0,0.0,0.0,0.0,0.0,0.0,0.0,-0.00012804595283300008,0.002886972834650325,-0.0015001073682626652,0.0,0.0,0.0,0.0,0.0,0.0,0.0,0.0,0.0,-0.006274321412333762,0.03059336319080741,9.808922765239721,0.0,0.0,0.0,0.0,0.0,0.0,0.0,0.0,0.0
2025/05/21 13:11:59.630471906,1747825919,630051860,mA1/imu,0.8579627097409954,0.513711288722633,0.0006916242493176382,0.0004713689824400523,0.0,0.0,0.0,0.0,0.0,0.0,0.0,0.0,0.0,-0.0008423197381973338,0.0017634067400063025,-0.0011138115383412985,0.0,0.0,0.0,0.0,0.0,0.0,0.0,0.0,0.0,-0.006977701986698734,-0.017070400227877605,9.808334028579974,0.0,0.0,0.0,0.0,0.0,0.0,0.0,0.0,0.0
2025/05/21 13:11:59.679846942,1747825919,679586502,mA1/imu,0.8579517268593386,0.5137295910168905,0.0007214180841733483,0.00047037075250936115,0.0,0.0,0.0,0.0,0.0,0.0,0.0,0.0,0.0,-0.0024666036590276852,0.0005780615663964056,-0.0006771787658590007,0.0,0.0,0.0,0.0,0.0,0.0,0.0,0.0,0.0,-0.004908650749390856,0.49554211540369253,9.811835031668036,0.0,0.0,0.0,0.0,0.0,0.0,0.0,0.0,0.0
2025/05/21 13:11:59.731573177,1747825919,730934078,mA1/imu,0.8579466783925119,0.5137380206537293,0.0007174515985846528,0.00047794690916735255,0.0,0.0,0.0,0.0,0.0,0.0,0.0,0.0,0.0,-0.0008090186779044086,-0.0008086135264592314,-0.0002075776535256178,0.0,0.0,0.0,0.0,0.0,0.0,0.0,0.0,0.0,0.0012498487439830614,-0.03514417123273483,9.814469142204954,0.0,0.0,0.0,0.0,0.0,0.0,0.0,0.0,0.0
2025/05/21 13:11:59.781420107,1747825919,781231354,mA1/imu,0.8579475344080559,0.5137366147635359,0.0006837009142831056,0.0005014055244846258,0.0,0.0,0.0,0.0,0.0,0.0,0.0,0.0,0.0,0.0002437148387163773,-0.0022202035876276263,0.0002477430529115074,0.0,0.0,0.0,0.0,0.0,0.0,0.0,0.0,0.0,0.003760676897201995,0.025325356500988053,9.813579741414554,0.0,0.0,0.0,0.0,0.0,0.0,0.0,0.0,0.0
2025/05/21 13:11:59.832802199,1747825919,832515945,mA1/imu,0.8579545448709668,0.513724955060732,0.0006180849649304778,0.0005361474400352229,0.0,0.0,0.0,0.0,0.0,0.0,0.0,0.0,0.0,-0.00015526792024543303,-0.003426462722836004,0.0007471756491224662,0.0,0.0,0.0,0.0,0.0,0.0,0.0,0.0,0.0,-0.005063242759174934,0.6267776776264621,9.812069814660656,0.0,0.0,0.0,0.0,0.0,0.0,0.0,0.0,0.0
2025/05/21 13:11:59.882473871,1747825919,882161421,mA1/imu,0.8579682990989338,0.5137020323634282,0.0005278348525281839,0.0005840182654714735,0.0,0.0,0.0,0.0,0.0,0.0,0.0,0.0,0.0,0.001630858656057476,-0.0044992183813609265,0.0012664926356483065,0.0,0.0,0.0,0.0,0.0,0.0,0.0,0.0,0.0,-0.0010338988083001808,0.10242637321242642,9.814454585933158,0.0,0.0,0.0,0.0,0.0,0.0,0.0,0.0,0.0
2025/05/21 13:11:59.934070576,1747825919,933871627,mA1/imu,0.8579877087125073,0.5136696288613032,0.00042188081934742803,0.0006527636073610013,0.0,0.0,0.0,0.0,0.0,0.0,0.0,0.0,0.0,0.0006881173814524664,-0.005531324632231171,0.0015731030311241052,0.0,0.0,0.0,0.0,0.0,0.0,0.0,0.0,0.0,0.013512441979709447,0.021108770434833793,9.80982285260676,0.0,0.0,0.0,0.0,0.0,0.0,0.0,0.0,0.0
2025/05/21 13:11:59.983920553,1747825919,983475436,mA1/imu,0.8580089756631784,0.5136341109366349,0.00028328083225806873,0.000719385658760624,0.0,0.0,0.0,0.0,0.0,0.0,0.0,0.0,0.0,0.0005033525146181318,-0.0064843901936310335,0.0017016411310330137,0.0,0.0,0.0,0.0,0.0,0.0,0.0,0.0,0.0,0.014387079927525333,0.004105919481996392,9.811720884528716,0.0,0.0,0.0,0.0,0.0,0.0,0.0,0.0,0.0
2025/05/21 13:12:00.35014043,1747825920,34819636,mA1/imu,0.8580315626676126,0.5135963166481887,0.000131587383517679,0.0008022944275582668,0.0,0.0,0.0,0.0,0.0,0.0,0.0,0.0,0.0,0.0015674478404721784,-0.007204810389546851,0.0017550910330938411,0.0,0.0,0.0,0.0,0.0,0.0,0.0,0.0,0.0,0.02085736552626723,-0.5531083046028025,9.812235014413043,0.0,0.0,0.0,0.0,0.0,0.0,0.0,0.0,0.0
2025/05/21 13:12:00.84484984,1747825920,84250123,mA1/imu,0.8580536553249913,0.5135592623082843,-2.9575818446109605e-05,0.0008987803194519888,0.0,0.0,0.0,0.0,0.0,0.0,0.0,0.0,0.0,-0.00039976795713819757,-0.0076758339202510194,0.001696627564013753,0.0,0.0,0.0,0.0,0.0,0.0,0.0,0.0,0.0,0.020970818191469936,-0.5048108498152537,9.809477240815227,0.0,0.0,0.0,0.0,0.0,0.0,0.0,0.0,0.0
2025/05/21 13:12:00.135883345,1747825920,135585645,mA1/imu,0.8580750474835597,0.5135233333504314,-0.00020672170850828518,0.0009778838806339982,0.0,0.0,0.0,0.0,0.0,0.0,0.0,0.0,0.0,0.0007121642606899094,-0.0076479090855612105,0.001646188402393193,0.0,0.0,0.0,0.0,0.0,0.0,0.0,0.0,0.0,0.01677456244933182,0.01997725618884552,9.809279569951366,0.0,0.0,0.0,0.0,0.0,0.0,0.0,0.0,0.0
2025/05/21 13:12:00.185540318,1747825920,185200519,mA1/imu,0.8580957348466915,0.5134884894913817,-0.00036761266795053155,0.00107044789792371,0.0,0.0,0.0,0.0,0.0,0.0,0.0,0.0,0.0,0.0013280959472832105,-0.00722117647149061,0.0015953846287592136,0.0,0.0,0.0,0.0,0.0,0.0,0.0,0.0,0.0,0.017013569060691285,0.06342685125682918,9.808269724788312,0.0,0.0,0.0,0.0,0.0,0.0,0.0,0.0,0.0
2025/05/21 13:12:00.226584174,1747825920,226305049,mA1/imu,0.8581157492788114,0.5134547311340528,-0.0005110149846725224,0.0011570563543066555,0.0,0.0,0.0,0.0,0.0,0.0,0.0,0.0,0.0,-0.00020054744527650946,-0.0063234817991014,0.0015461226942853374,0.0,0.0,0.0,0.0,0.0,0.0,0.0,0.0,0.0,0.015082686378368735,-0.0381340489578669,9.807349208121117,0.0,0.0,0.0,0.0,0.0,0.0,0.0,0.0,0.0
2025/05/21 13:12:00.276228810,1747825920,276002216,mA1/imu,0.858135180214468,0.5134219777460479,-0.0006401927500536791,0.0012146599779268622,0.0,0.0,0.0,0.0,0.0,0.0,0.0,0.0,0.0,0.001395481771131108,-0.005095361846293714,0.001500760946587931,0.0,0.0,0.0,0.0,0.0,0.0,0.0,0.0,0.0,0.014270136265565492,0.07307820255115514,9.81033967064997,0.0,0.0,0.0,0.0,0.0,0.0,0.0,0.0,0.0
2025/05/21 13:12:00.327375443,1747825920,327101041,mA1/imu,0.8581540079093285,0.513390241830663,-0.0007239208296817865,0.001278374296557582,0.0,0.0,0.0,0.0,0.0,0.0,0.0,0.0,0.0,0.00022399657922688948,-0.003575890143859959,0.0014554173244773526,0.0,0.0,0.0,0.0,0.0,0.0,0.0,0.0,0.0,0.013634859376174948,-0.6331090089712119,9.807362162271525,0.0,0.0,0.0,0.0,0.0,0.0,0.0,0.0,0.0
2025/05/21 13:12:00.377077076,1747825920,376776699,mA1/imu,0.8581707844215103,0.5133620455227442,-0.0007901919921048771,0.0013002225537181167,0.0,0.0,0.0,0.0,0.0,0.0,0.0,0.0,0.0,-0.0007404542947089468,-0.002411231454836187,0.00101614967336245,0.0,0.0,0.0,0.0,0.0,0.0,0.0,0.0,0.0,0.0598599800531389,-0.06374526177033837,9.809472138787994,0.0,0.0,0.0,0.0,0.0,0.0,0.0,0.0,0.0
2025/05/21 13:12:00.427890832,1747825920,427758830,mA1/imu,0.8581821669737928,0.5133429325418509,-0.0008280750334894792,0.0013100340594576188,0.0,0.0,0.0,0.0,0.0,0.0,0.0,0.0,0.0,0.0012235330265820692,-0.0007570696571715298,0.0008610672379004689,0.0,0.0,0.0,0.0,0.0,0.0,0.0,0.0,0.0,0.01125736084032394,0.0693947827296501,9.808966308493476,0.0,0.0,0.0,0.0,0.0,0.0,0.0,0.0,0.0
2025/05/21 13:12:00.477996479,1747825920,477681070,mA1/imu,0.8581929545710019,0.5133249285706688,-0.0008212021509413966,0.0013023285451652994,0.0,0.0,0.0,0.0,0.0,0.0,0.0,0.0,0.0,0.0013948202449171865,0.0011488557177688897,0.000830242505698919,0.0,0.0,0.0,0.0,0.0,0.0,0.0,0.0,0.0,0.011677213816353334,0.027722935660709137,9.807851670336909,0.0,0.0,0.0,0.0,0.0,0.0,0.0,0.0,0.0
2025/05/21 13:12:00.528984170,1747825920,528711594,mA1/imu,0.8582033335173521,0.5133077191093092,-0.0007703686665573281,0.001276861237827226,0.0,0.0,0.0,0.0,0.0,0.0,0.0,0.0,0.0,-8.091205012941614e-05,0.002977071874532419,0.0007943345580353987,0.0,0.0,0.0,0.0,0.0,0.0,0.0,0.0,0.0,0.01290165437750388,-0.02010983310015845,9.807533771273041,0.0,0.0,0.0,0.0,0.0,0.0,0.0,0.0,0.0
2025/05/21 13:12:00.578786354,1747825920,578552026,mA1/imu,0.8582133366290652,0.5132912425177684,-0.0006859069324017719,0.001224221488250246,0.0,0.0,0.0,0.0,0.0,0.0,0.0,0.0,0.0,-4.342119173300827e-05,0.004604123358925693,0.0007607974236375779,0.0,0.0,0.0,0.0,0.0,0.0,0.0,0.0,0.0,0.013726168314205874,-0.642373062780458,9.807570216055794,0.0,0.0,0.0,0.0,0.0,0.0,0.0,0.0,0.0
2025/05/21 13:12:00.630929820,1747825920,630445117,mA1/imu,0.8582229823427254,0.5132754341792479,-0.0005753155707577066,0.0011446653905827619,0.0,0.0,0.0,0.0,0.0,0.0,0.0,0.0,0.0,0.000352611582346253,0.0059349114911510775,0.0007298536963066479,0.0,0.0,0.0,0.0,0.0,0.0,0.0,0.0,0.0,0.016160211426761467,-0.25305788096593834,9.808360446981366,0.0,0.0,0.0,0.0,0.0,0.0,0.0,0.0,0.0
2025/05/21 13:12:00.679714388,1747825920,679490308,mA1/imu,0.8582330292069775,0.5132589567230207,-0.00043273728380046115,0.0010600284217369802,0.0,0.0,0.0,0.0,0.0,0.0,0.0,0.0,0.0,-0.0010524200907798312,0.007180910565390651,0.000909658335167446,0.0,0.0,0.0,0.0,0.0,0.0,0.0,0.0,0.0,-0.004047771208640239,0.44036299293760084,9.810465935386116,0.0,0.0,0.0,0.0,0.0,0.0,0.0,0.0,0.0
2025/05/21 13:12:00.731594897,1747825920,731109329,mA1/imu,0.8582461516906101,0.5132373205596781,-0.0002732633500557432,0.0009598021264563368,0.0,0.0,0.0,0.0,0.0,0.0,0.0,0.0,0.0,-0.0012892867978960155,0.007699067672762723,0.0010694858739523348,0.0,0.0,0.0,0.0,0.0,0.0,0.0,0.0,0.0,0.020731832545934595,0.5351173111487254,9.8108769953613,0.0,0.0,0.0,0.0,0.0,0.0,0.0,0.0,0.0
2025/05/21 13:12:00.781495177,1747825920,780445026,mA1/imu,0.8582607669909706,0.5132131193566292,-0.00010854719427063578,0.0008591750786476675,0.0,0.0,0.0,0.0,0.0,0.0,0.0,0.0,0.0,0.0002310647521128001,0.00767616072163427,0.001156756756300551,0.0,0.0,0.0,0.0,0.0,0.0,0.0,0.0,0.0,0.02224079863803983,0.017129074617226056,9.811484837393563,0.0,0.0,0.0,0.0,0.0,0.0,0.0,0.0,0.0
2025/05/21 13:12:00.831752306,1747825920,831572491,mA1/imu,0.8582756859698342,0.5131883266540666,5.1210303744862425e-05,0.0007652689162431212,0.0,0.0,0.0,0.0,0.0,0.0,0.0,0.0,0.0,0.001770627885257351,0.007167812024386427,0.0011641498409063228,0.0,0.0,0.0,0.0,0.0,0.0,0.0,0.0,0.0,0.02414382885967142,-0.49768969561860954,9.810716762572465,0.0,0.0,0.0,0.0,0.0,0.0,0.0,0.0,0.0
2025/05/21 13:12:00.881581721,1747825920,881355560,mA1/imu,0.858290700227612,0.5131632846968622,0.00020090386518916662,0.0006904922588006514,0.0,0.0,0.0,0.0,0.0,0.0,0.0,0.0,0.0,0.00018389759797376125,0.006261183612884854,0.001176024366490238,0.0,0.0,0.0,0.0,0.0,0.0,0.0,0.0,0.0,0.02722821452205461,0.014805967947393651,9.810791064021084,0.0,0.0,0.0,0.0,0.0,0.0,0.0,0.0,0.0
2025/05/21 13:12:00.937922851,1747825920,935991677,mA1/imu,0.8583058649376419,0.5131379313498009,0.0003272175883405057,0.0006313100217057453,0.0,0.0,0.0,0.0,0.0,0.0,0.0,0.0,0.0,-0.001386206541725725,0.0050165977028661535,0.00119052879783588,0.0,0.0,0.0,0.0,0.0,0.0,0.0,0.0,0.0,0.028692731818963674,-0.0771907754020912,9.81147435090397,0.0,0.0,0.0,0.0,0.0,0.0,0.0,0.0,0.0
2025/05/21 13:12:00.976879690,1747825920,976316477,mA1/imu,0.8583212128471107,0.5131122469165541,0.000419230097554165,0.0005847110699901331,0.0,0.0,0.0,0.0,0.0,0.0,0.0,0.0,0.0,-0.0014731766433739174,0.003501364877807644,0.0012092316531561078,0.0,0.0,0.0,0.0,0.0,0.0,0.0,0.0,0.0,0.02656048303535599,-0.07725570654396371,9.812574170986247,0.0,0.0,0.0,0.0,0.0,0.0,0.0,0.0,0.0
2025/05/21 13:12:01.30409755,1747825921,29614504,mA1/imu,0.8583367869262466,0.5130861840456604,0.00047170691874423066,0.0005526691346403504,0.0,0.0,0.0,0.0,0.0,0.0,0.0,0.0,0.0,-9.513354593005562e-05,0.0017750942918347693,0.001224312321127669,0.0,0.0,0.0,0.0,0.0,0.0,0.0,0.0,0.0,0.026835846565257705,0.015747954681332013,9.812168029168829,0.0,0.0,0.0,0.0,0.0,0.0,0.0,0.0,0.0
2025/05/21 13:12:01.83912451,1747825921,80448605,mA1/imu,0.858352585081855,0.5130597407106162,0.0004900720488778323,0.0005495221917430188,0.0,0.0,0.0,0.0,0.0,0.0,0.0,0.0,0.0,0.00023588852040028465,-1.621729978844922e-05,0.0012372394805157095,0.0,0.0,0.0,0.0,0.0,0.0,0.0,0.0,0.0,0.026433635337708053,0.07466930082538097,9.812642458915485,0.0,0.0,0.0,0.0,0.0,0.0,0.0,0.0,0.0
2025/05/21 13:12:01.133923505,1747825921,133793581,mA1/imu,0.8583685861470081,0.5130329593553871,0.0004733288614165175,0.0005734900425027076,0.0,0.0,0.0,0.0,0.0,0.0,0.0,0.0,0.0,-2.4465492492714416e-05,-0.0017671026534669247,0.0012519771138526205,0.0,0.0,0.0,0.0,0.0,0.0,0.0,0.0,0.0,0.025375354835408863,0.016922713232810277,9.812374291399593,0.0,0.0,0.0,0.0,0.0,0.0,0.0,0.0,0.0
2025/05/21 13:12:01.183762559,1747825921,183547878,mA1/imu,0.8583842701510334,0.5130067062237652,0.0004207669206250741,0.0006221590792381824,0.0,0.0,0.0,0.0,0.0,0.0,0.0,0.0,0.0,0.00022143968599566306,-0.003590517195714567,0.0011223027115119658,0.0,0.0,0.0,0.0,0.0,0.0,0.0,0.0,0.0,0.0385090206608724,-0.5997434203570349,9.808778638923112,0.0,0.0,0.0,0.0,0.0,0.0,0.0,0.0,0.0
2025/05/21 13:12:01.235090433,1747825921,234623335,mA1/imu,0.8583983237977212,0.5129831848759587,0.0003264278115622176,0.0006805737756913127,0.0,0.0,0.0,0.0,0.0,0.0,0.0,0.0,0.0,0.0006928933638704108,-0.004957092845528564,0.0010956049782446418,0.0,0.0,0.0,0.0,0.0,0.0,0.0,0.0,0.0,0.022443095762073543,-0.5659744760643178,9.809638446820177,0.0,0.0,0.0,0.0,0.0,0.0,0.0,0.0,0.0
2025/05/21 13:12:01.284700350,1747825921,284440787,mA1/imu,0.8584124812942042,0.5129594589819311,0.00020501094936067212,0.0007505796445926702,0.0,0.0,0.0,0.0,0.0,0.0,0.0,0.0,0.0,0.001062569362867821,-0.006007371993675995,0.0011063700797758697,0.0,0.0,0.0,0.0,0.0,0.0,0.0,0.0,0.0,0.022439498373544777,-0.2531746010142646,9.810421633699072,0.0,0.0,0.0,0.0,0.0,0.0,0.0,0.0,0.0
2025/05/21 13:12:01.336944900,1747825921,335787367,mA1/imu,0.8584267571908488,0.5129354630959337,7.246265519827603e-05,0.000841419352595508,0.0,0.0,0.0,0.0,0.0,0.0,0.0,0.0,0.0,-0.0010019734011795765,-0.006648353630395598,0.0011194493829516118,0.0,0.0,0.0,0.0,0.0,0.0,0.0,0.0,0.0,0.01866898637564682,0.49311934834996834,9.811172928518724,0.0,0.0,0.0,0.0,0.0,0.0,0.0,0.0,0.0
2025/05/21 13:12:01.385675505,1747825921,385245665,mA1/imu,0.8584413670012516,0.5129108555050684,-7.209398680642592e-05,0.0009319487851826146,0.0,0.0,0.0,0.0,0.0,0.0,0.0,0.0,0.0,-0.0014814739129020813,-0.006888237836814368,0.0011536566214000361,0.0,0.0,0.0,0.0,0.0,0.0,0.0,0.0,0.0,0.0184041201703836,0.46152771373746887,9.81033270295624,0.0,0.0,0.0,0.0,0.0,0.0,0.0,0.0,0.0
2025/05/21 13:12:01.426442673,1747825921,426277646,mA1/imu,0.8584564421308637,0.5128854400296848,-0.00022727424515040477,0.0010053437189138298,0.0,0.0,0.0,0.0,0.0,0.0,0.0,0.0,0.0,0.0012299399363138648,-0.006720119700173178,0.0011898605734572615,0.0,0.0,0.0,0.0,0.0,0.0,0.0,0.0,0.0,0.014412867416369874,0.07730217340185676,9.80788028693585,0.0,0.0,0.0,0.0,0.0,0.0,0.0,0.0,0.0
2025/05/21 13:12:01.476402647,1747825921,476125572,mA1/imu,0.8584719397940246,0.5128592335101246,-0.0003580115732353402,0.001098643438747637,0.0,0.0,0.0,0.0,0.0,0.0,0.0,0.0,0.0,-3.266106434802722e-05,-0.006164530926466152,0.0012321694062702119,0.0,0.0,0.0,0.0,0.0,0.0,0.0,0.0,0.0,0.01516350301581983,-0.1061527209815229,9.810314274271354,0.0,0.0,0.0,0.0,0.0,0.0,0.0,0.0,0.0
2025/05/21 13:12:01.527723628,1747825921,527458566,mA1/imu,0.858487966301682,0.5128321684622846,-0.0004862070540734835,0.0011585802405294735,0.0,0.0,0.0,0.0,0.0,0.0,0.0,0.0,0.0,-0.00041698209093569115,-0.005234583949821549,0.0012669308451548496,0.0,0.0,0.0,0.0,0.0,0.0,0.0,0.0,0.0,0.013533073274573945,-0.05032809412420405,9.807844380968204,0.0,0.0,0.0,0.0,0.0,0.0,0.0,0.0,0.0
2025/05/21 13:12:01.577191780,1747825921,576873830,mA1/imu,0.8585043924922979,0.5128044374900504,-0.0005847852169234983,0.001214490919598674,0.0,0.0,0.0,0.0,0.0,0.0,0.0,0.0,0.0,0.00027301874718110923,-0.004038736556341375,0.0012996797786405277,0.0,0.0,0.0,0.0,0.0,0.0,0.0,0.0,0.0,0.013212194024654754,-0.6344136027254463,9.806815378972777,0.0,0.0,0.0,0.0,0.0,0.0,0.0,0.0,0.0
2025/05/21 13:12:01.628127982,1747825921,627802893,mA1/imu,0.8585212714116052,0.5127760174012115,-0.0006591926576238322,0.001244177235728389,0.0,0.0,0.0,0.0,0.0,0.0,0.0,0.0,0.0,-0.001982482449753487,-0.0025600530654824784,0.0013280528460344442,0.0,0.0,0.0,0.0,0.0,0.0,0.0,0.0,0.0,0.012971918590223563,0.45655246635981117,9.809109923623014,0.0,0.0,0.0,0.0,0.0,0.0,0.0,0.0,0.0
2025/05/21 13:12:01.677980777,1747825921,677728160,mA1/imu,0.8585355975136774,0.512751958226187,-0.0007157243144190397,0.0012429303075692098,0.0,0.0,0.0,0.0,0.0,0.0,0.0,0.0,0.0,0.0003489260039295165,-0.0020281133850904407,0.0005110865749114743,0.0,0.0,0.0,0.0,0.0,0.0,0.0,0.0,0.0,0.10951021779012551,0.6077694094271378,9.810438565857151,0.0,0.0,0.0,0.0,0.0,0.0,0.0,0.0,0.0
2025/05/21 13:12:01.729204145,1747825921,728967317,mA1/imu,0.8585264083740836,0.5127671581403123,-0.000777737163511026,0.0012817105401499102,0.0,0.0,0.0,0.0,0.0,0.0,0.0,0.0,0.0,0.0003180684825118656,-0.003380596055127989,-0.0015059964671619362,0.0,0.0,0.0,0.0,0.0,0.0,0.0,0.0,0.0,0.10271139639591952,-0.020379729961935378,9.811216496107429,0.0,0.0,0.0,0.0,0.0,0.0,0.0,0.0,0.0
2025/05/21 13:12:01.778787159,1747825921,778602575,mA1/imu,0.8584908491476196,0.5128264394948268,-0.0008722768494466269,0.001320612719775289,0.0,0.0,0.0,0.0,0.0,0.0,0.0,0.0,0.0,0.0008619017676873232,-0.004397899509288002,-0.003608268318345338,0.0,0.0,0.0,0.0,0.0,0.0,0.0,0.0,0.0,0.0997476191618716,0.17997326112280373,9.813001815686462,0.0,0.0,0.0,0.0,0.0,0.0,0.0,0.0,0.0
2025/05/21 13:12:01.830394751,1747825921,830097443,mA1/imu,0.8584291223734375,0.5129294115650485,-0.0009706958053430928,0.0013850495862866262,0.0,0.0,0.0,0.0,0.0,0.0,0.0,0.0,0.0,0.0008667447918844714,-0.004624798981123366,-0.005448232237198677,0.0,0.0,0.0,0.0,0.0,0.0,0.0,0.0,0.0,0.02225807570671137,0.06565154410497404,9.808817464437892,0.0,0.0,0.0,0.0,0.0,0.0,0.0,0.0,0.0
2025/05/21 13:12:01.879828492,1747825921,879597502,mA1/imu,0.8583564463522151,0.5130507638683867,-0.001025539179801695,0.0014397809042383568,0.0,0.0,0.0,0.0,0.0,0.0,0.0,0.0,0.0,-0.0006661570324715142,-0.0018346522006212104,-0.005722970412922022,0.0,0.0,0.0,0.0,0.0,0.0,0.0,0.0,0.0,-0.0018624331694786778,-0.07035093230277288,9.805594443007195,0.0,0.0,0.0,0.0,0.0,0.0,0.0,0.0,0.0
2025/05/21 13:12:01.931331854,1747825921,930941325,mA1/imu,0.8582817629014275,0.513175672389711,-0.0010167232716028595,0.0014529321989299453,0.0,0.0,0.0,0.0,0.0,0.0,0.0,0.0,0.0,-0.0008494125625942622,0.0012454489084864052,-0.005897531676941731,0.0,0.0,0.0,0.0,0.0,0.0,0.0,0.0,0.0,-0.0006426774468884858,-0.6564058080636869,9.809214539823685,0.0,0.0,0.0,0.0,0.0,0.0,0.0,0.0,0.0
2025/05/21 13:12:01.980621139,1747825921,980411911,mA1/imu,0.8582045356069622,0.5133050119603636,-0.0009400928426217122,0.0014338707949064211,0.0,0.0,0.0,0.0,0.0,0.0,0.0,0.0,0.0,-0.002039486312749604,0.004222346041717651,-0.0060935033691201235,0.0,0.0,0.0,0.0,0.0,0.0,0.0,0.0,0.0,-0.005932137988844222,-0.09204295076425327,9.812177920599362,0.0,0.0,0.0,0.0,0.0,0.0,0.0,0.0,0.0
2025/05/21 13:12:02.31636678,1747825922,31458726,mA1/imu,0.8581247139647363,0.5134388427767688,-0.0008091956977266685,0.0013693842831744968,0.0,0.0,0.0,0.0,0.0,0.0,0.0,0.0,0.0,-0.0025441783280942365,0.006914020931578016,-0.006314205879722356,0.0,0.0,0.0,0.0,0.0,0.0,0.0,0.0,0.0,-0.0027185992592048056,0.5084332651482483,9.812268133331905,0.0,0.0,0.0,0.0,0.0,0.0,0.0,0.0,0.0
2025/05/21 13:12:02.81643165,1747825922,81409593,mA1/imu,0.8580419644307326,0.5135776077039153,-0.0006238150443111989,0.0012802326988275272,0.0,0.0,0.0,0.0,0.0,0.0,0.0,0.0,0.0,0.0007812712337959927,0.009043703402223472,-0.006535569960749325,0.0,0.0,0.0,0.0,0.0,0.0,0.0,0.0,0.0,-0.003980627215817517,0.12111980074732068,9.81297280312281,0.0,0.0,0.0,0.0,0.0,0.0,0.0,0.0,0.0
2025/05/21 13:12:02.133251466,1747825922,132555045,mA1/imu,0.8579590317589534,0.5137166092593497,-0.00038318607140097274,0.0011825238899243124,0.0,0.0,0.0,0.0,0.0,0.0,0.0,0.0,0.0,-0.0003542598150703416,0.010970359523025452,-0.006416799386396034,0.0,0.0,0.0,0.0,0.0,0.0,0.0,0.0,0.0,-0.006226948915356339,-0.5884929590101527,9.813563087822294,0.0,0.0,0.0,0.0,0.0,0.0,0.0,0.0,0.0
2025/05/21 13:12:02.182608531,1747825922,182279993,mA1/imu,0.8578779167401565,0.5138524874461923,-0.00012349471733871716,0.0010420479760070822,0.0,0.0,0.0,0.0,0.0,0.0,0.0,0.0,0.0,-0.000561500143367453,0.01227214532302455,-0.006220315186496782,0.0,0.0,0.0,0.0,0.0,0.0,0.0,0.0,0.0,-0.003933585574938685,0.02441947033400924,9.808160432430961,0.0,0.0,0.0,0.0,0.0,0.0,0.0,0.0,0.0
2025/05/21 13:12:02.233866195,1747825922,233473933,mA1/imu,0.8577992462586838,0.5139840670837593,0.00015844827427941054,0.0008982183564400207,0.0,0.0,0.0,0.0,0.0,0.0,0.0,0.0,0.0,0.0005462076471827239,0.012762081889792096,-0.006064166552230428,0.0,0.0,0.0,0.0,0.0,0.0,0.0,0.0,0.0,0.0001724938356338782,-0.33486961303521773,9.811499171604376,0.0,0.0,0.0,0.0,0.0,0.0,0.0,0.0,0.0
2025/05/21 13:12:02.283353062,1747825922,283204812,mA1/imu,0.8577221785918074,0.5141127509550335,0.0004355095906812298,0.0007443040828462437,0.0,0.0,0.0,0.0,0.0,0.0,0.0,0.0,0.0,-0.0004211134252656885,0.012503082604325344,-0.005941585686269447,0.0,0.0,0.0,0.0,0.0,0.0,0.0,0.0,0.0,0.0025723158413833236,-0.22053380035532916,9.81265560152892,0.0,0.0,0.0,0.0,0.0,0.0,0.0,0.0,0.0
