time,header_stamp_secs,header_stamp_nsecs,header_frame_id,orientation_x,orientation_y,orientation_z,orientation_w,orientation_covariance_0,orientation_covariance_1,orientation_covariance_2,orientation_covariance_3,orientation_covariance_4,orientation_covariance_5,orientation_covariance_6,orientation_covariance_7,orientation_covariance_8,angular_velocity_x,angular_velocity_y,angular_velocity_z,angular_velocity_covariance_0,angular_velocity_covariance_1,angular_velocity_covariance_2,angular_velocity_covariance_3,angular_velocity_covariance_4,angular_velocity_covariance_5,angular_velocity_covariance_6,angular_velocity_covariance_7,angular_velocity_covariance_8,linear_acceleration_x,linear_acceleration_y,linear_acceleration_z,linear_acceleration_covariance_0,linear_acceleration_covariance_1,linear_acceleration_covariance_2,linear_acceleration_covariance_3,linear_acceleration_covariance_4,linear_acceleration_covariance_5,linear_acceleration_covariance_6,linear_acceleration_covariance_7,linear_acceleration_covariance_8
2025/05/21 10:41:25.45239098,1747816884,980775674,mA1/imu,0.0036564925411972926,-0.9999929396923446,-0.0007943167100243967,-0.0003459605804853575,0.0,0.0,0.0,0.0,0.0,0.0,0.0,0.0,0.0,-5.034884121366236e-06,0.003113372639679731,0.0026133725350106106,0.0,0.0,0.0,0.0,0.0,0.0,0.0,0.0,0.0,-0.08070410106559306,-0.005464399741722794,9.802414475271533,0.0,0.0,0.0,0.0,0.0,0.0,0.0,0.0,0.0
2025/05/21 10:41:25.151096965,1747816885,33266238,mA1/imu,0.0035750611528191944,-0.9999932638064396,-0.0007932319576974255,-0.00024912358256788105,0.0,0.0,0.0,0.0,0.0,0.0,0.0,0.0,0.0,2.6179821136905295e-05,0.0038016996972255013,0.0033462015463139086,0.0,0.0,0.0,0.0,0.0,0.0,0.0,0.0,0.0,0.010751837626633984,-0.017581137961138228,9.808762899057973,0.0,0.0,0.0,0.0,0.0,0.0,0.0,0.0,0.0
2025/05/21 10:41:25.151211560,1747816885,83611674,mA1/imu,0.003490659272129166,-0.9999935803089335,-0.0007926628341693719,-0.00016224795111812764,0.0,0.0,0.0,0.0,0.0,0.0,0.0,0.0,0.0,3.525576196370883e-06,0.003232023260533587,0.0034002197926131794,0.0,0.0,0.0,0.0,0.0,0.0,0.0,0.0,0.0,0.010176120596360475,-0.017329336119155103,9.810602533427474,0.0,0.0,0.0,0.0,0.0,0.0,0.0,0.0,0.0
2025/05/21 10:41:25.151252125,1747816885,135574678,mA1/imu,0.0034046354811913464,-0.9999938856942144,-0.0007928242901672453,-9.198408327888209e-05,0.0,0.0,0.0,0.0,0.0,0.0,0.0,0.0,0.0,-2.4229444436943487e-05,0.002513608852951247,0.0034720587744249648,0.0,0.0,0.0,0.0,0.0,0.0,0.0,0.0,0.0,0.009895221992480975,-0.017061258297086906,9.81025149418799,0.0,0.0,0.0,0.0,0.0,0.0,0.0,0.0,0.0
2025/05/21 10:41:25.180030561,1747816885,176648078,mA1/imu,0.003316622873572439,-0.9999941841766828,-0.0007936855786670059,-4.1094126935722204e-05,0.0,0.0,0.0,0.0,0.0,0.0,0.0,0.0,0.0,-5.0314283570332356e-05,0.0017065625768177986,0.003558617488705215,0.0,0.0,0.0,0.0,0.0,0.0,0.0,0.0,0.0,0.00849924012347751,-0.017068822577664,9.811583808784864,0.0,0.0,0.0,0.0,0.0,0.0,0.0,0.0,0.0
2025/05/21 10:41:25.232582868,1747816885,231592824,mA1/imu,0.00322624720609397,-0.9999944794364158,-0.0007951728944521715,-1.121269939833352e-05,0.0,0.0,0.0,0.0,0.0,0.0,0.0,0.0,0.0,-7.302000757775643e-05,0.0008483741213108903,0.003658153639426797,0.0,0.0,0.0,0.0,0.0,0.0,0.0,0.0,0.0,0.00761770242127188,-0.016943410113984883,9.811275614172935,0.0,0.0,0.0,0.0,0.0,0.0,0.0,0.0,0.0
2025/05/21 10:41:25.284105223,1747816885,281249279,mA1/imu,0.003133131342412974,-0.9999947739872955,-0.0007971693677340028,-2.662312930085005e-06,0.0,0.0,0.0,0.0,0.0,0.0,0.0,0.0,0.0,-9.007727980284196e-05,-2.174699951480932e-06,0.003772746446525696,0.0,0.0,0.0,0.0,0.0,0.0,0.0,0.0,0.0,0.00652499036342572,-0.016383097856553043,9.80799469997253,0.0,0.0,0.0,0.0,0.0,0.0,0.0,0.0,0.0
2025/05/21 10:41:25.335623674,1747816885,332976844,mA1/imu,0.003036914746561079,-0.9999950688290035,-0.0007995339080100359,-1.456119408828586e-05,0.0,0.0,0.0,0.0,0.0,0.0,0.0,0.0,0.0,-9.70915267571647e-05,-0.0007917123852320514,0.0039004466127047868,0.0,0.0,0.0,0.0,0.0,0.0,0.0,0.0,0.0,0.0050876692622783696,-0.016201700572585184,9.808946390116384,0.0,0.0,0.0,0.0,0.0,0.0,0.0,0.0,0.0
2025/05/21 10:41:25.387357070,1747816885,386618029,mA1/imu,0.0029372366348521615,-0.9999953635999018,-0.0008021235127248305,-4.4916824795327314e-05,0.0,0.0,0.0,0.0,0.0,0.0,0.0,0.0,0.0,-9.760644489461365e-05,-0.0014856134512691447,0.004042632859191187,0.0,0.0,0.0,0.0,0.0,0.0,0.0,0.0,0.0,0.004215301040208466,-0.016218394274354238,9.810771638150616,0.0,0.0,0.0,0.0,0.0,0.0,0.0,0.0,0.0
2025/05/21 10:41:25.437644893,1747816885,433693729,mA1/imu,0.002833756368042919,-0.9999956569675648,-0.0008047620802827941,-9.071300533167551e-05,0.0,0.0,0.0,0.0,0.0,0.0,0.0,0.0,0.0,-9.582449532300516e-05,-0.002044733230066107,0.004201074772868464,0.0,0.0,0.0,0.0,0.0,0.0,0.0,0.0,0.0,0.0024868383528417804,-0.016024940616259305,9.810347687764827,0.0,0.0,0.0,0.0,0.0,0.0,0.0,0.0,0.0
2025/05/21 10:41:25.488340886,1747816885,486166843,mA1/imu,0.002726159611231988,-0.9999959472157011,-0.0008072483496783745,-0.00014817573621400868,0.0,0.0,0.0,0.0,0.0,0.0,0.0,0.0,0.0,-8.776135198583337e-05,-0.002446894067075986,0.004372207994951485,0.0,0.0,0.0,0.0,0.0,0.0,0.0,0.0,0.0,0.0009842716072001605,-0.0160160992691214,9.811637713170079,0.0,0.0,0.0,0.0,0.0,0.0,0.0,0.0,0.0
2025/05/21 10:41:25.529283347,1747816885,528699522,mA1/imu,0.002614138457786868,-0.9999962328133277,-0.0008094990301400635,-0.0002129567951847277,0.0,0.0,0.0,0.0,0.0,0.0,0.0,0.0,0.0,-9.202205306966582e-05,-0.0026685233794760945,0.004553385615844204,0.0,0.0,0.0,0.0,0.0,0.0,0.0,0.0,0.0,-0.0007601699471615469,-0.009432305348055052,9.811263716898456,0.0,0.0,0.0,0.0,0.0,0.0,0.0,0.0,0.0
2025/05/21 10:41:25.589094202,1747816885,581043089,mA1/imu,0.0024974023697187965,-0.9999965129054699,-0.0008114552346814337,-0.0002805328968624853,0.0,0.0,0.0,0.0,0.0,0.0,0.0,0.0,0.0,-6.12147771168836e-05,-0.002712968765660878,0.00474607184112731,0.0,0.0,0.0,0.0,0.0,0.0,0.0,0.0,0.0,-0.0016600653252612663,-0.015806525349549166,9.807848089125407,0.0,0.0,0.0,0.0,0.0,0.0,0.0,0.0,0.0
2025/05/21 10:41:25.637611682,1747816885,636385252,mA1/imu,0.002375694907334311,-0.9999967878780259,-0.0008126335554291322,-0.0003463149468004231,0.0,0.0,0.0,0.0,0.0,0.0,0.0,0.0,0.0,-2.7373613462624846e-05,-0.002565429543100777,0.004947378356347094,0.0,0.0,0.0,0.0,0.0,0.0,0.0,0.0,0.0,-0.0031933358507792043,-0.015256338426454992,9.808729514203874,0.0,0.0,0.0,0.0,0.0,0.0,0.0,0.0,0.0
2025/05/21 10:41:25.684486735,1747816885,684068141,mA1/imu,0.002248769252942947,-0.9999970585627503,-0.0008130266654462592,-0.0004060669102470772,0.0,0.0,0.0,0.0,0.0,0.0,0.0,0.0,0.0,7.612795883385243e-06,-0.002258413478973347,0.00515877730190776,0.0,0.0,0.0,0.0,0.0,0.0,0.0,0.0,0.0,-0.0036430413317480696,-0.015077332841458518,9.810578590821823,0.0,0.0,0.0,0.0,0.0,0.0,0.0,0.0,0.0
2025/05/21 10:41:25.739111266,1747816885,737086745,mA1/imu,0.0021187549473378068,-0.9999973197112739,-0.0008126071912416712,-0.00045947502022745327,0.0,0.0,0.0,0.0,0.0,0.0,0.0,0.0,0.0,3.868842176474128e-05,-0.002504482960389212,0.0049140084218729065,0.0,0.0,0.0,0.0,0.0,0.0,0.0,0.0,0.0,0.10577763190382064,-0.020126438265426178,9.811425859615095,0.0,0.0,0.0,0.0,0.0,0.0,0.0,0.0,0.0
2025/05/21 10:41:25.776872167,1747816885,776434571,mA1/imu,0.002029332732136554,-0.999997448508453,-0.0008129785911515918,-0.0005690791301086172,0.0,0.0,0.0,0.0,0.0,0.0,0.0,0.0,0.0,-1.0888395422012301e-05,-0.005537278218377803,0.0026961118700724825,0.0,0.0,0.0,0.0,0.0,0.0,0.0,0.0,0.0,0.1031431316001789,-0.020726718162162337,9.813873732817155,0.0,0.0,0.0,0.0,0.0,0.0,0.0,0.0,0.0
2025/05/21 10:41:25.834964291,1747816885,831933070,mA1/imu,0.0019937152800422976,-0.999997403808262,-0.0008143045671752132,-0.0007445698018874792,0.0,0.0,0.0,0.0,0.0,0.0,0.0,0.0,0.0,-6.86361114245454e-05,-0.007976423119010867,0.0005490716873581262,0.0,0.0,0.0,0.0,0.0,0.0,0.0,0.0,0.0,0.09454015284433046,-0.02076709764546424,9.813516155463656,0.0,0.0,0.0,0.0,0.0,0.0,0.0,0.0,0.0
2025/05/21 10:41:25.890613385,1747816885,884091119,mA1/imu,0.002010560648159009,-0.9999971737423557,-0.0008165281627638216,-0.0009713057913025913,0.0,0.0,0.0,0.0,0.0,0.0,0.0,0.0,0.0,-0.00012473512642072098,-0.00984332948172609,-0.0015437392114561294,0.0,0.0,0.0,0.0,0.0,0.0,0.0,0.0,0.0,0.10502553623379585,-0.019932286825032623,9.801696902265503,0.0,0.0,0.0,0.0,0.0,0.0,0.0,0.0,0.0
2025/05/21 10:41:25.929534640,1747816885,927706792,mA1/imu,0.0020509342167603583,-0.9999968530959734,-0.0008190905302508452,-0.0011901922919712558,0.0,0.0,0.0,0.0,0.0,0.0,0.0,0.0,0.0,-6.648901920940478e-05,-0.007847457428487784,-0.0015873796573003668,0.0,0.0,0.0,0.0,0.0,0.0,0.0,0.0,0.0,-0.012840686022944504,-0.012529662207999191,9.809030843350135,0.0,0.0,0.0,0.0,0.0,0.0,0.0,0.0,0.0
2025/05/21 10:41:25.986839267,1747816885,981692523,mA1/imu,0.0020886699967585234,-0.9999965739513219,-0.0008202546832150144,-0.001347859606044425,0.0,0.0,0.0,0.0,0.0,0.0,0.0,0.0,0.0,-1.1569050118570776e-05,-0.0052256834065935055,-0.001463825557978852,0.0,0.0,0.0,0.0,0.0,0.0,0.0,0.0,0.0,-0.013422479639254171,-0.013852016080442613,9.811112126690627,0.0,0.0,0.0,0.0,0.0,0.0,0.0,0.0,0.0
2025/05/21 10:41:26.38277098,1747816886,33803595,mA1/imu,0.0021237151114323147,-0.9999963767128107,-0.000820003906922169,-0.00143665896035853,0.0,0.0,0.0,0.0,0.0,0.0,0.0,0.0,0.0,3.788779440105643e-05,-0.002404111657621203,-0.0013620306320913517,0.0,0.0,0.0,0.0,0.0,0.0,0.0,0.0,0.0,-0.012392322733901916,-0.01420699537849745,9.810842813842523,0.0,0.0,0.0,0.0,0.0,0.0,0.0,0.0,0.0
2025/05/21 10:41:26.84414095,1747816886,80888490,mA1/imu,0.0021564587035274477,-0.9999962826189943,-0.000818383613130621,-0.001454194730429018,0.0,0.0,0.0,0.0,0.0,0.0,0.0,0.0,0.0,8.325402927125689e-05,0.00043192886079149883,-0.0012778553230572628,0.0,0.0,0.0,0.0,0.0,0.0,0.0,0.0,0.0,-0.010131875719461777,-0.014487242035123119,9.812200431346346,0.0,0.0,0.0,0.0,0.0,0.0,0.0,0.0,0.0
2025/05/21 10:41:26.139220328,1747816886,136028543,mA1/imu,0.0021873960714770472,-0.9999962912429352,-0.0008155284123485926,-0.0014027516564799442,0.0,0.0,0.0,0.0,0.0,0.0,0.0,0.0,0.0,0.00012159306626378841,0.00310468613496429,-0.0012125447216057936,0.0,0.0,0.0,0.0,0.0,0.0,0.0,0.0,0.0,-0.006435463549406734,-0.01476183712187273,9.811868080268665,0.0,0.0,0.0,0.0,0.0,0.0,0.0,0.0,0.0
2025/05/21 10:41:26.190950706,1747816886,175631908,mA1/imu,0.0022169641362042255,-0.9999963829443564,-0.0008116354518807643,-0.0012885713469588786,0.0,0.0,0.0,0.0,0.0,0.0,0.0,0.0,0.0,0.00015323806526281367,0.005479238489678292,-0.0011650143203803152,0.0,0.0,0.0,0.0,0.0,0.0,0.0,0.0,0.0,-0.002500660090757726,-0.01391588181397986,9.808482112566892,0.0,0.0,0.0,0.0,0.0,0.0,0.0,0.0,0.0
2025/05/21 10:41:26.232567651,1747816886,230765756,mA1/imu,0.00224566073354829,-0.9999965243995789,-0.0008069405213183981,-0.0011211795696567412,0.0,0.0,0.0,0.0,0.0,0.0,0.0,0.0,0.0,0.00017958971100566086,0.007434574246207384,-0.0011334994364979275,0.0,0.0,0.0,0.0,0.0,0.0,0.0,0.0,0.0,0.0019060142675584903,-0.01403550542352403,9.809388561999393,0.0,0.0,0.0,0.0,0.0,0.0,0.0,0.0,0.0
2025/05/21 10:41:26.286039383,1747816886,284171848,mA1/imu,0.0022740153010275314,-0.9999966767371513,-0.0008017115999739227,-0.0009124842873515032,0.0,0.0,0.0,0.0,0.0,0.0,0.0,0.0,0.0,0.0001969572260687836,0.00889712135711043,-0.0011218872444500303,0.0,0.0,0.0,0.0,0.0,0.0,0.0,0.0,0.0,0.0021660660935406,-0.015025299584783559,9.811249818234568,0.0,0.0,0.0,0.0,0.0,0.0,0.0,0.0,0.0
2025/05/21 10:41:26.335408429,1747816886,329105527,mA1/imu,0.0023024962317693084,-0.9999968034113356,-0.0007962253716297897,-0.0006765377822662064,0.0,0.0,0.0,0.0,0.0,0.0,0.0,0.0,0.0,0.0001998721407773324,0.009735991885917429,-0.0011350861971336863,0.0,0.0,0.0,0.0,0.0,0.0,0.0,0.0,0.0,0.0070049950462856975,-0.015157744308137416,9.810710552859302,0.0,0.0,0.0,0.0,0.0,0.0,0.0,0.0,0.0
2025/05/21 10:41:26.412690061,1747816886,385028836,mA1/imu,0.0023315063033047916,-0.9999968776301196,-0.0007907464919590155,-0.00042840209455703195,0.0,0.0,0.0,0.0,0.0,0.0,0.0,0.0,0.0,0.00019302569266119193,0.009974942450407441,-0.0011656195805344633,0.0,0.0,0.0,0.0,0.0,0.0,0.0,0.0,0.0,0.009035950281189689,-0.015226908832112843,9.811910674613253,0.0,0.0,0.0,0.0,0.0,0.0,0.0,0.0,0.0
2025/05/21 10:41:26.429087411,1747816886,427912826,mA1/imu,0.0023608450327974057,-0.999996887945987,-0.0007855360112231019,-0.00018287221499957846,0.0,0.0,0.0,0.0,0.0,0.0,0.0,0.0,0.0,0.00017564912225436928,0.009660340792823002,-0.0011531095364298244,0.0,0.0,0.0,0.0,0.0,0.0,0.0,0.0,0.0,0.009917840086186236,-0.01640017697546423,9.811121847089012,0.0,0.0,0.0,0.0,0.0,0.0,0.0,0.0,0.0
2025/05/21 10:41:26.488453999,1747816886,481407273,mA1/imu,0.002389293280041723,-0.999996839521932,-0.0007810138280682081,4.734099401127624e-05,0.0,0.0,0.0,0.0,0.0,0.0,0.0,0.0,0.0,0.00014645995249527982,0.008836517123582544,-0.00111582695570007,0.0,0.0,0.0,0.0,0.0,0.0,0.0,0.0,0.0,0.010578570470661481,-0.015785614999677493,9.808287367627571,0.0,0.0,0.0,0.0,0.0,0.0,0.0,0.0,0.0
2025/05/21 10:41:26.531182796,1747816886,529211842,mA1/imu,0.00241680745705635,-0.99999674634525,-0.000777424188652015,0.00024890210973091984,0.0,0.0,0.0,0.0,0.0,0.0,0.0,0.0,0.0,0.0001092088923899218,0.0074868968968227565,-0.0010797834874959255,0.0,0.0,0.0,0.0,0.0,0.0,0.0,0.0,0.0,0.01317412569957798,-0.015766353700335207,9.80897166078514,0.0,0.0,0.0,0.0,0.0,0.0,0.0,0.0,0.0
2025/05/21 10:41:26.581614835,1747816886,580332087,mA1/imu,0.0024433950243140214,-0.99999663036559,-0.0007749388699273638,0.0004105459394842277,0.0,0.0,0.0,0.0,0.0,0.0,0.0,0.0,0.0,6.710556015229947e-05,0.0057370977369893906,-0.0010442140818464106,0.0,0.0,0.0,0.0,0.0,0.0,0.0,0.0,0.0,0.013352542859867183,-0.016179215039051842,9.810078299074023,0.0,0.0,0.0,0.0,0.0,0.0,0.0,0.0,0.0
2025/05/21 10:41:26.645399394,1747816886,635915163,mA1/imu,0.0024690456740359386,-0.9999965156087329,-0.0007736808361981026,0.0005234518280885582,0.0,0.0,0.0,0.0,0.0,0.0,0.0,0.0,0.0,2.144631073240523e-05,0.0036736168755023765,-0.0010081063031613766,0.0,0.0,0.0,0.0,0.0,0.0,0.0,0.0,0.0,0.01425239511018976,-0.016193541859623923,9.809483016947413,0.0,0.0,0.0,0.0,0.0,0.0,0.0,0.0,0.0
2025/05/21 10:41:26.683887912,1747816886,680099371,mA1/imu,0.002493737707109437,-0.9999964218612961,-0.0007737100762928263,0.0005821594030760462,0.0,0.0,0.0,0.0,0.0,0.0,0.0,0.0,0.0,-2.5207626962981583e-05,0.0014526953448783229,-0.0009711694943029871,0.0,0.0,0.0,0.0,0.0,0.0,0.0,0.0,0.0,0.013728737841187033,-0.0162824520187166,9.810599332401008,0.0,0.0,0.0,0.0,0.0,0.0,0.0,0.0,0.0
2025/05/21 10:41:26.736261331,1747816886,734114741,mA1/imu,0.002516972692013227,-0.9999963608383787,-0.000774889179170961,0.0005854103062873228,0.0,0.0,0.0,0.0,0.0,0.0,0.0,0.0,0.0,-4.4822493798749576e-05,-0.0006594133097672352,-0.0008346683393136127,0.0,0.0,0.0,0.0,0.0,0.0,0.0,0.0,0.0,-0.0071758235410321735,-0.002985493983107065,9.81124751655554,0.0,0.0,0.0,0.0,0.0,0.0,0.0,0.0,0.0
2025/05/21 10:41:26.782124249,1747816886,780266722,mA1/imu,0.0025295581796828492,-0.9999963514382786,-0.0007751499960513829,0.0005455162969372671,0.0,0.0,0.0,0.0,0.0,0.0,0.0,0.0,0.0,5.669960864165811e-06,-0.0021871184767683995,-0.00025940378035444036,0.0,0.0,0.0,0.0,0.0,0.0,0.0,0.0,0.0,-0.00969410151010448,0.00021099261731606124,9.803970932483125,0.0,0.0,0.0,0.0,0.0,0.0,0.0,0.0,0.0
2025/05/21 10:41:26.838549527,1747816886,837999077,mA1/imu,0.0025314503539461404,-0.9999963879554917,-0.0007746551474132041,0.0004644830219876168,0.0,0.0,0.0,0.0,0.0,0.0,0.0,0.0,0.0,1.9133024878826844e-05,-0.00403888602528024,-5.50256360482843e-05,0.0,0.0,0.0,0.0,0.0,0.0,0.0,0.0,0.0,0.013354730819028408,-0.017103171530078523,9.80841181312287,0.0,0.0,0.0,0.0,0.0,0.0,0.0,0.0,0.0
2025/05/21 10:41:26.878877519,1747816886,878502635,mA1/imu,0.002532588450499863,-0.9999964363893562,-0.000775100425551299,0.0003352963751226032,0.0,0.0,0.0,0.0,0.0,0.0,0.0,0.0,0.0,-2.1965251996371057e-05,-0.005877283268487697,-4.5826076002330085e-05,0.0,0.0,0.0,0.0,0.0,0.0,0.0,0.0,0.0,0.012425694691439216,-0.017060950842090826,9.809740615780319,0.0,0.0,0.0,0.0,0.0,0.0,0.0,0.0,0.0
2025/05/21 10:41:26.940296593,1747816886,936430270,mA1/imu,0.0025334585653072903,-0.9999964754258737,-0.0007766930601373333,0.00016574503948934538,0.0,0.0,0.0,0.0,0.0,0.0,0.0,0.0,0.0,-6.401115801793773e-05,-0.007329370565551249,-3.6183166409594847e-05,0.0,0.0,0.0,0.0,0.0,0.0,0.0,0.0,0.0,0.009427737040786479,-0.016754824039300717,9.809475886843167,0.0,0.0,0.0,0.0,0.0,0.0,0.0,0.0,0.0
2025/05/21 10:41:26.983139568,1747816886,978699975,mA1/imu,0.002534055715891802,-0.9999964849720362,-0.000779400996629737,-3.3753335914419483e-05,0.0,0.0,0.0,0.0,0.0,0.0,0.0,0.0,0.0,-0.00010408602411433338,-0.00835006670661448,-2.596431601104862e-05,0.0,0.0,0.0,0.0,0.0,0.0,0.0,0.0,0.0,0.008573844618244472,-0.016707141022313216,9.81082699738594,0.0,0.0,0.0,0.0,0.0,0.0,0.0,0.0,0.0
2025/05/21 10:41:27.38647427,1747816887,35475475,mA1/imu,0.002534373241793008,-0.9999964503444194,-0.0007831006334638108,-0.00025100643427635925,0.0,0.0,0.0,0.0,0.0,0.0,0.0,0.0,0.0,-0.00013907281695952077,-0.00884789430673613,-1.5048376250012482e-05,0.0,0.0,0.0,0.0,0.0,0.0,0.0,0.0,0.0,0.005246222853451424,-0.01658304880691559,9.810710740712999,0.0,0.0,0.0,0.0,0.0,0.0,0.0,0.0,0.0
2025/05/21 10:41:27.86837963,1747816887,85901736,mA1/imu,0.0025344040625319194,-0.9999963663006515,-0.0007876137774795281,-0.00047312374570637896,0.0,0.0,0.0,0.0,0.0,0.0,0.0,0.0,0.0,-0.00016825764432508813,-0.008839025631831374,-3.4591058802826894e-06,0.0,0.0,0.0,0.0,0.0,0.0,0.0,0.0,0.0,0.004525034040795064,-0.01600668435228722,9.808220998393503,0.0,0.0,0.0,0.0,0.0,0.0,0.0,0.0,0.0
2025/05/21 10:41:27.129776191,1747816887,128636195,mA1/imu,0.0025335078766586688,-0.9999962411526149,-0.0007926660737922274,-0.0006860750511885096,0.0,0.0,0.0,0.0,0.0,0.0,0.0,0.0,0.0,-0.00018047604358067515,-0.00813684678186924,0.0001357561430995857,0.0,0.0,0.0,0.0,0.0,0.0,0.0,0.0,0.0,-0.02232065802735677,0.0013262904609535366,9.80591736295893,0.0,0.0,0.0,0.0,0.0,0.0,0.0,0.0,0.0
2025/05/21 10:41:27.180481678,1747816887,179367585,mA1/imu,0.002523118253135635,-0.9999961235776547,-0.0007966589106725297,-0.0008672015478422939,0.0,0.0,0.0,0.0,0.0,0.0,0.0,0.0,0.0,-0.00012993341819038335,-0.006736794974818738,0.0004721484295585221,0.0,0.0,0.0,0.0,0.0,0.0,0.0,0.0,0.0,0.002268930768080971,-0.01764583197725199,9.81088797601598,0.0,0.0,0.0,0.0,0.0,0.0,0.0,0.0,0.0
2025/05/21 10:41:27.232041788,1747816887,231107593,mA1/imu,0.0025111882340902864,-0.9999960111426531,-0.0008003708338513816,-0.0010154008883747176,0.0,0.0,0.0,0.0,0.0,0.0,0.0,0.0,0.0,-0.00013699481158216143,-0.005345826590895245,0.00047287461503419,0.0,0.0,0.0,0.0,0.0,0.0,0.0,0.0,0.0,0.0007051367521350368,-0.0170340649965942,9.810735845809049,0.0,0.0,0.0,0.0,0.0,0.0,0.0,0.0,0.0
2025/05/21 10:41:27.304063439,1747816887,283158946,mA1/imu,0.0024992862654233065,-0.9999959211439141,-0.0008041567852930924,-0.0011245423792858875,0.0,0.0,0.0,0.0,0.0,0.0,0.0,0.0,0.0,-0.00014203250192150915,-0.003681660789625184,0.0004725470643724501,0.0,0.0,0.0,0.0,0.0,0.0,0.0,0.0,0.0,0.0008645032692516201,-0.016736788937569393,9.812069705389298,0.0,0.0,0.0,0.0,0.0,0.0,0.0,0.0,0.0
2025/05/21 10:41:27.336070688,1747816887,333394030,mA1/imu,0.0024874406134704342,-0.9999958728255742,-0.0008079084745031719,-0.0011892244990293983,0.0,0.0,0.0,0.0,0.0,0.0,0.0,0.0,0.0,-0.00014153212295444083,-0.0018465673971980738,0.0004716596547863063,0.0,0.0,0.0,0.0,0.0,0.0,0.0,0.0,0.0,0.0011041421917101259,-0.01679250635820112,9.811867898312059,0.0,0.0,0.0,0.0,0.0,0.0,0.0,0.0,0.0
2025/05/21 10:41:27.385385337,1747816887,385001321,mA1/imu,0.0024756481209674544,-0.9999958776908168,-0.0008114688484096236,-0.0012071810396038559,0.0,0.0,0.0,0.0,0.0,0.0,0.0,0.0,0.0,-0.00013627269379685287,3.232466360621657e-05,0.0004708544737975607,0.0,0.0,0.0,0.0,0.0,0.0,0.0,0.0,0.0,0.001839418635123203,-0.016182953320731525,9.809256104635685,0.0,0.0,0.0,0.0,0.0,0.0,0.0,0.0,0.0
2025/05/21 10:41:27.428443460,1747816887,427220942,mA1/imu,0.002463900391830544,-0.9999959379493433,-0.0008146648474297324,-0.001178813326539086,0.0,0.0,0.0,0.0,0.0,0.0,0.0,0.0,0.0,-0.00012417337268990272,0.0018547585977420574,0.00047122065863286125,0.0,0.0,0.0,0.0,0.0,0.0,0.0,0.0,0.0,0.0031007253204926,-0.016061983201726287,9.810188846564305,0.0,0.0,0.0,0.0,0.0,0.0,0.0,0.0,0.0
2025/05/21 10:41:27.481635085,1747816887,481077914,mA1/imu,0.002452157544287828,-0.9999960469594177,-0.0008173129333035284,-0.001106791979158068,0.0,0.0,0.0,0.0,0.0,0.0,0.0,0.0,0.0,-0.00010517407270868434,0.003539208018629478,0.0004729708500914775,0.0,0.0,0.0,0.0,0.0,0.0,0.0,0.0,0.0,0.003728382808743144,-0.01653172117252185,9.811334460445725,0.0,0.0,0.0,0.0,0.0,0.0,0.0,0.0,0.0
2025/05/21 10:41:27.533942132,1747816887,533548365,mA1/imu,0.002440393066259976,-0.9999961905000949,-0.0008192675184533638,-0.0009961263541154836,0.0,0.0,0.0,0.0,0.0,0.0,0.0,0.0,0.0,-7.855190721188981e-05,0.004979395452411487,0.0004752937833704594,0.0,0.0,0.0,0.0,0.0,0.0,0.0,0.0,0.0,0.005825561435658603,-0.01647247458365524,9.810747006038094,0.0,0.0,0.0,0.0,0.0,0.0,0.0,0.0,0.0
2025/05/21 10:41:27.584439815,1747816887,583975619,mA1/imu,0.002428595342911897,-0.9999963498568033,-0.000820437523480848,-0.0008538618156578642,0.0,0.0,0.0,0.0,0.0,0.0,0.0,0.0,0.0,-4.800870296348372e-05,0.006117875777960981,0.00047759118435593837,0.0,0.0,0.0,0.0,0.0,0.0,0.0,0.0,0.0,0.006495340051958528,-0.01652288948093933,9.811818923252527,0.0,0.0,0.0,0.0,0.0,0.0,0.0,0.0,0.0
2025/05/21 10:41:27.626775289,1747816887,626304702,mA1/imu,0.002416761937276569,-0.9999965055058737,-0.0008207664502318454,-0.0006888978253750027,0.0,0.0,0.0,0.0,0.0,0.0,0.0,0.0,0.0,-1.4810799757685752e-05,0.006864355875965645,0.00047951128871226754,0.0,0.0,0.0,0.0,0.0,0.0,0.0,0.0,0.0,0.009171033556673787,-0.01645874402918086,9.811186667897454,0.0,0.0,0.0,0.0,0.0,0.0,0.0,0.0,0.0
2025/05/21 10:41:27.678317910,1747816887,678025932,mA1/imu,0.002404895906120011,-0.9999966411597492,-0.000820243428400025,-0.0005112197362267815,0.0,0.0,0.0,0.0,0.0,0.0,0.0,0.0,0.0,1.824561751815288e-05,0.007211282024192926,0.00048094297018055513,0.0,0.0,0.0,0.0,0.0,0.0,0.0,0.0,0.0,0.009841130646306444,-0.015907744774876796,9.808349995945063,0.0,0.0,0.0,0.0,0.0,0.0,0.0,0.0,0.0
2025/05/21 10:41:27.732563658,1747816887,731394316,mA1/imu,0.0023930048196323227,-0.9999967464860369,-0.0008188975656499615,-0.0003315901860869058,0.0,0.0,0.0,0.0,0.0,0.0,0.0,0.0,0.0,4.9574381800836664e-05,0.007110118229338315,0.0004817069428204194,0.0,0.0,0.0,0.0,0.0,0.0,0.0,0.0,0.0,0.012485919815588897,-0.015897183932666467,9.808983118953988,0.0,0.0,0.0,0.0,0.0,0.0,0.0,0.0,0.0
2025/05/21 10:41:27.783397600,1747816887,782779313,mA1/imu,0.0023810990505176276,-0.9999968187099343,-0.0008167976703076505,-0.0001605580525552022,0.0,0.0,0.0,0.0,0.0,0.0,0.0,0.0,0.0,7.854315642352624e-05,0.0066074664430670095,0.00048176682809149155,0.0,0.0,0.0,0.0,0.0,0.0,0.0,0.0,0.0,0.012946169576100307,-0.016383477754696504,9.810011196553498,0.0,0.0,0.0,0.0,0.0,0.0,0.0,0.0,0.0
2025/05/21 10:41:27.834634859,1747816887,834197357,mA1/imu,0.002369191744969815,-0.9999968620840505,-0.0008140549556893015,-8.188860946165329e-06,0.0,0.0,0.0,0.0,0.0,0.0,0.0,0.0,0.0,0.00010454269260897368,0.005705500878686252,0.0004808827404645216,0.0,0.0,0.0,0.0,0.0,0.0,0.0,0.0,0.0,0.014969850906271115,-0.0163993739603061,9.809341847358178,0.0,0.0,0.0,0.0,0.0,0.0,0.0,0.0,0.0
2025/05/21 10:41:27.885285749,1747816887,884979304,mA1/imu,0.0023572984150006834,-0.9999968860311811,-0.0008108160925908238,0.00011683059527363836,0.0,0.0,0.0,0.0,0.0,0.0,0.0,0.0,0.0,0.00012532713097215475,0.004491911312654699,0.0004790453826243062,0.0,0.0,0.0,0.0,0.0,0.0,0.0,0.0,0.0,0.015117597430950973,-0.01647044858886169,9.81042056870158,0.0,0.0,0.0,0.0,0.0,0.0,0.0,0.0,0.0
2025/05/21 10:41:27.927857944,1747816887,926964422,mA1/imu,0.0023454393016542085,-0.9999969021028119,-0.0008072507432047117,0.00020747409282968692,0.0,0.0,0.0,0.0,0.0,0.0,0.0,0.0,0.0,0.0001393130117731186,0.003021977952634637,0.00047602052611891516,0.0,0.0,0.0,0.0,0.0,0.0,0.0,0.0,0.0,0.015980098398591783,-0.016495991614615273,9.809918013391842,0.0,0.0,0.0,0.0,0.0,0.0,0.0,0.0,0.0
2025/05/21 10:41:27.977156181,1747816887,976763272,mA1/imu,0.0023336413012486484,-0.9999969206694036,-0.0008035458597662702,0.0002590058662313569,0.0,0.0,0.0,0.0,0.0,0.0,0.0,0.0,0.0,0.00014581468725436336,0.0014064186360957076,0.0004717294661998057,0.0,0.0,0.0,0.0,0.0,0.0,0.0,0.0,0.0,0.015728535585505604,-0.01597560913584843,9.80721724908341,0.0,0.0,0.0,0.0,0.0,0.0,0.0,0.0,0.0
2025/05/21 10:41:28.28840879,1747816888,27729073,mA1/imu,0.002325033057693943,-0.9999969414507166,-0.0008005328381286744,0.0002654386325016719,0.0,0.0,0.0,0.0,0.0,0.0,0.0,0.0,0.0,7.164594744793762e-05,-0.0006332146778570592,0.00014998860803471913,0.0,0.0,0.0,0.0,0.0,0.0,0.0,0.0,0.0,0.035768239013604715,-0.03008159683032501,9.805076004514245,0.0,0.0,0.0,0.0,0.0,0.0,0.0,0.0,0.0
2025/05/21 10:41:28.78262616,1747816888,77861160,mA1/imu,0.002329261495924949,-0.9999969431361723,-0.0008006938383700293,0.00021713721941556664,0.0,0.0,0.0,0.0,0.0,0.0,0.0,0.0,0.0,-3.884928486535473e-05,-0.002750465169628318,-0.00036991484525553884,0.0,0.0,0.0,0.0,0.0,0.0,0.0,0.0,0.0,0.029945389944628087,-0.028099510834660023,9.810112518764221,0.0,0.0,0.0,0.0,0.0,0.0,0.0,0.0,0.0
2025/05/21 10:41:28.129575521,1747816888,129214299,mA1/imu,0.002346385205851955,-0.9999969167197676,-0.000804083029291455,0.00012032416999859243,0.0,0.0,0.0,0.0,0.0,0.0,0.0,0.0,0.0,-0.0001638163734540743,-0.0045575288052992985,-0.0008853176243772357,0.0,0.0,0.0,0.0,0.0,0.0,0.0,0.0,0.0,0.024894260794130724,-0.02714866155350392,9.80993214185176,0.0,0.0,0.0,0.0,0.0,0.0,0.0,0.0,0.0
2025/05/21 10:41:28.180443497,1747816888,180257271,mA1/imu,0.002375864790959793,-0.9999968463671339,-0.0008138060547888225,-1.555592818454944e-05,0.0,0.0,0.0,0.0,0.0,0.0,0.0,0.0,0.0,-0.0005925607203614965,-0.00596115058420223,-0.0013815086930459104,0.0,0.0,0.0,0.0,0.0,0.0,0.0,0.0,0.0,0.0223470218414952,-0.048971148876457635,9.811764205119657,0.0,0.0,0.0,0.0,0.0,0.0,0.0,0.0,0.0
2025/05/21 10:41:28.233265674,1747816888,231869864,mA1/imu,0.0024159498498693022,-0.9999967263819519,-0.0008241907822698761,-0.00017641217916021838,0.0,0.0,0.0,0.0,0.0,0.0,0.0,0.0,0.0,-0.0010943123208750107,-0.0065822534410458254,-0.0016896531960282721,0.0,0.0,0.0,0.0,0.0,0.0,0.0,0.0,0.0,-0.0022532343938575826,-0.06912107480894257,9.810461717713949,0.0,0.0,0.0,0.0,0.0,0.0,0.0,0.0,0.0
2025/05/21 10:41:28.282344285,1747816888,281925127,mA1/imu,0.0024571594239321095,-0.9999965836064082,-0.0008244151488970546,-0.00033982751404520604,0.0,0.0,0.0,0.0,0.0,0.0,0.0,0.0,0.0,-5.697796131733514e-05,-0.006444592749327923,-0.0016294878773419755,0.0,0.0,0.0,0.0,0.0,0.0,0.0,0.0,0.0,-0.0033192502870089766,7.280210402925424e-05,9.808603287757105,0.0,0.0,0.0,0.0,0.0,0.0,0.0,0.0,0.0
2025/05/21 10:41:28.333314527,1747816888,332820471,mA1/imu,0.0024968928464677354,-0.9999964174673641,-0.0008285779889208082,-0.0004940010795537645,0.0,0.0,0.0,0.0,0.0,0.0,0.0,0.0,0.0,-0.00027991963968100456,-0.005928211607177548,-0.0015711259860731494,0.0,0.0,0.0,0.0,0.0,0.0,0.0,0.0,0.0,-0.00526019872113536,0.6098791379746425,9.810959057250738,0.0,0.0,0.0,0.0,0.0,0.0,0.0,0.0,0.0
2025/05/21 10:41:28.384925596,1747816888,383422818,mA1/imu,0.0025351560403340944,-0.9999962446794947,-0.0008283361129991636,-0.0006304522531156922,0.0,0.0,0.0,0.0,0.0,0.0,0.0,0.0,0.0,0.0014033959728899387,-0.005106163891074154,-0.0015115593942591958,0.0,0.0,0.0,0.0,0.0,0.0,0.0,0.0,0.0,-0.005036196569560513,0.0880688182537596,9.81224358849973,0.0,0.0,0.0,0.0,0.0,0.0,0.0,0.0,0.0
2025/05/21 10:41:28.435291652,1747816888,434734743,mA1/imu,0.002571965104543592,-0.9999960679988746,-0.0008359496238167054,-0.000741734802781429,0.0,0.0,0.0,0.0,0.0,0.0,0.0,0.0,0.0,0.0017127989784825168,-0.0040031538170304986,-0.0014522751274152295,0.0,0.0,0.0,0.0,0.0,0.0,0.0,0.0,0.0,-0.0061456844392944136,-0.5231536472215542,9.810742985282111,0.0,0.0,0.0,0.0,0.0,0.0,0.0,0.0,0.0
2025/05/21 10:41:28.484963350,1747816888,484599975,mA1/imu,0.002607344882632059,-0.9999959068504877,-0.0008434557835846042,-0.0008225674895583953,0.0,0.0,0.0,0.0,0.0,0.0,0.0,0.0,0.0,0.00033377300868433476,-0.002720924284452627,-0.0013943748156572118,0.0,0.0,0.0,0.0,0.0,0.0,0.0,0.0,0.0,-0.004623502833306609,-0.6262609453983926,9.810660857036005,0.0,0.0,0.0,0.0,0.0,0.0,0.0,0.0,0.0
2025/05/21 10:41:28.529581479,1747816888,526069321,mA1/imu,0.002641335171697622,-0.9999957818124238,-0.0008387562937850654,-0.000869594014286158,0.0,0.0,0.0,0.0,0.0,0.0,0.0,0.0,0.0,-0.00033067886400743753,-0.001312395481494824,-0.0013399092057707028,0.0,0.0,0.0,0.0,0.0,0.0,0.0,0.0,0.0,-0.004383408969178576,-0.048333280247471085,9.8118003914552,0.0,0.0,0.0,0.0,0.0,0.0,0.0,0.0,0.0
2025/05/21 10:41:28.579717595,1747816888,578075880,mA1/imu,0.002674057634163506,-0.9999956934733928,-0.0008280635797397975,-0.000881340538861537,0.0,0.0,0.0,0.0,0.0,0.0,0.0,0.0,0.0,0.00023576637874086592,0.00010817477772550547,-0.0012886506552996307,0.0,0.0,0.0,0.0,0.0,0.0,0.0,0.0,0.0,-0.004574926931585569,-0.011190238120341315,9.809900831174568,0.0,0.0,0.0,0.0,0.0,0.0,0.0,0.0,0.0
2025/05/21 10:41:28.629596696,1747816888,629263557,mA1/imu,0.0027055341890103728,-0.9999956345042164,-0.0008213512434505442,-0.0008581604724711097,0.0,0.0,0.0,0.0,0.0,0.0,0.0,0.0,0.0,0.0002997755695787864,0.0014699660493757898,-0.0012381650373739959,0.0,0.0,0.0,0.0,0.0,0.0,0.0,0.0,0.0,-0.002840327099299881,0.5148100488831211,9.81131395650845,0.0,0.0,0.0,0.0,0.0,0.0,0.0,0.0,0.0
2025/05/21 10:41:28.679496285,1747816888,679078223,mA1/imu,0.0027357959035775666,-0.9999956055316962,-0.0008125836454841864,-0.0008025246972786387,0.0,0.0,0.0,0.0,0.0,0.0,0.0,0.0,0.0,0.001855868024705399,0.0027015886289175604,-0.0011900679606500326,0.0,0.0,0.0,0.0,0.0,0.0,0.0,0.0,0.0,-0.002262905440185349,-0.5401640800643854,9.810671417345603,0.0,0.0,0.0,0.0,0.0,0.0,0.0,0.0,0.0
2025/05/21 10:41:28.733736548,1747816888,731769600,mA1/imu,0.0027649134834556327,-0.9999955932569022,-0.0008073569351299525,-0.0007189540904694402,0.0,0.0,0.0,0.0,0.0,0.0,0.0,0.0,0.0,0.0013134419452406443,0.003724439348025438,-0.0011442390392020182,0.0,0.0,0.0,0.0,0.0,0.0,0.0,0.0,0.0,0.00041193165202480127,-0.5817336034181482,9.809822561460697,0.0,0.0,0.0,0.0,0.0,0.0,0.0,0.0,0.0
2025/05/21 10:41:28.784694889,1747816888,784246338,mA1/imu,0.0027929471356981776,-0.9999955915862287,-0.0007997277977624433,-0.0006137506458243893,0.0,0.0,0.0,0.0,0.0,0.0,0.0,0.0,0.0,0.0006299787270896129,0.004502050718469182,-0.0011017527779236468,0.0,0.0,0.0,0.0,0.0,0.0,0.0,0.0,0.0,9.070553672915413e-05,-0.6272024855401399,9.81063193665944,0.0,0.0,0.0,0.0,0.0,0.0,0.0,0.0,0.0
2025/05/21 10:41:28.836330496,1747816888,835271622,mA1/imu,0.0028199734407131968,-0.9999955932209802,-0.0007861416677674918,-0.0004932237745629277,0.0,0.0,0.0,0.0,0.0,0.0,0.0,0.0,0.0,0.00015750701236369414,0.004995852653305031,-0.001061436146380785,0.0,0.0,0.0,0.0,0.0,0.0,0.0,0.0,0.0,0.0031689658164242357,-0.03419616033394625,9.810595609987175,0.0,0.0,0.0,0.0,0.0,0.0,0.0,0.0,0.0
2025/05/21 10:41:28.878707722,1747816888,878579482,mA1/imu,0.002846032654744128,-0.9999955857919428,-0.0007714986562949444,-0.00036508160813937654,0.0,0.0,0.0,0.0,0.0,0.0,0.0,0.0,0.0,0.00027209898842386627,0.005185191567154028,-0.0010231151807099412,0.0,0.0,0.0,0.0,0.0,0.0,0.0,0.0,0.0,0.0036134401181808196,0.07204086113672256,9.808463075169575,0.0,0.0,0.0,0.0,0.0,0.0,0.0,0.0,0.0
2025/05/21 10:41:28.927948984,1747816888,927585201,mA1/imu,0.0028711799435492597,-0.9999955619519946,-0.0007591199724058898,-0.0002369365184451838,0.0,0.0,0.0,0.0,0.0,0.0,0.0,0.0,0.0,0.0009660626942569264,0.005053717368037515,-0.000987831532554818,0.0,0.0,0.0,0.0,0.0,0.0,0.0,0.0,0.0,0.005718819569242898,0.11695832559113309,9.808611804973255,0.0,0.0,0.0,0.0,0.0,0.0,0.0,0.0,0.0
2025/05/21 10:41:28.980965692,1747816888,980661032,mA1/imu,0.00289543887729833,-0.9999955173698287,-0.0007536962231470306,-0.00011668744408965713,0.0,0.0,0.0,0.0,0.0,0.0,0.0,0.0,0.0,0.0012744730607441382,0.0046132539008637286,-0.0009533074459834222,0.0,0.0,0.0,0.0,0.0,0.0,0.0,0.0,0.0,0.005388880119061762,-0.32878092771997525,9.809159965389084,0.0,0.0,0.0,0.0,0.0,0.0,0.0,0.0,0.0
2025/05/21 10:41:29.35399872,1747816889,32568690,mA1/imu,0.0029188302752778507,-0.9999954590146154,-0.0007498331644179415,-1.1410442818398151e-05,0.0,0.0,0.0,0.0,0.0,0.0,0.0,0.0,0.0,0.0010182406023374433,0.003904046748929439,-0.0009192519847280129,0.0,0.0,0.0,0.0,0.0,0.0,0.0,0.0,0.0,0.007005890800331866,-0.22699180604180347,9.808846393526327,0.0,0.0,0.0,0.0,0.0,0.0,0.0,0.0,0.0
2025/05/21 10:41:29.86956771,1747816889,85306679,mA1/imu,0.0029413874162170445,-0.9999953885989978,-0.0007521149803790858,7.310173204029885e-05,0.0,0.0,0.0,0.0,0.0,0.0,0.0,0.0,0.0,-0.0008046810845482913,0.003005384011360262,-0.0008871653530602442,0.0,0.0,0.0,0.0,0.0,0.0,0.0,0.0,0.0,0.007078217138078745,-0.17284609394976141,9.809680876672804,0.0,0.0,0.0,0.0,0.0,0.0,0.0,0.0,0.0
2025/05/21 10:41:29.127187992,1747816889,126230088,mA1/imu,0.0029597027422709663,-0.9999953330938626,-0.0007450901633941392,0.00013707961414724233,0.0,0.0,0.0,0.0,0.0,0.0,0.0,0.0,0.0,-0.0009057747811561002,0.0023231861436100497,-0.0005703533736447378,0.0,0.0,0.0,0.0,0.0,0.0,0.0,0.0,0.0,0.008330137374817565,-0.09071987194830494,9.809182323567642,0.0,0.0,0.0,0.0,0.0,0.0,0.0,0.0,0.0
2025/05/21 10:41:29.178040968,1747816889,177202014,mA1/imu,0.0029731666129000907,-0.9999952948163084,-0.0007344133672757518,0.00017681216534225046,0.0,0.0,0.0,0.0,0.0,0.0,0.0,0.0,0.0,0.00011587646361836336,0.0010967703042096555,-0.0005287054018816572,0.0,0.0,0.0,0.0,0.0,0.0,0.0,0.0,0.0,0.009302649837032613,-0.012021341981313816,9.807001569725147,0.0,0.0,0.0,0.0,0.0,0.0,0.0,0.0,0.0
2025/05/21 10:41:29.237662916,1747816889,231688872,mA1/imu,0.002986074838989984,-0.9999952541534612,-0.0007353498853021865,0.00018517061596116667,0.0,0.0,0.0,0.0,0.0,0.0,0.0,0.0,0.0,0.000296981617426485,-0.0001735317967778422,-0.0005073774498906568,0.0,0.0,0.0,0.0,0.0,0.0,0.0,0.0,0.0,0.00912834367066051,0.007041436092389766,9.807765765564408,0.0,0.0,0.0,0.0,0.0,0.0,0.0,0.0,0.0
2025/05/21 10:41:29.281514807,1747816889,281211588,mA1/imu,0.0029984101886932485,-0.9999952213192463,-0.0007352691009291525,0.00016203197507062,0.0,0.0,0.0,0.0,0.0,0.0,0.0,0.0,0.0,0.0006881488033959808,-0.001423605905945809,-0.00048513054427752297,0.0,0.0,0.0,0.0,0.0,0.0,0.0,0.0,0.0,0.009184934874905279,0.038128547958944214,9.809457365611879,0.0,0.0,0.0,0.0,0.0,0.0,0.0,0.0,0.0
2025/05/21 10:41:29.332666584,1747816889,332227898,mA1/imu,0.0030101506316016708,-0.9999951905257457,-0.0007388885963840903,0.00010937181787481007,0.0,0.0,0.0,0.0,0.0,0.0,0.0,0.0,0.0,0.0006840381039573217,-0.0025448449091977207,-0.00046215742374185236,0.0,0.0,0.0,0.0,0.0,0.0,0.0,0.0,0.0,0.007142609745862798,0.04732205552081608,9.810451452862246,0.0,0.0,0.0,0.0,0.0,0.0,0.0,0.0,0.0
2025/05/21 10:41:29.385946048,1747816889,382267573,mA1/imu,0.003021312037171086,-0.9999951504746819,-0.0007547974755973766,3.132831261380866e-05,0.0,0.0,0.0,0.0,0.0,0.0,0.0,0.0,0.0,0.00028201028371899303,-0.003501472216561777,-0.00044007782424656297,0.0,0.0,0.0,0.0,0.0,0.0,0.0,0.0,0.0,0.007170784310823938,-0.6064211573181072,9.808922710729878,0.0,0.0,0.0,0.0,0.0,0.0,0.0,0.0,0.0
2025/05/21 10:41:29.434884766,1747816889,434626867,mA1/imu,0.003031921835020589,-0.9999951040515661,-0.000771249589789631,-6.705933125887269e-05,0.0,0.0,0.0,0.0,0.0,0.0,0.0,0.0,0.0,-0.0019841238981536608,-0.004206194356003308,-0.000418901541917999,0.0,0.0,0.0,0.0,0.0,0.0,0.0,0.0,0.0,0.006082637583890444,-0.12964406725048871,9.810391042663962,0.0,0.0,0.0,0.0,0.0,0.0,0.0,0.0,0.0
2025/05/21 10:41:29.484724992,1747816889,484451350,mA1/imu,0.0030419983562795408,-0.9999950695866596,-0.0007581061493029474,-0.0001797872034689108,0.0,0.0,0.0,0.0,0.0,0.0,0.0,0.0,0.0,-0.0011252580462412585,-0.00462990345434534,-0.000399717205578075,0.0,0.0,0.0,0.0,0.0,0.0,0.0,0.0,0.0,0.0033986823889618763,0.5680592688195946,9.809949932727958,0.0,0.0,0.0,0.0,0.0,0.0,0.0,0.0,0.0
2025/05/21 10:41:29.535875078,1747816889,535517860,mA1/imu,0.0030515734004844127,-0.9999949987504237,-0.0007751506795938041,-0.00029919115182325593,0.0,0.0,0.0,0.0,0.0,0.0,0.0,0.0,0.0,0.0007905961867184138,-0.004830943423062361,-0.0003783753685218778,0.0,0.0,0.0,0.0,0.0,0.0,0.0,0.0,0.0,0.002182401573134015,0.0727421212086112,9.81006369691025,0.0,0.0,0.0,0.0,0.0,0.0,0.0,0.0,0.0
2025/05/21 10:41:29.576392088,1747816889,576096620,mA1/imu,0.003060627487346847,-0.9999949214460765,-0.0007838026360148192,-0.00041868229800824837,0.0,0.0,0.0,0.0,0.0,0.0,0.0,0.0,0.0,0.000760516336215855,-0.004717237761372762,-0.00035705032652532303,0.0,0.0,0.0,0.0,0.0,0.0,0.0,0.0,0.0,0.0025291617007202035,0.06732518835286695,9.81169478715481,0.0,0.0,0.0,0.0,0.0,0.0,0.0,0.0,0.0
2025/05/21 10:41:29.628011830,1747816889,626187823,mA1/imu,0.0030691764859034215,-0.9999948239973505,-0.000806193883479177,-0.0005312114726737632,0.0,0.0,0.0,0.0,0.0,0.0,0.0,0.0,0.0,0.0011524697007264694,-0.004344722817382005,-0.00033698822951047907,0.0,0.0,0.0,0.0,0.0,0.0,0.0,0.0,0.0,0.0007563810683465302,-0.531978815035126,9.810207430858357,0.0,0.0,0.0,0.0,0.0,0.0,0.0,0.0,0.0
2025/05/21 10:41:29.678411746,1747816889,676276350,mA1/imu,0.003077258334485177,-0.999994723537797,-0.0008282290174167826,-0.0006304081237818898,0.0,0.0,0.0,0.0,0.0,0.0,0.0,0.0,0.0,-0.001098658450336446,-0.0037097511524733853,-0.0003183405582249003,0.0,0.0,0.0,0.0,0.0,0.0,0.0,0.0,0.0,0.00135498996054172,-0.6899693097942251,9.811260529044358,0.0,0.0,0.0,0.0,0.0,0.0,0.0,0.0,0.0
2025/05/21 10:41:29.730981982,1747816889,728503037,mA1/imu,0.003084858533221643,-0.999994646276052,-0.0008279929706121082,-0.0007109815076900682,0.0,0.0,0.0,0.0,0.0,0.0,0.0,0.0,0.0,-0.002232670381739092,-0.0028623178960140564,-0.00029945723462557856,0.0,0.0,0.0,0.0,0.0,0.0,0.0,0.0,0.0,0.0012868681338604592,0.484045528408392,9.812509849012505,0.0,0.0,0.0,0.0,0.0,0.0,0.0,0.0,0.0
2025/05/21 10:41:29.781406700,1747816889,779392316,mA1/imu,0.003092005300088796,-0.9999945791997883,-0.0008306444919958524,-0.0007688328754807596,0.0,0.0,0.0,0.0,0.0,0.0,0.0,0.0,0.0,-0.000649455745126768,-0.0019078906810871571,-0.0002803759118263574,0.0,0.0,0.0,0.0,0.0,0.0,0.0,0.0,0.0,0.00035378239034835127,0.5927878511830025,9.811418141718088,0.0,0.0,0.0,0.0,0.0,0.0,0.0,0.0,0.0
2025/05/21 10:41:29.830651935,1747816889,830342703,mA1/imu,0.0030987184880315786,-0.9999945242651573,-0.0008414084582521595,-0.0008008840366440119,0.0,0.0,0.0,0.0,0.0,0.0,0.0,0.0,0.0,-0.0010300306712763938,-0.0008513508153367077,-0.00026191587479601903,0.0,0.0,0.0,0.0,0.0,0.0,0.0,0.0,0.0,0.0009896945392369877,0.5601038298822857,9.811120001635759,0.0,0.0,0.0,0.0,0.0,0.0,0.0,0.0,0.0
2025/05/21 10:41:29.882165713,1747816889,880278637,mA1/imu,0.0031049883058547408,-0.9999945024890872,-0.000839324210574821,-0.0008059615952986308,0.0,0.0,0.0,0.0,0.0,0.0,0.0,0.0,0.0,0.0005705106159819128,0.00023515627649309912,-0.00024397248418599416,0.0,0.0,0.0,0.0,0.0,0.0,0.0,0.0,0.0,0.0008777452992293575,0.03527556631989782,9.811662630102411,0.0,0.0,0.0,0.0,0.0,0.0,0.0,0.0,0.0
2025/05/21 10:41:29.933569438,1747816889,931333744,mA1/imu,0.0031108526596530365,-0.9999944976837616,-0.000844036012963018,-0.000784092558387211,0.0,0.0,0.0,0.0,0.0,0.0,0.0,0.0,0.0,0.0007352855721364337,0.0012865283964214995,-0.00022694496951849302,0.0,0.0,0.0,0.0,0.0,0.0,0.0,0.0,0.0,0.0016190231961959387,0.03983889946490321,9.81154327720776,0.0,0.0,0.0,0.0,0.0,0.0,0.0,0.0,0.0
2025/05/21 10:41:29.981671987,1747816889,981259623,mA1/imu,0.0031163253888658897,-0.9999945118740668,-0.0008494572228818168,-0.0007369940597028696,0.0,0.0,0.0,0.0,0.0,0.0,0.0,0.0,0.0,0.0005662407310739212,0.002250028008787321,-0.0002106903007812568,0.0,0.0,0.0,0.0,0.0,0.0,0.0,0.0,0.0,0.0025201593088735857,-0.4370626155975449,9.810570068034139,0.0,0.0,0.0,0.0,0.0,0.0,0.0,0.0,0.0
2025/05/21 10:41:30.32763601,1747816890,32209069,mA1/imu,0.0031214191465747543,-0.9999945472393679,-0.0008463013804359838,-0.0006678383160437048,0.0,0.0,0.0,0.0,0.0,0.0,0.0,0.0,0.0,-6.532529415763048e-05,0.0030833751880404545,-0.00019546537727343415,0.0,0.0,0.0,0.0,0.0,0.0,0.0,0.0,0.0,0.003325521569956495,-0.029890681707157557,9.810674191285447,0.0,0.0,0.0,0.0,0.0,0.0,0.0,0.0,0.0
2025/05/21 10:41:30.82638911,1747816890,82036983,mA1/imu,0.0031261530719604398,-0.999994594433542,-0.0008371365305719172,-0.000580924346023055,0.0,0.0,0.0,0.0,0.0,0.0,0.0,0.0,0.0,0.0005445825091246131,0.0037206710920004668,-0.00018083970619428788,0.0,0.0,0.0,0.0,0.0,0.0,0.0,0.0,0.0,0.00327444734965872,0.007617783571736193,9.808140627933064,0.0,0.0,0.0,0.0,0.0,0.0,0.0,0.0,0.0
2025/05/21 10:41:30.134241562,1747816890,133088279,mA1/imu,0.003127403882521227,-0.9999946534936236,-0.0008267423160651956,-0.0004783578848413245,0.0,0.0,0.0,0.0,0.0,0.0,0.0,0.0,0.0,0.00056923450913739,0.004486669467968472,0.00016336772426198815,0.0,0.0,0.0,0.0,0.0,0.0,0.0,0.0,0.0,-0.019943908690636176,0.6520522343175895,9.809423931354965,0.0,0.0,0.0,0.0,0.0,0.0,0.0,0.0,0.0
2025/05/21 10:41:30.183465597,1747816890,182890009,mA1/imu,0.003114891338045777,-0.9999947500810569,-0.0008193293470677452,-0.00035491083122609387,0.0,0.0,0.0,0.0,0.0,0.0,0.0,0.0,0.0,0.0009439859951514053,0.0051702561718788296,0.000712121523385504,0.0,0.0,0.0,0.0,0.0,0.0,0.0,0.0,0.0,-0.013390707878347712,0.02513417403415123,9.811284016283464,0.0,0.0,0.0,0.0,0.0,0.0,0.0,0.0,0.0
2025/05/21 10:41:30.228746563,1747816890,225903917,mA1/imu,0.003091817743395911,-0.9999948677314838,-0.000809177553734372,-0.00022451151543677005,0.0,0.0,0.0,0.0,0.0,0.0,0.0,0.0,0.0,0.0012150063101881916,0.00503251868350133,0.0009469686810279861,0.0,0.0,0.0,0.0,0.0,0.0,0.0,0.0,0.0,0.014798557172195267,-0.6068726826696642,9.807881018509383,0.0,0.0,0.0,0.0,0.0,0.0,0.0,0.0,0.0
2025/05/21 10:41:30.276591388,1747816890,275714051,mA1/imu,0.0030684225317324557,-0.9999949729430869,-0.0007918023493020358,-0.00010918223890510922,0.0,0.0,0.0,0.0,0.0,0.0,0.0,0.0,0.0,0.0011609342188276283,0.004286307856403209,0.0009341113736782505,0.0,0.0,0.0,0.0,0.0,0.0,0.0,0.0,0.0,0.015139937160875461,-0.6104760801678641,9.808379382180442,0.0,0.0,0.0,0.0,0.0,0.0,0.0,0.0,0.0
2025/05/21 10:41:30.327405610,1747816890,326704433,mA1/imu,0.003045322125996079,-0.9999950621503557,-0.000775522279128295,-1.591381718922728e-05,0.0,0.0,0.0,0.0,0.0,0.0,0.0,0.0,0.0,-0.000665067633633531,0.0033314217301792857,0.000921860850829012,0.0,0.0,0.0,0.0,0.0,0.0,0.0,0.0,0.0,0.015000471096149007,0.5256487825259063,9.81068055466612,0.0,0.0,0.0,0.0,0.0,0.0,0.0,0.0,0.0
2025/05/21 10:41:30.380325662,1747816890,379695360,mA1/imu,0.003022530423174886,-0.9999951423637654,-0.0007596332254826114,5.016050364227027e-05,0.0,0.0,0.0,0.0,0.0,0.0,0.0,0.0,0.0,-0.0007878828077291935,0.002187299841466339,0.0009080082708929641,0.0,0.0,0.0,0.0,0.0,0.0,0.0,0.0,0.0,0.014898148182194175,0.5259881161379643,9.80860411406546,0.0,0.0,0.0,0.0,0.0,0.0,0.0,0.0,0.0
2025/05/21 10:41:30.433785689,1747816890,433336979,mA1/imu,0.003000070256755625,-0.9999952187602332,-0.000744801831171803,8.547139984867454e-05,0.0,0.0,0.0,0.0,0.0,0.0,0.0,0.0,0.0,0.0007605980907421227,0.0009102228756722525,0.0008939644905874188,0.0,0.0,0.0,0.0,0.0,0.0,0.0,0.0,0.0,0.014321829808108977,0.006604697238539051,9.808253012195445,0.0,0.0,0.0,0.0,0.0,0.0,0.0,0.0,0.0
2025/05/21 10:41:30.483694123,1747816890,483109290,mA1/imu,0.0029779421973775222,-0.9999952934524158,-0.0007328256573036916,8.888105441070976e-05,0.0,0.0,0.0,0.0,0.0,0.0,0.0,0.0,0.0,0.0022965356255504944,-0.00039367138904967296,0.0008792782856004796,0.0,0.0,0.0,0.0,0.0,0.0,0.0,0.0,0.0,0.015305891441625925,-0.5123329084952247,9.808433791985198,0.0,0.0,0.0,0.0,0.0,0.0,0.0,0.0,0.0
2025/05/21 10:41:30.536119911,1747816890,534537847,mA1/imu,0.002956183522046319,-0.9999953601901456,-0.0007327191325850056,6.082629155296102e-05,0.0,0.0,0.0,0.0,0.0,0.0,0.0,0.0,0.0,0.0006582552506509272,-0.0016142753285646044,0.0008634551009803809,0.0,0.0,0.0,0.0,0.0,0.0,0.0,0.0,0.0,0.0130432408581087,0.015406752867953087,9.810091796586338,0.0,0.0,0.0,0.0,0.0,0.0,0.0,0.0,0.0
2025/05/21 10:41:30.584713238,1747816890,584334052,mA1/imu,0.002934791283205558,-0.9999954224788811,-0.0007362111606749753,3.812472956319798e-06,0.0,0.0,0.0,0.0,0.0,0.0,0.0,0.0,0.0,-0.000970941493101741,-0.002708240551782587,0.0008476714669869973,0.0,0.0,0.0,0.0,0.0,0.0,0.0,0.0,0.0,0.012623106919331327,-0.08705305202772563,9.81076242033024,0.0,0.0,0.0,0.0,0.0,0.0,0.0,0.0,0.0
2025/05/21 10:41:30.636192108,1747816890,635649985,mA1/imu,0.002913780433047966,-0.9999954821393594,-0.0007344964459837418,-7.809884162234427e-05,0.0,0.0,0.0,0.0,0.0,0.0,0.0,0.0,0.0,-0.0010943290141218127,-0.0036168087015872063,0.0008316762770930179,0.0,0.0,0.0,0.0,0.0,0.0,0.0,0.0,0.0,0.012009716032518462,-0.12029837534414578,9.810646101702362,0.0,0.0,0.0,0.0,0.0,0.0,0.0,0.0,0.0
2025/05/21 10:41:30.678833924,1747816890,675500122,mA1/imu,0.0028931313749379632,-0.9999955344965703,-0.0007270690327362905,-0.00017929971506547093,0.0,0.0,0.0,0.0,0.0,0.0,0.0,0.0,0.0,0.0001262660124142698,-0.004289384099951845,0.0008171328663236116,0.0,0.0,0.0,0.0,0.0,0.0,0.0,0.0,0.0,0.01014263088141432,0.005087501484454894,9.808731209569958,0.0,0.0,0.0,0.0,0.0,0.0,0.0,0.0,0.0
2025/05/21 10:41:30.727965614,1747816890,727044894,mA1/imu,0.002872827019472389,-0.9999955633360611,-0.0007309778451617266,-0.00029299232113109687,0.0,0.0,0.0,0.0,0.0,0.0,0.0,0.0,0.0,-9.593347949612453e-05,-0.004677120234992017,0.000803370436561148,0.0,0.0,0.0,0.0,0.0,0.0,0.0,0.0,0.0,0.008141949295928937,0.6292556456749271,9.811317047151235,0.0,0.0,0.0,0.0,0.0,0.0,0.0,0.0,0.0
2025/05/21 10:41:30.777827930,1747816890,777380862,mA1/imu,0.0028528492216305544,-0.9999955679114068,-0.0007453932617579303,-0.0004120652219774099,0.0,0.0,0.0,0.0,0.0,0.0,0.0,0.0,0.0,-1.139459643174975e-05,-0.004789818734981259,0.0007905905460969363,0.0,0.0,0.0,0.0,0.0,0.0,0.0,0.0,0.0,0.007868763462815613,0.01128211655192167,9.811457267088155,0.0,0.0,0.0,0.0,0.0,0.0,0.0,0.0,0.0
2025/05/21 10:41:30.828948052,1747816890,828425341,mA1/imu,0.0028303861739049393,-0.9999955684456152,-0.0007586396110967577,-0.0005258033642063289,0.0,0.0,0.0,0.0,0.0,0.0,0.0,0.0,0.0,0.00038149540619501407,-0.004263102899912871,0.0010691445141718199,0.0,0.0,0.0,0.0,0.0,0.0,0.0,0.0,0.0,-0.008927963028131054,-0.5738802351092962,9.809320322655715,0.0,0.0,0.0,0.0,0.0,0.0,0.0,0.0,0.0
2025/05/21 10:41:30.879742318,1747816890,879466767,mA1/imu,0.0027968915621304907,-0.9999956095521845,-0.0007587613101710744,-0.0006185104839433164,0.0,0.0,0.0,0.0,0.0,0.0,0.0,0.0,0.0,0.0005765652187870735,-0.0034681403782169883,0.0014027785441304648,0.0,0.0,0.0,0.0,0.0,0.0,0.0,0.0,0.0,0.010544244645658956,-0.5912876856498748,9.810575330960944,0.0,0.0,0.0,0.0,0.0,0.0,0.0,0.0,0.0
2025/05/21 10:41:30.930707490,1747816890,930438213,mA1/imu,0.0027623228181912944,-0.9999956567774048,-0.0007538134110113103,-0.0006984012576409193,0.0,0.0,0.0,0.0,0.0,0.0,0.0,0.0,0.0,-0.0010480052620317718,-0.002991514153297089,0.0013654498221118464,0.0,0.0,0.0,0.0,0.0,0.0,0.0,0.0,0.0,0.009786077138808974,0.5465887137486111,9.812950558600068,0.0,0.0,0.0,0.0,0.0,0.0,0.0,0.0,0.0
2025/05/21 10:41:30.982543517,1747816890,982107244,mA1/imu,0.0027286325682695585,-0.9999957072917085,-0.0007456618339735686,-0.0007641667960568582,0.0,0.0,0.0,0.0,0.0,0.0,0.0,0.0,0.0,-0.0010174885338413895,-0.002349098576841232,0.0013318593913838287,0.0,0.0,0.0,0.0,0.0,0.0,0.0,0.0,0.0,0.008569560641915702,0.5451028621197778,9.810746131463109,0.0,0.0,0.0,0.0,0.0,0.0,0.0,0.0,0.0
2025/05/21 10:41:31.30222675,1747816891,29821927,mA1/imu,0.00269896864912945,-0.99999575824988,-0.0007307898644506501,-0.0008154732692791745,0.0,0.0,0.0,0.0,0.0,0.0,0.0,0.0,0.0,0.0007588680601635938,-0.0019318349997819138,0.0009756644810696896,0.0,0.0,0.0,0.0,0.0,0.0,0.0,0.0,0.0,0.02613765543341134,0.019194340530459063,9.807113210052972,0.0,0.0,0.0,0.0,0.0,0.0,0.0,0.0,0.0
2025/05/21 10:41:31.78443960,1747816891,77992691,mA1/imu,0.002683269125594986,-0.9999957666707392,-0.0007266763470554933,-0.0008594468491522226,0.0,0.0,0.0,0.0,0.0,0.0,0.0,0.0,0.0,0.000793977910480738,-0.0016719776645922532,0.00039359139054191846,0.0,0.0,0.0,0.0,0.0,0.0,0.0,0.0,0.0,0.028895164206307528,0.020312768021835667,9.809780207803973,0.0,0.0,0.0,0.0,0.0,0.0,0.0,0.0,0.0
2025/05/21 10:41:31.131022523,1747816891,129293254,mA1/imu,0.0026779792023889967,-0.99999575684527,-0.000723967337417413,-0.0008891513602988324,0.0,0.0,0.0,0.0,0.0,0.0,0.0,0.0,0.0,-0.0007737517977716947,-0.0007030246284193311,0.00021185090416899458,0.0,0.0,0.0,0.0,0.0,0.0,0.0,0.0,0.0,-0.0005602509051546092,0.559094433304345,9.812359620524298,0.0,0.0,0.0,0.0,0.0,0.0,0.0,0.0,0.0
2025/05/21 10:41:31.179529897,1747816891,179058999,mA1/imu,0.0026718160470139344,-0.9999957848419461,-0.0007103878450939785,-0.0008871563901911453,0.0,0.0,0.0,0.0,0.0,0.0,0.0,0.0,0.0,3.163246708729616e-05,0.0006053522891296106,0.00026454311641931636,0.0,0.0,0.0,0.0,0.0,0.0,0.0,0.0,0.0,-0.0003224069300003102,-0.013739143095142375,9.808654484676024,0.0,0.0,0.0,0.0,0.0,0.0,0.0,0.0,0.0
2025/05/21 10:41:31.235856192,1747816891,233808367,mA1/imu,0.0026643326698003516,-0.9999958413894893,-0.0007000154091345897,-0.0008535300693221267,0.0,0.0,0.0,0.0,0.0,0.0,0.0,0.0,0.0,0.0011841948309376101,0.0018312435243052455,0.00032338639176029835,0.0,0.0,0.0,0.0,0.0,0.0,0.0,0.0,0.0,0.0006603868532802752,0.06191210704675579,9.809388849230821,0.0,0.0,0.0,0.0,0.0,0.0,0.0,0.0,0.0
2025/05/21 10:41:31.284083120,1747816891,283644881,mA1/imu,0.0026553315420191543,-0.9999959210393465,-0.0006942632067704099,-0.0007906438328798459,0.0,0.0,0.0,0.0,0.0,0.0,0.0,0.0,0.0,-0.0004988154557736531,0.002954511117048813,0.00038692661951998637,0.0,0.0,0.0,0.0,0.0,0.0,0.0,0.0,0.0,0.0012865752366114404,0.5739232104609215,9.809618693370284,0.0,0.0,0.0,0.0,0.0,0.0,0.0,0.0,0.0
2025/05/21 10:41:31.335658856,1747816891,334766391,mA1/imu,0.002644612363547744,-0.9999960176293726,-0.0006906274163557046,-0.0007026980957131834,0.0,0.0,0.0,0.0,0.0,0.0,0.0,0.0,0.0,-0.00046876531634643614,0.0038677181684236904,0.0004604245915971753,0.0,0.0,0.0,0.0,0.0,0.0,0.0,0.0,0.0,0.002252407672885915,-0.05448010653229678,9.810201436130823,0.0,0.0,0.0,0.0,0.0,0.0,0.0,0.0,0.0
2025/05/21 10:41:31.377354679,1747816891,376920972,mA1/imu,0.0026326475338403436,-0.99999612567502,-0.00067998883323409,-0.0005961686831829053,0.0,0.0,0.0,0.0,0.0,0.0,0.0,0.0,0.0,0.0010906965570126159,0.0044713099118105105,0.0004846175243258631,0.0,0.0,0.0,0.0,0.0,0.0,0.0,0.0,0.0,0.005630315273561333,-0.5716785807914612,9.80906779727555,0.0,0.0,0.0,0.0,0.0,0.0,0.0,0.0,0.0
2025/05/21 10:41:31.431580704,1747816891,430252084,mA1/imu,0.002620473333511297,-0.9999962267082558,-0.0006709172921825736,-0.00047912289248432,0.0,0.0,0.0,0.0,0.0,0.0,0.0,0.0,0.0,0.0009168783168878339,0.00477986767642379,0.0004934129985237654,0.0,0.0,0.0,0.0,0.0,0.0,0.0,0.0,0.0,0.0074499380908799075,0.05059377888135378,9.808410206570374,0.0,0.0,0.0,0.0,0.0,0.0,0.0,0.0,0.0
2025/05/21 10:41:31.480429234,1747816891,480039269,mA1/imu,0.002608095076250129,-0.9999963103691206,-0.0006697022019893964,-0.00035859054532324315,0.0,0.0,0.0,0.0,0.0,0.0,0.0,0.0,0.0,-0.0006951503784309331,0.004814384693551726,0.0005015920783372338,0.0,0.0,0.0,0.0,0.0,0.0,0.0,0.0,0.0,0.008269404791606663,0.5715512627739628,9.808992550179461,0.0,0.0,0.0,0.0,0.0,0.0,0.0,0.0,0.0
2025/05/21 10:41:31.533308892,1747816891,532627164,mA1/imu,0.0025955542778446903,-0.9999963790068342,-0.0006682522039401243,-0.00024188882295453625,0.0,0.0,0.0,0.0,0.0,0.0,0.0,0.0,0.0,-0.00025922990283194834,0.004538334776386577,0.0005067744626447136,0.0,0.0,0.0,0.0,0.0,0.0,0.0,0.0,0.0,0.009881714453707221,-0.19122941485698108,9.809461360241865,0.0,0.0,0.0,0.0,0.0,0.0,0.0,0.0,0.0
2025/05/21 10:41:31.582766355,1747816891,582487909,mA1/imu,0.002582886312329835,-0.9999964372526653,-0.0006601304566622841,-0.00013567628328384164,0.0,0.0,0.0,0.0,0.0,0.0,0.0,0.0,0.0,0.0011919118192002859,0.00402101486990224,0.0005112791586099092,0.0,0.0,0.0,0.0,0.0,0.0,0.0,0.0,0.0,0.009650316434507162,-0.5484936353299437,9.808808182843233,0.0,0.0,0.0,0.0,0.0,0.0,0.0,0.0,0.0
2025/05/21 10:41:31.634047152,1747816891,633556834,mA1/imu,0.00257010798214374,-0.9999964773208615,-0.0006616694969511721,-4.565418480943189e-05,0.0,0.0,0.0,0.0,0.0,0.0,0.0,0.0,0.0,-0.00046338916582564996,0.003290598502821338,0.0005154783551867635,0.0,0.0,0.0,0.0,0.0,0.0,0.0,0.0,0.0,0.010868232992127037,0.6015992306468243,9.809505091135309,0.0,0.0,0.0,0.0,0.0,0.0,0.0,0.0,0.0
2025/05/21 10:41:31.683776753,1747816891,683354137,mA1/imu,0.002557188460162825,-0.999996508646012,-0.0006655375146743447,2.3297682332150024e-05,0.0,0.0,0.0,0.0,0.0,0.0,0.0,0.0,0.0,-0.0016312098274400269,0.00239191294367083,0.0005204527762141824,0.0,0.0,0.0,0.0,0.0,0.0,0.0,0.0,0.0,0.010552921487647247,0.5279648091764793,9.808914055945092,0.0,0.0,0.0,0.0,0.0,0.0,0.0,0.0,0.0
2025/05/21 10:41:31.738237905,1747816891,734376647,mA1/imu,0.0025441559522886323,-0.99999653607852,-0.0006712475464965472,6.729177299299263e-05,0.0,0.0,0.0,0.0,0.0,0.0,0.0,0.0,0.0,8.438044595491154e-05,0.0013330777203000045,0.000523689112743533,0.0,0.0,0.0,0.0,0.0,0.0,0.0,0.0,0.0,0.010780967348370479,-0.610758190338633,9.80879327124584,0.0,0.0,0.0,0.0,0.0,0.0,0.0,0.0,0.0
2025/05/21 10:41:31.777491667,1747816891,776546006,mA1/imu,0.0025310311775258907,-0.9999965663248024,-0.0006738780839998852,8.430961673165687e-05,0.0,0.0,0.0,0.0,0.0,0.0,0.0,0.0,0.0,0.0007671256843966887,0.00023202764671383284,0.0005268261877596472,0.0,0.0,0.0,0.0,0.0,0.0,0.0,0.0,0.0,0.010587215820621705,-0.5598693932029344,9.80880951086842,0.0,0.0,0.0,0.0,0.0,0.0,0.0,0.0,0.0
2025/05/21 10:41:31.827996429,1747816891,827506511,mA1/imu,0.002517840820329274,-0.9999965934892314,-0.000684105506711925,7.40755837726876e-05,0.0,0.0,0.0,0.0,0.0,0.0,0.0,0.0,0.0,-0.0004413085019109904,-0.0008422646741869582,0.0005280154006462987,0.0,0.0,0.0,0.0,0.0,0.0,0.0,0.0,0.0,0.009835726124721642,-0.008242307357047448,9.811525753065172,0.0,0.0,0.0,0.0,0.0,0.0,0.0,0.0,0.0
2025/05/21 10:41:31.883903458,1747816891,881036908,mA1/imu,0.0025045902662896666,-0.999996622819795,-0.0006927822561077458,3.780672421215596e-05,0.0,0.0,0.0,0.0,0.0,0.0,0.0,0.0,0.0,-0.002273876993004538,-0.001834454373651518,0.0005294889756833659,0.0,0.0,0.0,0.0,0.0,0.0,0.0,0.0,0.0,0.009364281662484757,0.4998434774444378,9.810639492384775,0.0,0.0,0.0,0.0,0.0,0.0,0.0,0.0,0.0
2025/05/21 10:41:31.934250446,1747816891,933808095,mA1/imu,0.0024912805595998563,-0.9999966503812148,-0.0007016142833765383,-2.2020926962138205e-05,0.0,0.0,0.0,0.0,0.0,0.0,0.0,0.0,0.0,-0.00010643782551855466,-0.002732781610155675,0.0005314240050325867,0.0,0.0,0.0,0.0,0.0,0.0,0.0,0.0,0.0,0.008171580286196824,-0.6097682562366742,9.81002847433403,0.0,0.0,0.0,0.0,0.0,0.0,0.0,0.0,0.0
2025/05/21 10:41:31.984603429,1747816891,984335954,mA1/imu,0.002477913084870469,-0.999996674982225,-0.00070691367276819,-0.00010121411718393188,0.0,0.0,0.0,0.0,0.0,0.0,0.0,0.0,0.0,0.0007714795825036415,-0.003443796262231504,0.0005332406397136168,0.0,0.0,0.0,0.0,0.0,0.0,0.0,0.0,0.0,0.007920930557555977,-0.5494145679446263,9.81005979384341,0.0,0.0,0.0,0.0,0.0,0.0,0.0,0.0,0.0
2025/05/21 10:41:32.36627487,1747816892,35720603,mA1/imu,0.00245720480537856,-0.9999967086365702,-0.0007142753051790194,-0.00018620246971684637,0.0,0.0,0.0,0.0,0.0,0.0,0.0,0.0,0.0,-0.0006432248961160903,-0.0035055101030496577,0.000931115801547289,0.0,0.0,0.0,0.0,0.0,0.0,0.0,0.0,0.0,0.011963516832963922,0.607857008076868,9.812040754671365,0.0,0.0,0.0,0.0,0.0,0.0,0.0,0.0,0.0
2025/05/21 10:41:32.77160946,1747816892,76846167,mA1/imu,0.002435213112564763,-0.9999967344610536,-0.0007222209004187831,-0.0002814272488789883,0.0,0.0,0.0,0.0,0.0,0.0,0.0,0.0,0.0,-0.0009756088102552645,-0.0039721304614806115,0.0008376478391370104,0.0,0.0,0.0,0.0,0.0,0.0,0.0,0.0,0.0,0.01181720722172026,0.583152444355188,9.81185788343653,0.0,0.0,0.0,0.0,0.0,0.0,0.0,0.0,0.0
2025/05/21 10:41:32.130331609,1747816892,128001468,mA1/imu,0.0024122036192022996,-0.9999967530107118,-0.0007275671825027086,-0.0003819525201571853,0.0,0.0,0.0,0.0,0.0,0.0,0.0,0.0,0.0,0.0013612347319854551,-0.003942912253687962,0.0010424222148958083,0.0,0.0,0.0,0.0,0.0,0.0,0.0,0.0,0.0,0.0019229064374761077,-0.5199645342511352,9.809109186106461,0.0,0.0,0.0,0.0,0.0,0.0,0.0,0.0,0.0
2025/05/21 10:41:32.178928733,1747816892,178544740,mA1/imu,0.002385387549459817,-0.9999967676867445,-0.0007382681848666479,-0.00047906407645299115,0.0,0.0,0.0,0.0,0.0,0.0,0.0,0.0,0.0,-0.0011848103987676134,-0.0038364082762809342,0.0010683492439771361,0.0,0.0,0.0,0.0,0.0,0.0,0.0,0.0,0.0,0.0077632561485933985,0.2773766550931412,9.811248808223306,0.0,0.0,0.0,0.0,0.0,0.0,0.0,0.0,0.0
2025/05/21 10:41:32.230164197,1747816892,229594892,mA1/imu,0.002358653366987832,-0.9999967864007678,-0.0007331685326099229,-0.0005713198178015659,0.0,0.0,0.0,0.0,0.0,0.0,0.0,0.0,0.0,0.00011248398569710959,-0.0035527873260875853,0.0010653057613699954,0.0,0.0,0.0,0.0,0.0,0.0,0.0,0.0,0.0,0.006463990046067843,0.01512486853749522,9.810438386458776,0.0,0.0,0.0,0.0,0.0,0.0,0.0,0.0,0.0
2025/05/21 10:41:32.279920239,1747816892,279389503,mA1/imu,0.002332009965886219,-0.9999967967421317,-0.0007359021447617218,-0.0006532097887104327,0.0,0.0,0.0,0.0,0.0,0.0,0.0,0.0,0.0,0.0003982219555420269,-0.0030711607647590316,0.0010623694432817697,0.0,0.0,0.0,0.0,0.0,0.0,0.0,0.0,0.0,0.006584180644495871,0.03068843321994051,9.811523901227932,0.0,0.0,0.0,0.0,0.0,0.0,0.0,0.0,0.0
2025/05/21 10:41:32.330634726,1747816892,330362935,mA1/imu,0.0023054756024603554,-0.9999968101435045,-0.0007385865655686951,-0.000720399158494411,0.0,0.0,0.0,0.0,0.0,0.0,0.0,0.0,0.0,0.0008570571841033956,-0.0024170083773302734,0.0010576449824922772,0.0,0.0,0.0,0.0,0.0,0.0,0.0,0.0,0.0,0.005312033930792291,0.06285819727612861,9.809742035577399,0.0,0.0,0.0,0.0,0.0,0.0,0.0,0.0,0.0
2025/05/21 10:41:32.386267630,1747816892,384291910,mA1/imu,0.0022790815402270815,-0.9999968303942248,-0.0007440288488442641,-0.0007690317996801575,0.0,0.0,0.0,0.0,0.0,0.0,0.0,0.0,0.0,-0.0005177019787170238,-0.0016152874296115679,0.0010522987539891234,0.0,0.0,0.0,0.0,0.0,0.0,0.0,0.0,0.0,0.005488869031389057,0.16407338422960546,9.809641905115932,0.0,0.0,0.0,0.0,0.0,0.0,0.0,0.0,0.0
2025/05/21 10:41:32.437285805,1747816892,435390692,mA1/imu,0.0022528261254032883,-0.9999968669049436,-0.0007461157107188926,-0.0007964082442075783,0.0,0.0,0.0,0.0,0.0,0.0,0.0,0.0,0.0,0.00015357577753823535,-0.000744513063982849,0.0010476824496178571,0.0,0.0,0.0,0.0,0.0,0.0,0.0,0.0,0.0,0.005867980435894331,-0.6234963733414862,9.809327549677837,0.0,0.0,0.0,0.0,0.0,0.0,0.0,0.0,0.0
2025/05/21 10:41:32.485494168,1747816892,485234952,mA1/imu,0.002226695418458371,-0.9999969253998239,-0.0007405716856983851,-0.000801605882499792,0.0,0.0,0.0,0.0,0.0,0.0,0.0,0.0,0.0,0.0007875948979784867,0.00014574218867521486,0.0010427229504843525,0.0,0.0,0.0,0.0,0.0,0.0,0.0,0.0,0.0,0.005886053330450378,-0.581418205422855,9.809342232311534,0.0,0.0,0.0,0.0,0.0,0.0,0.0,0.0,0.0
2025/05/21 10:41:32.528630038,1747816892,528147810,mA1/imu,0.0022007370175494627,-0.9999969993808774,-0.0007365848621858294,-0.0007844925505501162,0.0,0.0,0.0,0.0,0.0,0.0,0.0,0.0,0.0,-0.0007356262459039956,0.0010319105628522416,0.0010359784325728039,0.0,0.0,0.0,0.0,0.0,0.0,0.0,0.0,0.0,0.006793652294765255,0.30623176792124746,9.809104678088916,0.0,0.0,0.0,0.0,0.0,0.0,0.0,0.0,0.0
2025/05/21 10:41:32.578302388,1747816892,577897848,mA1/imu,0.002174965472105489,-0.9999970860550382,-0.0007346310132791377,-0.000746809147006128,0.0,0.0,0.0,0.0,0.0,0.0,0.0,0.0,0.0,-0.0001385538648244382,0.0018134829427370474,0.001029205124639148,0.0,0.0,0.0,0.0,0.0,0.0,0.0,0.0,0.0,0.006884185812885215,0.047119215196720785,9.808866681964632,0.0,0.0,0.0,0.0,0.0,0.0,0.0,0.0,0.0
2025/05/21 10:41:32.629258575,1747816892,628820709,mA1/imu,0.0021493913540745627,-0.9999971847371905,-0.0007299721074820043,-0.0006912128637026427,0.0,0.0,0.0,0.0,0.0,0.0,0.0,0.0,0.0,-0.00010624825542309315,0.0024837889126168937,0.0010212054491555837,0.0,0.0,0.0,0.0,0.0,0.0,0.0,0.0,0.0,0.008062428277587184,0.3449552991661202,9.809455306967108,0.0,0.0,0.0,0.0,0.0,0.0,0.0,0.0,0.0
2025/05/21 10:41:32.679365435,1747816892,678673526,mA1/imu,0.0021240334717792138,-0.9999972872927133,-0.0007268573402402693,-0.0006209407636998445,0.0,0.0,0.0,0.0,0.0,0.0,0.0,0.0,0.0,-0.00033762115132270385,0.0030100821723697754,0.001012822130663474,0.0,0.0,0.0,0.0,0.0,0.0,0.0,0.0,0.0,0.007984186284670434,-0.03408423379976829,9.808961999687106,0.0,0.0,0.0,0.0,0.0,0.0,0.0,0.0,0.0
2025/05/21 10:41:32.729911016,1747816892,729618735,mA1/imu,0.002098900247652799,-0.9999973895137846,-0.0007233597318646644,-0.0005406792626959368,0.0,0.0,0.0,0.0,0.0,0.0,0.0,0.0,0.0,0.0007425039383897255,0.0033161987281636585,0.0010039218849110473,0.0,0.0,0.0,0.0,0.0,0.0,0.0,0.0,0.0,0.009641763967187281,-0.5333895846883643,9.80992994066091,0.0,0.0,0.0,0.0,0.0,0.0,0.0,0.0,0.0
2025/05/21 10:41:32.781114159,1747816892,780586998,mA1/imu,0.002074000261917021,-0.9999974847071923,-0.0007221214463138429,-0.0004556784161603227,0.0,0.0,0.0,0.0,0.0,0.0,0.0,0.0,0.0,0.0008141538507465697,0.0034223325944980187,0.0009948620113875235,0.0,0.0,0.0,0.0,0.0,0.0,0.0,0.0,0.0,0.00992158949794597,-0.5857609748932333,9.80710731811154,0.0,0.0,0.0,0.0,0.0,0.0,0.0,0.0,0.0
2025/05/21 10:41:32.832489778,1747816892,831946764,mA1/imu,0.0020493162670479066,-0.9999975800156661,-0.0007091666720285996,-0.00037060528882900393,0.0,0.0,0.0,0.0,0.0,0.0,0.0,0.0,0.0,-0.0010506462520270224,0.003363695152558568,0.0009864152669963452,0.0,0.0,0.0,0.0,0.0,0.0,0.0,0.0,0.0,0.011346768710139128,0.4021786524249247,9.80941188771394,0.0,0.0,0.0,0.0,0.0,0.0,0.0,0.0,0.0
2025/05/21 10:41:32.883560587,1747816892,883190459,mA1/imu,0.0020248267832831193,-0.9999976572620023,-0.0007079425030711609,-0.0002904555334284521,0.0,0.0,0.0,0.0,0.0,0.0,0.0,0.0,0.0,-8.248397507283637e-05,0.003077326102821122,0.0009789047767572916,0.0,0.0,0.0,0.0,0.0,0.0,0.0,0.0,0.0,0.011598916599478041,0.46727886633743054,9.811257871558073,0.0,0.0,0.0,0.0,0.0,0.0,0.0,0.0,0.0
2025/05/21 10:41:32.934793529,1747816892,934155531,mA1/imu,0.002000535828341625,-0.9999977270749226,-0.0007038207369017695,-0.00021985849643889473,0.0,0.0,0.0,0.0,0.0,0.0,0.0,0.0,0.0,0.00047131219799757454,0.0026324182143075445,0.0009700079406946082,0.0,0.0,0.0,0.0,0.0,0.0,0.0,0.0,0.0,0.011951804035776227,-0.41065425898400315,9.810263878700413,0.0,0.0,0.0,0.0,0.0,0.0,0.0,0.0,0.0
2025/05/21 10:41:32.984334188,1747816892,983975399,mA1/imu,0.0019764602596787,-0.9999977868181471,-0.0007024950858986074,-0.00016267852903341213,0.0,0.0,0.0,0.0,0.0,0.0,0.0,0.0,0.0,0.000712449152654948,0.0020456180159518287,0.0009609651409910675,0.0,0.0,0.0,0.0,0.0,0.0,0.0,0.0,0.0,0.011321214352617784,-0.5832638766802722,9.808824712527262,0.0,0.0,0.0,0.0,0.0,0.0,0.0,0.0,0.0
2025/05/21 10:41:33.31660097,1747816893,28063358,mA1/imu,0.001952609108394872,-0.9999978365853185,-0.0007066583883678692,-0.00012155770056544957,0.0,0.0,0.0,0.0,0.0,0.0,0.0,0.0,0.0,-0.0005883502511396911,0.0013569591371173132,0.0009514017886417434,0.0,0.0,0.0,0.0,0.0,0.0,0.0,0.0,0.0,0.012470228399635293,-0.04597249008679345,9.809661227710277,0.0,0.0,0.0,0.0,0.0,0.0,0.0,0.0,0.0
2025/05/21 10:41:33.79988883,1747816893,79208712,mA1/imu,0.0019289756687318423,-0.9999978887224641,-0.0007013216702861701,-9.874916909104494e-05,0.0,0.0,0.0,0.0,0.0,0.0,0.0,0.0,0.0,-0.0005459123058615104,0.0006155126967756468,0.0009422683226565234,0.0,0.0,0.0,0.0,0.0,0.0,0.0,0.0,0.0,0.011775706461078303,-0.06381052513374287,9.81046406038682,0.0,0.0,0.0,0.0,0.0,0.0,0.0,0.0,0.0
2025/05/21 10:41:33.130822483,1747816893,130292820,mA1/imu,0.0018950685888957917,-0.9999979568492535,-0.0006991586134270269,-7.867397940098292e-05,0.0,0.0,0.0,0.0,0.0,0.0,0.0,0.0,0.0,-0.00052717698871482,0.0012301707377231665,0.0018419771438994597,0.0,0.0,0.0,0.0,0.0,0.0,0.0,0.0,0.0,-0.010787436743665425,-0.04719787009741738,9.812586187776189,0.0,0.0,0.0,0.0,0.0,0.0,0.0,0.0,0.0
2025/05/21 10:41:33.180576131,1747816893,180376520,mA1/imu,0.001845394872515218,-0.9999980564047332,-0.0006917014216463609,-5.704089910995007e-05,0.0,0.0,0.0,0.0,0.0,0.0,0.0,0.0,0.0,-0.000845480724386655,0.0005376731602641483,0.0020162934202813203,0.0,0.0,0.0,0.0,0.0,0.0,0.0,0.0,0.0,0.01087908575889324,0.5667640291188785,9.811870803255033,0.0,0.0,0.0,0.0,0.0,0.0,0.0,0.0,0.0
2025/05/21 10:41:33.232904167,1747816893,231379673,mA1/imu,0.0017937611270791747,-0.9999981536858812,-0.0006869099079761032,-5.657407948829171e-05,0.0,0.0,0.0,0.0,0.0,0.0,0.0,0.0,0.0,0.0006199893262097176,-0.0003155430927040538,0.002098563226099302,0.0,0.0,0.0,0.0,0.0,0.0,0.0,0.0,0.0,0.009730401788294277,0.04532817226595375,9.810724926598775,0.0,0.0,0.0,0.0,0.0,0.0,0.0,0.0,0.0
2025/05/21 10:41:33.281695004,1747816893,281188503,mA1/imu,0.0017400451084192377,-0.9999982438260208,-0.0006919113292650225,-7.646311353044263e-05,0.0,0.0,0.0,0.0,0.0,0.0,0.0,0.0,0.0,0.0006850041173406952,-0.0011198101539435705,0.002186120467810934,0.0,0.0,0.0,0.0,0.0,0.0,0.0,0.0,0.0,0.009260796459815538,0.05210484692351599,9.809521724939053,0.0,0.0,0.0,0.0,0.0,0.0,0.0,0.0,0.0
2025/05/21 10:41:33.333942866,1747816893,332185583,mA1/imu,0.0016841213486622564,-0.9999983305187237,-0.0006996610396216251,-0.00011475834665705616,0.0,0.0,0.0,0.0,0.0,0.0,0.0,0.0,0.0,0.0007356068286717846,-0.0018115408099739613,0.0022738206607465657,0.0,0.0,0.0,0.0,0.0,0.0,0.0,0.0,0.0,0.007563173795477839,-0.5663160341617056,9.808597078180231,0.0,0.0,0.0,0.0,0.0,0.0,0.0,0.0,0.0
2025/05/21 10:41:33.382440026,1747816893,382000900,mA1/imu,0.00162583712596248,-0.9999984119044126,-0.0007102086263473041,-0.00016865941900611988,0.0,0.0,0.0,0.0,0.0,0.0,0.0,0.0,0.0,-0.0009184558646850719,-0.0023755156270316596,0.0023663183657956174,0.0,0.0,0.0,0.0,0.0,0.0,0.0,0.0,0.0,0.007851807802149235,-0.04874665594852776,9.812030367530376,0.0,0.0,0.0,0.0,0.0,0.0,0.0,0.0,0.0
2025/05/21 10:41:33.433378054,1747816893,432984003,mA1/imu,0.0015650767921071992,-0.9999984926738347,-0.0007142983745761856,-0.00023444087876573326,0.0,0.0,0.0,0.0,0.0,0.0,0.0,0.0,0.0,-0.001082836348242496,-0.002775580680981877,0.0024666855947163154,0.0,0.0,0.0,0.0,0.0,0.0,0.0,0.0,0.0,0.00651993892338402,-0.05636501180993279,9.812121109891116,0.0,0.0,0.0,0.0,0.0,0.0,0.0,0.0,0.0
2025/05/21 10:41:33.483441643,1747816893,482905008,mA1/imu,0.0015017813598128655,-0.9999985685347113,-0.0007161645704521862,-0.0003077167266213646,0.0,0.0,0.0,0.0,0.0,0.0,0.0,0.0,0.0,-0.0011910489558873201,-0.0029936852589317114,0.0025703113458810686,0.0,0.0,0.0,0.0,0.0,0.0,0.0,0.0,0.0,0.005373562910157352,0.5688166979174998,9.811552323902202,0.0,0.0,0.0,0.0,0.0,0.0,0.0,0.0,0.0
2025/05/21 10:41:33.535311187,1747816893,533798194,mA1/imu,0.0014358728004550793,-0.999998635285957,-0.000721429993363905,-0.00038371120519647837,0.0,0.0,0.0,0.0,0.0,0.0,0.0,0.0,0.0,-0.00010441430619894731,-0.0030380642316080726,0.0026769462294121225,0.0,0.0,0.0,0.0,0.0,0.0,0.0,0.0,0.0,0.0039130553626941945,0.2038690413462859,9.810399793961306,0.0,0.0,0.0,0.0,0.0,0.0,0.0,0.0,0.0
2025/05/21 10:41:33.577273468,1747816893,576388726,mA1/imu,0.0013673818080274312,-0.9999986950973142,-0.0007283461785624011,-0.0004578018176729107,0.0,0.0,0.0,0.0,0.0,0.0,0.0,0.0,0.0,-0.00016273555054073426,-0.002894699570461691,0.0027749192071636905,0.0,0.0,0.0,0.0,0.0,0.0,0.0,0.0,0.0,0.004625148459640833,0.6388927021509482,9.81090536024194,0.0,0.0,0.0,0.0,0.0,0.0,0.0,0.0,0.0
2025/05/21 10:41:33.628008049,1747816893,627368511,mA1/imu,0.0012965369310194482,-0.9999987464156513,-0.0007413970859337438,-0.0005258226633205378,0.0,0.0,0.0,0.0,0.0,0.0,0.0,0.0,0.0,8.901316838174906e-05,-0.0025898040441695515,0.0028709881022978387,0.0,0.0,0.0,0.0,0.0,0.0,0.0,0.0,0.0,0.0033092380901697986,0.028231940357575647,9.808956383093818,0.0,0.0,0.0,0.0,0.0,0.0,0.0,0.0,0.0
2025/05/21 10:41:33.679048934,1747816893,678787932,mA1/imu,0.0012232989914421678,-0.9999987996101076,-0.0007506454486344036,-0.0005838230310505415,0.0,0.0,0.0,0.0,0.0,0.0,0.0,0.0,0.0,0.0006249740512846358,-0.0021374933181561077,0.0029716537060210085,0.0,0.0,0.0,0.0,0.0,0.0,0.0,0.0,0.0,0.00256577079964773,-0.5696557167829336,9.80921905544656,0.0,0.0,0.0,0.0,0.0,0.0,0.0,0.0,0.0
2025/05/21 10:41:33.734583220,1747816893,732682620,mA1/imu,0.0011474431866594255,-0.9999988590982495,-0.0007553714636253219,-0.000628164217843535,0.0,0.0,0.0,0.0,0.0,0.0,0.0,0.0,0.0,-0.0004227344189794989,-0.0015265842150053274,0.0030791940526827184,0.0,0.0,0.0,0.0,0.0,0.0,0.0,0.0,0.0,0.001250321558162671,-0.015436428490906366,9.811318773616488,0.0,0.0,0.0,0.0,0.0,0.0,0.0,0.0,0.0
2025/05/21 10:41:33.783105607,1747816893,782620336,mA1/imu,0.0010687485299452203,-0.9999989241676038,-0.00076086614105999,-0.0006561424617852861,0.0,0.0,0.0,0.0,0.0,0.0,0.0,0.0,0.0,-0.0013478331389811624,-0.0008410184063630688,0.003188519680144669,0.0,0.0,0.0,0.0,0.0,0.0,0.0,0.0,0.0,0.002154516288284119,0.3587617719653505,9.809551112119568,0.0,0.0,0.0,0.0,0.0,0.0,0.0,0.0,0.0
2025/05/21 10:41:33.835975730,1747816893,833644320,mA1/imu,0.0009873828940997113,-0.9999990003173326,-0.0007613209418919222,-0.0006669556053420665,0.0,0.0,0.0,0.0,0.0,0.0,0.0,0.0,0.0,-0.00028803048947045526,-0.00015092228601749902,0.003294514867181221,0.0,0.0,0.0,0.0,0.0,0.0,0.0,0.0,0.0,0.002061989001684729,-0.01384800277858958,9.81006245812992,0.0,0.0,0.0,0.0,0.0,0.0,0.0,0.0,0.0
2025/05/21 10:41:33.883769888,1747816893,883479601,mA1/imu,0.0009034808329946462,-0.9999990864918135,-0.0007584580229897165,-0.0006599085925531583,0.0,0.0,0.0,0.0,0.0,0.0,0.0,0.0,0.0,0.0006198157487614298,0.0005624394182166819,0.003399180766456471,0.0,0.0,0.0,0.0,0.0,0.0,0.0,0.0,0.0,0.0018602589958424936,-0.29980191561165415,9.80943694620226,0.0,0.0,0.0,0.0,0.0,0.0,0.0,0.0,0.0
2025/05/21 10:41:33.934882959,1747816893,934440406,mA1/imu,0.000817041469383425,-0.9999991768177635,-0.0007577978894195885,-0.000636041972924027,0.0,0.0,0.0,0.0,0.0,0.0,0.0,0.0,0.0,-0.000264268774603987,0.001204402871290192,0.003499915382711212,0.0,0.0,0.0,0.0,0.0,0.0,0.0,0.0,0.0,0.003151887613613345,0.5503237553235013,9.809563811135465,0.0,0.0,0.0,0.0,0.0,0.0,0.0,0.0,0.0
2025/05/21 10:41:33.985424958,1747816893,984473345,mA1/imu,0.0007280337142472873,-0.9999992745700094,-0.0007514107085758303,-0.0005968318968242842,0.0,0.0,0.0,0.0,0.0,0.0,0.0,0.0,0.0,-9.204842499280321e-05,0.0017884062494630253,0.003601882792716046,0.0,0.0,0.0,0.0,0.0,0.0,0.0,0.0,0.0,0.0035018457213251003,0.23639643330302898,9.807958964798688,0.0,0.0,0.0,0.0,0.0,0.0,0.0,0.0,0.0
2025/05/21 10:41:34.37120368,1747816894,35515990,mA1/imu,0.000636399364158816,-0.999999369153632,-0.0007481155455461722,-0.0005449874476008582,0.0,0.0,0.0,0.0,0.0,0.0,0.0,0.0,0.0,0.00022594927234551905,0.0022498498646700694,0.0037080435303560007,0.0,0.0,0.0,0.0,0.0,0.0,0.0,0.0,0.0,0.00419968382932676,0.4738251023851314,9.809540498186635,0.0,0.0,0.0,0.0,0.0,0.0,0.0,0.0,0.0
2025/05/21 10:41:34.88565583,1747816894,85280145,mA1/imu,0.0005421927155693938,-0.9999994614351629,-0.0007411834440048585,-0.00048353236236817025,0.0,0.0,0.0,0.0,0.0,0.0,0.0,0.0,0.0,0.0005606418233047136,0.00256046379064177,0.003813927050523035,0.0,0.0,0.0,0.0,0.0,0.0,0.0,0.0,0.0,0.0049557182254138825,0.2530109265142545,9.809881236946518,0.0,0.0,0.0,0.0,0.0,0.0,0.0,0.0,0.0
2025/05/21 10:41:34.126832728,1747816894,126148332,mA1/imu,0.00044529760369722284,-0.999999542541005,-0.0007365739119538689,-0.00041723697965431907,0.0,0.0,0.0,0.0,0.0,0.0,0.0,0.0,0.0,-0.000166071648134161,0.002684622174705046,0.003920098100207367,0.0,0.0,0.0,0.0,0.0,0.0,0.0,0.0,0.0,0.006216650003095269,0.39637816523402075,9.809673838656678,0.0,0.0,0.0,0.0,0.0,0.0,0.0,0.0,0.0
2025/05/21 10:41:34.179432886,1747816894,177478217,mA1/imu,0.0003458190786038405,-0.9999996109914063,-0.0007321941114325634,-0.00034973988082193964,0.0,0.0,0.0,0.0,0.0,0.0,0.0,0.0,0.0,-0.00018902796088059545,0.0026934174713030856,0.0040222928347821395,0.0,0.0,0.0,0.0,0.0,0.0,0.0,0.0,0.0,0.005134997279585921,-0.026306880100819222,9.809434744581111,0.0,0.0,0.0,0.0,0.0,0.0,0.0,0.0,0.0
2025/05/21 10:41:34.232460797,1747816894,230481614,mA1/imu,0.00024377165650596355,-0.9999996670605015,-0.0007248689457145411,-0.0002846388540535851,0.0,0.0,0.0,0.0,0.0,0.0,0.0,0.0,0.0,0.0005989308082091191,0.0025225937752873903,0.0041235412608722636,0.0,0.0,0.0,0.0,0.0,0.0,0.0,0.0,0.0,0.006676274460438499,-0.2743813882473385,9.81110218290302,0.0,0.0,0.0,0.0,0.0,0.0,0.0,0.0,0.0
2025/05/21 10:41:34.281859985,1747816894,281491989,mA1/imu,0.00013916695430123295,-0.9999997076507439,-0.000717053946100307,-0.00022619598608840063,0.0,0.0,0.0,0.0,0.0,0.0,0.0,0.0,0.0,0.0007332816794426994,0.002183461996706335,0.004229841296195886,0.0,0.0,0.0,0.0,0.0,0.0,0.0,0.0,0.0,0.007047483972714933,-0.009222595623251863,9.811050809788622,0.0,0.0,0.0,0.0,0.0,0.0,0.0,0.0,0.0
2025/05/21 10:41:34.333276088,1747816894,332953475,mA1/imu,3.207242300132169e-05,-0.999999729471691,-0.000712917011368231,-0.00017826171565590528,0.0,0.0,0.0,0.0,0.0,0.0,0.0,0.0,0.0,-0.0003349947150655459,0.0017175642042350956,0.0043232837156623434,0.0,0.0,0.0,0.0,0.0,0.0,0.0,0.0,0.0,0.008096688062976459,0.2573649523757733,9.810882582466727,0.0,0.0,0.0,0.0,0.0,0.0,0.0,0.0,0.0
2025/05/21 10:41:34.383397520,1747816894,382803128,mA1/imu,7.73400789685047e-05,0.9999997376183104,0.0007059215645372747,0.00014302645602502775,0.0,0.0,0.0,0.0,0.0,0.0,0.0,0.0,0.0,0.00015094825792952277,0.0011886391963201503,0.004414940607546167,0.0,0.0,0.0,0.0,0.0,0.0,0.0,0.0,0.0,0.007516625540559997,0.12252807171545385,9.811832751561159,0.0,0.0,0.0,0.0,0.0,0.0,0.0,0.0,0.0
2025/05/21 10:41:34.437996046,1747816894,435541843,mA1/imu,0.00018895657132656453,0.9999997298106588,0.0006997719742730951,0.0001224467545743039,0.0,0.0,0.0,0.0,0.0,0.0,0.0,0.0,0.0,0.0006530719587016418,0.0005679250468610753,0.004499546677416451,0.0,0.0,0.0,0.0,0.0,0.0,0.0,0.0,0.0,0.007903464227534726,-0.34706493697864044,9.811022671939533,0.0,0.0,0.0,0.0,0.0,0.0,0.0,0.0,0.0
2025/05/21 10:41:34.480682228,1747816894,478550748,mA1/imu,0.0003028406713694389,0.9999997017557969,0.00070064503137851,0.00011778108895311332,0.0,0.0,0.0,0.0,0.0,0.0,0.0,0.0,0.0,-0.0005158105921050265,-6.219856881901293e-05,0.004593168239959639,0.0,0.0,0.0,0.0,0.0,0.0,0.0,0.0,0.0,0.007199985694216784,0.14343502482378415,9.81179816314368,0.0,0.0,0.0,0.0,0.0,0.0,0.0,0.0,0.0
2025/05/21 10:41:34.529911721,1747816894,529017434,mA1/imu,0.00041910672420421665,0.9999996597110282,0.0006988662810127185,0.00012850409671014582,0.0,0.0,0.0,0.0,0.0,0.0,0.0,0.0,0.0,0.0007519695319413794,-0.0006722413082779922,0.0046891498658939166,0.0,0.0,0.0,0.0,0.0,0.0,0.0,0.0,0.0,0.0068667254400321025,-0.5768887691859319,9.809417457119732,0.0,0.0,0.0,0.0,0.0,0.0,0.0,0.0,0.0
2025/05/21 10:41:34.579374267,1747816894,578879072,mA1/imu,0.000537792235037539,0.9999996018901661,0.0006953596353066927,0.0001532122658620652,0.0,0.0,0.0,0.0,0.0,0.0,0.0,0.0,0.0,0.0005801475181679299,-0.0012103803606402285,0.0047874215617077845,0.0,0.0,0.0,0.0,0.0,0.0,0.0,0.0,0.0,0.006605151930714673,-0.586790644079437,9.810020148964862,0.0,0.0,0.0,0.0,0.0,0.0,0.0,0.0,0.0
2025/05/21 10:41:34.630361412,1747816894,629831107,mA1/imu,0.0006587837994273916,0.9999995240485114,0.0006940065331649546,0.00019042475679515358,0.0,0.0,0.0,0.0,0.0,0.0,0.0,0.0,0.0,-6.146345849315739e-05,-0.0016743997808841165,0.004873207555907451,0.0,0.0,0.0,0.0,0.0,0.0,0.0,0.0,0.0,0.006124573927580358,0.0019792868052803843,9.812335908706775,0.0,0.0,0.0,0.0,0.0,0.0,0.0,0.0,0.0
2025/05/21 10:41:34.680349950,1747816894,680072214,mA1/imu,0.0007819393105090974,0.9999994244604694,0.0006949854745751994,0.00023800175375542968,0.0,0.0,0.0,0.0,0.0,0.0,0.0,0.0,0.0,0.00011509248169604585,-0.0020429327980841594,0.004959730614819967,0.0,0.0,0.0,0.0,0.0,0.0,0.0,0.0,0.0,0.005707673688765714,-0.07252768597198453,9.811661880447128,0.0,0.0,0.0,0.0,0.0,0.0,0.0,0.0,0.0
2025/05/21 10:41:34.731399028,1747816894,731073252,mA1/imu,0.0009070789319375722,0.9999993021395791,0.000697905021554499,0.0002930132194100641,0.0,0.0,0.0,0.0,0.0,0.0,0.0,0.0,0.0,-0.000724695089355786,-0.002289920174914252,0.005034825502309254,0.0,0.0,0.0,0.0,0.0,0.0,0.0,0.0,0.0,0.005969281538705071,0.25751090127949955,9.809741395087602,0.0,0.0,0.0,0.0,0.0,0.0,0.0,0.0,0.0
2025/05/21 10:41:34.781440261,1747816894,780952280,mA1/imu,0.0010339765420321358,0.9999991565281767,0.0007025619433117101,0.00035248001583021,0.0,0.0,0.0,0.0,0.0,0.0,0.0,0.0,0.0,-0.001536038398322887,-0.002415054696374432,0.005097995698695689,0.0,0.0,0.0,0.0,0.0,0.0,0.0,0.0,0.0,0.005690406127765532,0.26935272335384614,9.809653881848872,0.0,0.0,0.0,0.0,0.0,0.0,0.0,0.0,0.0
2025/05/21 10:41:34.832574131,1747816894,831891854,mA1/imu,0.0011626128971291283,0.9999989920332303,0.0007026327183784846,0.00041300246714912666,0.0,0.0,0.0,0.0,0.0,0.0,0.0,0.0,0.0,6.378477047743883e-05,-0.0024002009019817605,0.005174007781001015,0.0,0.0,0.0,0.0,0.0,0.0,0.0,0.0,0.0,0.004762664613076253,-0.6113513093496715,9.80920688539594,0.0,0.0,0.0,0.0,0.0,0.0,0.0,0.0,0.0
2025/05/21 10:41:34.884880857,1747816894,884577815,mA1/imu,0.0012931687057536974,0.9999988084126864,0.0006994323611614956,0.0004708314751806418,0.0,0.0,0.0,0.0,0.0,0.0,0.0,0.0,0.0,0.001394468587921815,-0.002255800829349757,0.005254054964638212,0.0,0.0,0.0,0.0,0.0,0.0,0.0,0.0,0.0,0.004586868660617397,-0.5201681301231086,9.8086471899344,0.0,0.0,0.0,0.0,0.0,0.0,0.0,0.0,0.0
2025/05/21 10:41:34.929260753,1747816894,928704287,mA1/imu,0.0014255366685935154,0.9999985998513398,0.0007034103742969032,0.000522833063330946,0.0,0.0,0.0,0.0,0.0,0.0,0.0,0.0,0.0,-3.989737611246004e-05,-0.001964567644637353,0.0053213270640335205,0.0,0.0,0.0,0.0,0.0,0.0,0.0,0.0,0.0,0.00396960891226898,0.5237997857765686,9.810190805214187,0.0,0.0,0.0,0.0,0.0,0.0,0.0,0.0,0.0
2025/05/21 10:41:34.979821031,1747816894,978210175,mA1/imu,0.0015595901113791887,0.9999983703666712,0.000711580103905751,0.0005662123649229291,0.0,0.0,0.0,0.0,0.0,0.0,0.0,0.0,0.0,-0.0016501458939420291,-0.0015621172361861922,0.005385795026218866,0.0,0.0,0.0,0.0,0.0,0.0,0.0,0.0,0.0,0.0038044225419586334,0.535134610222059,9.80911162881161,0.0,0.0,0.0,0.0,0.0,0.0,0.0,0.0,0.0
2025/05/21 10:41:35.31062951,1747816895,29792497,mA1/imu,0.0016954043354962594,0.9999981333694723,0.0007073764687065096,0.0005987321953882675,0.0,0.0,0.0,0.0,0.0,0.0,0.0,0.0,0.0,0.000330388114512041,-0.001105294107386573,0.005455778246017042,0.0,0.0,0.0,0.0,0.0,0.0,0.0,0.0,0.0,0.004052362669409055,0.0392044126420031,9.807574713822202,0.0,0.0,0.0,0.0,0.0,0.0,0.0,0.0,0.0
2025/05/21 10:41:35.80022466,1747816895,79632351,mA1/imu,0.001832800137388424,0.9999978740535415,0.0007142287758749629,0.0006185542089976269,0.0,0.0,0.0,0.0,0.0,0.0,0.0,0.0,0.0,0.0014284240038910008,-0.000603436641059243,0.005527963362365763,0.0,0.0,0.0,0.0,0.0,0.0,0.0,0.0,0.0,0.003928007642728985,-0.5175752701951583,9.807917082796173,0.0,0.0,0.0,0.0,0.0,0.0,0.0,0.0,0.0
2025/05/21 10:41:35.130997655,1747816895,130616271,mA1/imu,0.001971854721394892,0.9999976032864575,0.0007172336615506313,0.0006251289252590952,0.0,0.0,0.0,0.0,0.0,0.0,0.0,0.0,0.0,-0.00044991686671915046,-5.3249141432442436e-05,0.00558609761580716,0.0,0.0,0.0,0.0,0.0,0.0,0.0,0.0,0.0,0.004391984479892528,0.6158250436210974,9.810078522634162,0.0,0.0,0.0,0.0,0.0,0.0,0.0,0.0,0.0
2025/05/21 10:41:35.181013311,1747816895,180473200,mA1/imu,0.002112469367946882,0.9999973131927977,0.0007269041225068334,0.0006186200383192424,0.0,0.0,0.0,0.0,0.0,0.0,0.0,0.0,0.0,-0.0013660332638702403,0.0004729926032857281,0.005648789462960459,0.0,0.0,0.0,0.0,0.0,0.0,0.0,0.0,0.0,0.004494596708264544,0.553462769606041,9.80972071885388,0.0,0.0,0.0,0.0,0.0,0.0,0.0,0.0,0.0
2025/05/21 10:41:35.233019493,1747816895,232640454,mA1/imu,0.002254392328717474,0.999997012684108,0.0007294514853045858,0.0006001988159102955,0.0,0.0,0.0,0.0,0.0,0.0,0.0,0.0,0.0,0.0003543848129125122,0.0009067938013912031,0.005693627523787576,0.0,0.0,0.0,0.0,0.0,0.0,0.0,0.0,0.0,0.006646725496309852,-0.5896778584217183,9.809447063224448,0.0,0.0,0.0,0.0,0.0,0.0,0.0,0.0,0.0
2025/05/21 10:41:35.284533673,1747816895,282517422,mA1/imu,0.002397121751031893,0.9999966998860161,0.0007258439795670018,0.0005719920494944718,0.0,0.0,0.0,0.0,0.0,0.0,0.0,0.0,0.0,5.3949596511856316e-05,0.0012645353796963894,0.005718677349680871,0.0,0.0,0.0,0.0,0.0,0.0,0.0,0.0,0.0,0.007159397743697675,0.01885951276711338,9.809093194193906,0.0,0.0,0.0,0.0,0.0,0.0,0.0,0.0,0.0
2025/05/21 10:41:35.333953754,1747816895,333486354,mA1/imu,0.0025405961609883247,0.9999963663560509,0.0007250611432951553,0.0005356605082244022,0.0,0.0,0.0,0.0,0.0,0.0,0.0,0.0,0.0,0.0008050398894194332,0.0015475819332801022,0.0057471525538172075,0.0,0.0,0.0,0.0,0.0,0.0,0.0,0.0,0.0,0.008062396683662383,0.07025262974304292,9.808696242530653,0.0,0.0,0.0,0.0,0.0,0.0,0.0,0.0,0.0
2025/05/21 10:41:35.384036636,1747816895,383318134,mA1/imu,0.0026845652175081325,0.9999959991275232,0.0007418098397954324,0.0004945267447871613,0.0,0.0,0.0,0.0,0.0,0.0,0.0,0.0,0.0,-3.4850625593395616e-05,0.0016733978421738752,0.005772504326885168,0.0,0.0,0.0,0.0,0.0,0.0,0.0,0.0,0.0,0.009143846483134582,0.006067225041652297,9.811430278717674,0.0,0.0,0.0,0.0,0.0,0.0,0.0,0.0,0.0
2025/05/21 10:41:35.435129640,1747816895,434611388,mA1/imu,0.0028289080751956984,0.9999956222756,0.0007408211261941079,0.00045154489933844493,0.0,0.0,0.0,0.0,0.0,0.0,0.0,0.0,0.0,-0.0018897853880614755,0.0017323186963291426,0.00577729974826238,0.0,0.0,0.0,0.0,0.0,0.0,0.0,0.0,0.0,0.010224064178756875,0.5074280558820854,9.811035999856571,0.0,0.0,0.0,0.0,0.0,0.0,0.0,0.0,0.0
2025/05/21 10:41:35.487331662,1747816895,485553332,mA1/imu,0.002973511902687107,0.9999952233669502,0.0007377793121341981,0.0004088421876265105,0.0,0.0,0.0,0.0,0.0,0.0,0.0,0.0,0.0,-0.000495784045171452,0.0016944920573608304,0.005793538263914357,0.0,0.0,0.0,0.0,0.0,0.0,0.0,0.0,0.0,0.00815744679910511,-0.02498141889195728,9.810716864256134,0.0,0.0,0.0,0.0,0.0,0.0,0.0,0.0,0.0
2025/05/21 10:41:35.529036639,1747816895,527411374,mA1/imu,0.0031186636349725774,0.9999947949494499,0.0007403322710888994,0.0003686723040831836,0.0,0.0,0.0,0.0,0.0,0.0,0.0,0.0,0.0,-0.0008972421682127924,0.0015368743015305858,0.005813492038622436,0.0,0.0,0.0,0.0,0.0,0.0,0.0,0.0,0.0,0.010518452675374322,0.45568000750166593,9.811373209873269,0.0,0.0,0.0,0.0,0.0,0.0,0.0,0.0,0.0
2025/05/21 10:41:35.577744685,1747816895,577187077,mA1/imu,0.0032641481198729923,0.9999943442058642,0.0007387994011062794,0.00033326983072457243,0.0,0.0,0.0,0.0,0.0,0.0,0.0,0.0,0.0,-0.0005765775432702219,0.0013134500391054807,0.005824418576219553,0.0,0.0,0.0,0.0,0.0,0.0,0.0,0.0,0.0,0.010350660333443812,-0.019214994440986517,9.811026135607001,0.0,0.0,0.0,0.0,0.0,0.0,0.0,0.0,0.0
2025/05/21 10:41:35.629393727,1747816895,628729744,mA1/imu,0.003409977178053349,0.9999938727855776,0.0007304219356460507,0.0003048454414042375,0.0,0.0,0.0,0.0,0.0,0.0,0.0,0.0,0.0,-0.0007503775247714404,0.0010181401398073817,0.005839427512550815,0.0,0.0,0.0,0.0,0.0,0.0,0.0,0.0,0.0,0.01033677475412782,0.5763851619189388,9.811280125350414,0.0,0.0,0.0,0.0,0.0,0.0,0.0,0.0,0.0
2025/05/21 10:41:35.683359489,1747816895,683068093,mA1/imu,0.0035562335840853675,0.9999933700704488,0.0007294405517105143,0.00028448958410419125,0.0,0.0,0.0,0.0,0.0,0.0,0.0,0.0,0.0,0.0006143274031727267,0.0006721562849990512,0.005858135644613643,0.0,0.0,0.0,0.0,0.0,0.0,0.0,0.0,0.0,0.009257996594799936,-0.40852383920258417,9.810032144890194,0.0,0.0,0.0,0.0,0.0,0.0,0.0,0.0,0.0
2025/05/21 10:41:35.729822862,1747816895,727925093,mA1/imu,0.0037030110530594574,0.9999928437490695,0.0007248828548198095,0.00027332148977741197,0.0,0.0,0.0,0.0,0.0,0.0,0.0,0.0,0.0,-0.00035423513932936396,0.0002951250907637751,0.005884839688511269,0.0,0.0,0.0,0.0,0.0,0.0,0.0,0.0,0.0,0.009118758393892803,0.601977737365603,9.811939178016297,0.0,0.0,0.0,0.0,0.0,0.0,0.0,0.0,0.0
2025/05/21 10:41:35.778927634,1747816895,778565029,mA1/imu,0.0038506908242615196,0.9999922867021747,0.0007245582388522636,0.0002715357990707934,0.0,0.0,0.0,0.0,0.0,0.0,0.0,0.0,0.0,5.5662929380191834e-05,-9.159809650423224e-05,0.005919735698468877,0.0,0.0,0.0,0.0,0.0,0.0,0.0,0.0,0.0,0.009770072088066472,0.025393682297912334,9.811287955434631,0.0,0.0,0.0,0.0,0.0,0.0,0.0,0.0,0.0
2025/05/21 10:41:35.832546516,1747816895,832233060,mA1/imu,0.003999134743875174,0.999991703308822,0.0007227256750382591,0.00027911005010519506,0.0,0.0,0.0,0.0,0.0,0.0,0.0,0.0,0.0,0.0008277589518449501,-0.00045151214403401773,0.005951317977252099,0.0,0.0,0.0,0.0,0.0,0.0,0.0,0.0,0.0,0.00890888071127152,-0.5745635146824308,9.809314948318859,0.0,0.0,0.0,0.0,0.0,0.0,0.0,0.0,0.0
2025/05/21 10:41:35.883963387,1747816895,883484728,mA1/imu,0.004148620271318126,0.9999910856584728,0.0007283234212149014,0.0002951244271210669,0.0,0.0,0.0,0.0,0.0,0.0,0.0,0.0,0.0,-0.0005965431000219579,-0.0007754926048728088,0.005997684076483948,0.0,0.0,0.0,0.0,0.0,0.0,0.0,0.0,0.0,0.00918487894138292,-0.04139055746736803,9.810114836114918,0.0,0.0,0.0,0.0,0.0,0.0,0.0,0.0,0.0
2025/05/21 10:41:35.927022118,1747816895,926697724,mA1/imu,0.004299269081212425,0.9999904455802386,0.0007237330495809027,0.0003181887430473499,0.0,0.0,0.0,0.0,0.0,0.0,0.0,0.0,0.0,-0.0007632941748566353,-0.0010127592743084486,0.006042833578046374,0.0,0.0,0.0,0.0,0.0,0.0,0.0,0.0,0.0,0.009021099244971261,-0.05193258091034475,9.810918732432986,0.0,0.0,0.0,0.0,0.0,0.0,0.0,0.0,0.0
2025/05/21 10:41:35.980331515,1747816895,979945049,mA1/imu,0.004451068099114995,0.9999897738893045,0.0007209092384583322,0.00034698625981428974,0.0,0.0,0.0,0.0,0.0,0.0,0.0,0.0,0.0,-0.0010038078102655565,-0.001224363564082906,0.006088710071099116,0.0,0.0,0.0,0.0,0.0,0.0,0.0,0.0,0.0,0.008239598004635097,0.5662419595078388,9.810556485628746,0.0,0.0,0.0,0.0,0.0,0.0,0.0,0.0,0.0
2025/05/21 10:41:36.32253967,1747816896,31405308,mA1/imu,0.0046039749835983445,0.9999890667497763,0.0007250201439174772,0.00037965912729020633,0.0,0.0,0.0,0.0,0.0,0.0,0.0,0.0,0.0,-0.0006253099050671537,-0.0013440553504059688,0.00613228934083261,0.0,0.0,0.0,0.0,0.0,0.0,0.0,0.0,0.0,0.0075172586214031535,0.20300399244594294,9.810123594683747,0.0,0.0,0.0,0.0,0.0,0.0,0.0,0.0,0.0
2025/05/21 10:41:36.81717328,1747816896,81247245,mA1/imu,0.004757997414396908,0.9999883333880338,0.0007233917781707361,0.00041382697170850625,0.0,0.0,0.0,0.0,0.0,0.0,0.0,0.0,0.0,-0.00039866993094686386,-0.0013655802593164582,0.006175946695437732,0.0,0.0,0.0,0.0,0.0,0.0,0.0,0.0,0.0,0.006673039672184529,-0.01293807754892991,9.808008111977871,0.0,0.0,0.0,0.0,0.0,0.0,0.0,0.0,0.0
2025/05/21 10:41:36.132888134,1747816896,132257862,mA1/imu,0.004927989964316596,0.999987504080288,0.0007259726019769446,0.00042374752961740997,0.0,0.0,0.0,0.0,0.0,0.0,0.0,0.0,0.0,0.00046442205010977314,0.0009344636947711939,0.007665681665866449,0.0,0.0,0.0,0.0,0.0,0.0,0.0,0.0,0.0,-0.1014585902176949,0.052506878372439905,9.804936971721808,0.0,0.0,0.0,0.0,0.0,0.0,0.0,0.0,0.0
2025/05/21 10:41:36.182627404,1747816896,182083339,mA1/imu,0.005155264042637514,0.9999863796899839,0.0007347829076647952,0.0003518255941624907,0.0,0.0,0.0,0.0,0.0,0.0,0.0,0.0,0.0,0.00039525781002318545,0.004085932339040391,0.010038618770286419,0.0,0.0,0.0,0.0,0.0,0.0,0.0,0.0,0.0,-0.09476188507001634,0.043526414378660845,9.807931996607358,0.0,0.0,0.0,0.0,0.0,0.0,0.0,0.0,0.0
2025/05/21 10:41:36.233394983,1747816896,232993150,mA1/imu,0.0054410045230878605,0.9999848953457233,0.0007491436781694182,0.00020816803781031665,0.0,0.0,0.0,0.0,0.0,0.0,0.0,0.0,0.0,-0.0005877576892701648,0.006727967689640331,0.012348550007232527,0.0,0.0,0.0,0.0,0.0,0.0,0.0,0.0,0.0,-0.08527121200209839,-0.01867107608228797,9.807764942559064,0.0,0.0,0.0,0.0,0.0,0.0,0.0,0.0,0.0
2025/05/21 10:41:36.283346586,1747816896,282874001,mA1/imu,0.005777587945307245,0.999983021672903,0.0007586738368706662,1.604599628358839e-05,0.0,0.0,0.0,0.0,0.0,0.0,0.0,0.0,0.0,-0.0006307122691885953,0.007713472574820477,0.013878793867397534,0.0,0.0,0.0,0.0,0.0,0.0,0.0,0.0,0.0,0.0017163448345835467,-0.015103680751031022,9.811928379219887,0.0,0.0,0.0,0.0,0.0,0.0,0.0,0.0,0.0
2025/05/21 10:41:36.335649767,1747816896,334914621,mA1/imu,0.006124444175483274,0.9999809321280854,0.0007773317062605333,-0.0001493961366578885,0.0,0.0,0.0,0.0,0.0,0.0,0.0,0.0,0.0,-0.0007728030526908234,0.005835348038602701,0.013879719948653267,0.0,0.0,0.0,0.0,0.0,0.0,0.0,0.0,0.0,0.027879678498909082,-0.010895434661383322,9.808569816722777,0.0,0.0,0.0,0.0,0.0,0.0,0.0,0.0,0.0
2025/05/21 10:41:36.385436321,1747816896,385065850,mA1/imu,0.006471509708105965,0.9999787060060515,0.0007983650976868976,-0.0002640260056027849,0.0,0.0,0.0,0.0,0.0,0.0,0.0,0.0,0.0,-0.0006608972169953843,0.0037116768989642356,0.013890424024059135,0.0,0.0,0.0,0.0,0.0,0.0,0.0,0.0,0.0,0.026758379634167488,-0.1063102831144773,9.808543692697368,0.0,0.0,0.0,0.0,0.0,0.0,0.0,0.0,0.0
2025/05/21 10:41:36.427915055,1747816896,425999163,mA1/imu,0.006818970669601846,0.999976359516449,0.0008230840825442071,-0.0003233880481646741,0.0,0.0,0.0,0.0,0.0,0.0,0.0,0.0,0.0,-0.001275524001972549,0.0014619518440322373,0.013907631231577941,0.0,0.0,0.0,0.0,0.0,0.0,0.0,0.0,0.0,0.025534656157309998,0.0846379602946527,9.812025271773658,0.0,0.0,0.0,0.0,0.0,0.0,0.0,0.0,0.0
2025/05/21 10:41:36.478343681,1747816896,476026670,mA1/imu,0.0071669540273385565,0.9999739009327001,0.0008520155583941797,-0.00032602591429789377,0.0,0.0,0.0,0.0,0.0,0.0,0.0,0.0,0.0,-0.0021746377171487663,-0.0007881826768953536,0.013927430217256691,0.0,0.0,0.0,0.0,0.0,0.0,0.0,0.0,0.0,0.02459553611618371,0.5438234429169376,9.812123203796661,0.0,0.0,0.0,0.0,0.0,0.0,0.0,0.0,0.0
2025/05/21 10:41:36.527907234,1747816896,527404625,mA1/imu,0.007515711221766253,0.9999713335536335,0.0008781199124828333,-0.0002739730241053662,0.0,0.0,0.0,0.0,0.0,0.0,0.0,0.0,0.0,-0.0005728845696791456,-0.0029175453084551886,0.013961834916195376,0.0,0.0,0.0,0.0,0.0,0.0,0.0,0.0,0.0,0.02180161734727661,-0.6040873293371379,9.809671633625923,0.0,0.0,0.0,0.0,0.0,0.0,0.0,0.0,0.0
2025/05/21 10:41:36.577556530,1747816896,577216405,mA1/imu,0.007865377874460523,0.9999686503714466,0.0008968863345050814,-0.00017233717714145702,0.0,0.0,0.0,0.0,0.0,0.0,0.0,0.0,0.0,-0.00019964091392357452,-0.004806268108430173,0.013996656445591714,0.0,0.0,0.0,0.0,0.0,0.0,0.0,0.0,0.0,0.021079519651697576,0.04696556923757879,9.810384095845956,0.0,0.0,0.0,0.0,0.0,0.0,0.0,0.0,0.0
2025/05/21 10:41:36.629038887,1747816896,628614785,mA1/imu,0.008216079906626195,0.9999658219560482,0.0009220160910940363,-2.8931997131672066e-05,0.0,0.0,0.0,0.0,0.0,0.0,0.0,0.0,0.0,-0.0004835174423347467,-0.006315634578680906,0.014041834919546635,0.0,0.0,0.0,0.0,0.0,0.0,0.0,0.0,0.0,0.016534958372189355,0.38207712969995605,9.812114186308206,0.0,0.0,0.0,0.0,0.0,0.0,0.0,0.0,0.0
2025/05/21 10:41:36.680499581,1747816896,679877637,mA1/imu,0.00856795073854903,0.9999628388420616,0.0009432833973837592,0.0001461899415051122,0.0,0.0,0.0,0.0,0.0,0.0,0.0,0.0,0.0,-0.0003045550640990798,-0.007411821962334818,0.014087451057119164,0.0,0.0,0.0,0.0,0.0,0.0,0.0,0.0,0.0,0.015408152308067455,0.026653073490602988,9.812018942096065,0.0,0.0,0.0,0.0,0.0,0.0,0.0,0.0,0.0
2025/05/21 10:41:36.731168543,1747816896,730790502,mA1/imu,0.00892094778003658,0.9999596821929209,0.0009664919567225267,0.0003414273510789785,0.0,0.0,0.0,0.0,0.0,0.0,0.0,0.0,0.0,-0.00030893541642730056,-0.008027872063017357,0.014135001972179748,0.0,0.0,0.0,0.0,0.0,0.0,0.0,0.0,0.0,0.012469722922364847,-0.6173499387179548,9.810564571238885,0.0,0.0,0.0,0.0,0.0,0.0,0.0,0.0,0.0
2025/05/21 10:41:36.788633121,1747816896,782513493,mA1/imu,0.009275310020706178,0.9999563665879639,0.0009679505413941774,0.0005446246107600635,0.0,0.0,0.0,0.0,0.0,0.0,0.0,0.0,0.0,0.001054852667507941,-0.008163756619277249,0.01418986918885867,0.0,0.0,0.0,0.0,0.0,0.0,0.0,0.0,0.0,0.011639145869190834,-0.5388231241567861,9.810265038254643,0.0,0.0,0.0,0.0,0.0,0.0,0.0,0.0,0.0
2025/05/21 10:41:36.833856147,1747816896,833542620,mA1/imu,0.00963097320390321,0.9999528671285476,0.0009773527207412977,0.0007434098480991043,0.0,0.0,0.0,0.0,0.0,0.0,0.0,0.0,0.0,-0.0006811934826215362,-0.007772812654658422,0.014243841036463457,0.0,0.0,0.0,0.0,0.0,0.0,0.0,0.0,0.0,0.007889430112544131,0.4948157424212614,9.812420480156204,0.0,0.0,0.0,0.0,0.0,0.0,0.0,0.0,0.0
2025/05/21 10:41:36.883816542,1747816896,883464069,mA1/imu,0.009987975766951488,0.9999492092106717,0.0009806288404331262,0.000926124240291002,0.0,0.0,0.0,0.0,0.0,0.0,0.0,0.0,0.0,-0.0006666805032797001,-0.006973690238059416,0.01428947776152281,0.0,0.0,0.0,0.0,0.0,0.0,0.0,0.0,0.0,0.008618181924601155,-0.05550663510177531,9.810590718954908,0.0,0.0,0.0,0.0,0.0,0.0,0.0,0.0,0.0
2025/05/21 10:41:36.934776452,1747816896,934465183,mA1/imu,0.010345220800907088,0.9999454219570837,0.000976787721996608,0.0010841583815848405,0.0,0.0,0.0,0.0,0.0,0.0,0.0,0.0,0.0,-0.0011007570827230874,-0.005885307435872311,0.014255552452692912,0.0,0.0,0.0,0.0,0.0,0.0,0.0,0.0,0.0,0.009246190845614566,0.4244731526996841,9.81059937965712,0.0,0.0,0.0,0.0,0.0,0.0,0.0,0.0,0.0
2025/05/21 10:41:36.976989063,1747816896,975714235,mA1/imu,0.010701885189199239,0.9999415409450579,0.0009606111415531592,0.001208954943145888,0.0,0.0,0.0,0.0,0.0,0.0,0.0,0.0,0.0,0.0012906403098041847,-0.004385163770269356,0.014274226226461448,0.0,0.0,0.0,0.0,0.0,0.0,0.0,0.0,0.0,0.0056675037211224785,-0.41011131491081254,9.809911862581709,0.0,0.0,0.0,0.0,0.0,0.0,0.0,0.0,0.0
2025/05/21 10:41:37.28542534,1747816897,28052354,mA1/imu,0.011054215232946788,0.99993760924617,0.0009469397076654651,0.0012981701843073502,0.0,0.0,0.0,0.0,0.0,0.0,0.0,0.0,0.0,0.0009413634404632569,-0.0031728470095065075,0.013840261601938362,0.0,0.0,0.0,0.0,0.0,0.0,0.0,0.0,0.0,0.0270913593610383,0.03805432490859989,9.808113608765497,0.0,0.0,0.0,0.0,0.0,0.0,0.0,0.0,0.0
2025/05/21 10:41:37.78693801,1747816897,77362569,mA1/imu,0.011390277519725996,0.9999337666194394,0.0009355270477034578,0.0013596843114354925,0.0,0.0,0.0,0.0,0.0,0.0,0.0,0.0,0.0,0.0005778187152597297,-0.001973791333649945,0.01317611422774172,0.0,0.0,0.0,0.0,0.0,0.0,0.0,0.0,0.0,0.025415396088805282,0.09173539244650111,9.80829175965599,0.0,0.0,0.0,0.0,0.0,0.0,0.0,0.0,0.0
2025/05/21 10:41:37.128621872,1747816897,128273383,mA1/imu,0.011708740576613893,0.9999300510759903,0.0009310323956688008,0.0013897942132496312,0.0,0.0,0.0,0.0,0.0,0.0,0.0,0.0,0.0,0.00021460836168873428,-0.0006945928376438735,0.012461550981698207,0.0,0.0,0.0,0.0,0.0,0.0,0.0,0.0,0.0,0.026803154878082224,-0.1698350050157232,9.80851148122057,0.0,0.0,0.0,0.0,0.0,0.0,0.0,0.0,0.0
2025/05/21 10:41:37.180691863,1747816897,178092582,mA1/imu,0.012009819926620653,0.9999264951609971,0.0009219551720108029,0.00138509892628014,0.0,0.0,0.0,0.0,0.0,0.0,0.0,0.0,0.0,0.00026221857757805867,0.0007331100210369025,0.011766388404695677,0.0,0.0,0.0,0.0,0.0,0.0,0.0,0.0,0.0,0.02535649997890445,-0.6681701876379799,9.807172953794792,0.0,0.0,0.0,0.0,0.0,0.0,0.0,0.0,0.0
2025/05/21 10:41:37.230692058,1747816897,229226267,mA1/imu,0.012293892140339581,0.9999231063553825,0.0009133887666026527,0.0013443636431364552,0.0,0.0,0.0,0.0,0.0,0.0,0.0,0.0,0.0,-0.0005775801698357447,0.0021794275352821574,0.01107957971967933,0.0,0.0,0.0,0.0,0.0,0.0,0.0,0.0,0.0,0.025442193242447245,-0.10075287358486823,9.809070088265475,0.0,0.0,0.0,0.0,0.0,0.0,0.0,0.0,0.0
2025/05/21 10:41:37.281098132,1747816897,279005878,mA1/imu,0.012560077099508809,0.9999199116623723,0.0008973769022062554,0.0012686366949737392,0.0,0.0,0.0,0.0,0.0,0.0,0.0,0.0,0.0,-8.324479978803019e-05,0.0035649049155550877,0.010357051542206492,0.0,0.0,0.0,0.0,0.0,0.0,0.0,0.0,0.0,0.02360706961579946,0.2757681552172207,9.812590302193762,0.0,0.0,0.0,0.0,0.0,0.0,0.0,0.0,0.0
2025/05/21 10:41:37.330327632,1747816897,330021760,mA1/imu,0.012796958345996388,0.9999170223503008,0.0008909632867244946,0.0011800235678438734,0.0,0.0,0.0,0.0,0.0,0.0,0.0,0.0,0.0,0.0006804110340981741,0.002925663394634287,0.008497623495902535,0.0,0.0,0.0,0.0,0.0,0.0,0.0,0.0,0.0,0.12103909806831321,0.0007071543427761666,9.816916931736312,0.0,0.0,0.0,0.0,0.0,0.0,0.0,0.0,0.0
2025/05/21 10:41:37.380191955,1747816897,379761976,mA1/imu,0.012978046600561084,0.9999147652396652,0.0008812219741666475,0.0011207185067983161,0.0,0.0,0.0,0.0,0.0,0.0,0.0,0.0,0.0,0.0012093876169260072,0.0026013140073353432,0.0068273357875389485,0.0,0.0,0.0,0.0,0.0,0.0,0.0,0.0,0.0,0.008053473335493194,0.036794475699017365,9.808694583309073,0.0,0.0,0.0,0.0,0.0,0.0,0.0,0.0,0.0
2025/05/21 10:41:37.434427431,1747816897,434143813,mA1/imu,0.013142364818694473,0.9999127234620518,0.0008703664766565312,0.001032554052285853,0.0,0.0,0.0,0.0,0.0,0.0,0.0,0.0,0.0,0.001169687342987723,0.004147358311698432,0.006487434699810676,0.0,0.0,0.0,0.0,0.0,0.0,0.0,0.0,0.0,-0.0012540085592966516,0.034625054093925245,9.807170303868526,0.0,0.0,0.0,0.0,0.0,0.0,0.0,0.0,0.0
2025/05/21 10:41:37.485219337,1747816897,484493403,mA1/imu,0.013301668262043398,0.9999107449652904,0.0008634832182757277,0.0009067089590480944,0.0,0.0,0.0,0.0,0.0,0.0,0.0,0.0,0.0,0.0014868237777194932,0.005547005169695904,0.0063030656367879575,0.0,0.0,0.0,0.0,0.0,0.0,0.0,0.0,0.0,0.0003802298649546662,-0.5812977313869392,9.807540981458478,0.0,0.0,0.0,0.0,0.0,0.0,0.0,0.0,0.0
2025/05/21 10:41:37.535898717,1747816897,535437718,mA1/imu,0.013456337020883412,0.9999088196706558,0.0008457683598427606,0.0007510091198115966,0.0,0.0,0.0,0.0,0.0,0.0,0.0,0.0,0.0,0.0004966389865070923,0.006593797098481917,0.006115883980645889,0.0,0.0,0.0,0.0,0.0,0.0,0.0,0.0,0.0,0.0035037027008822143,-0.026824017065893064,9.808052601860975,0.0,0.0,0.0,0.0,0.0,0.0,0.0,0.0,0.0
2025/05/21 10:41:37.585746596,1747816897,585234359,mA1/imu,0.013606371178550064,0.9999069238223507,0.0008240891109329736,0.0005755281161968952,0.0,0.0,0.0,0.0,0.0,0.0,0.0,0.0,0.0,0.0010085703549119799,0.007225694846690657,0.005931238226867803,0.0,0.0,0.0,0.0,0.0,0.0,0.0,0.0,0.0,0.004408560269766404,0.10120685131118284,9.810325107524209,0.0,0.0,0.0,0.0,0.0,0.0,0.0,0.0,0.0
2025/05/21 10:41:37.632910783,1747816897,629902816,mA1/imu,0.013751758965308251,0.9999050388806674,0.0008057561020276307,0.0003912844426801092,0.0,0.0,0.0,0.0,0.0,0.0,0.0,0.0,0.0,0.0009396515026382967,0.0073878929391088515,0.005745238458684864,0.0,0.0,0.0,0.0,0.0,0.0,0.0,0.0,0.0,0.007506469700985306,0.6316131528431552,9.81102836629747,0.0,0.0,0.0,0.0,0.0,0.0,0.0,0.0,0.0
2025/05/21 10:41:37.679616805,1747816897,679328322,mA1/imu,0.013892411164957298,0.9999031579946429,0.0007948122421525662,0.00020932716896870468,0.0,0.0,0.0,0.0,0.0,0.0,0.0,0.0,0.0,0.0011257846704279357,0.007129970479570476,0.005564407133885446,0.0,0.0,0.0,0.0,0.0,0.0,0.0,0.0,0.0,0.006869086291950035,0.015169497041373863,9.808669781095386,0.0,0.0,0.0,0.0,0.0,0.0,0.0,0.0,0.0
2025/05/21 10:41:37.731600381,1747816897,731128308,mA1/imu,0.014028550661288275,0.9999012862511338,0.0007847971356654667,4.0163758198440157e-05,0.0,0.0,0.0,0.0,0.0,0.0,0.0,0.0,0.0,0.0012909149821839435,0.006443716984612802,0.005379994466951474,0.0,0.0,0.0,0.0,0.0,0.0,0.0,0.0,0.0,0.009838080846047733,-0.6003500613769146,9.809591471288243,0.0,0.0,0.0,0.0,0.0,0.0,0.0,0.0,0.0
2025/05/21 10:41:37.781423444,1747816897,780989082,mA1/imu,0.014160028886066947,0.9998994409177259,0.0007682996229471801,-0.00010653663243059433,0.0,0.0,0.0,0.0,0.0,0.0,0.0,0.0,0.0,0.0012278402835532458,0.005401295170753094,0.005189014048164051,0.0,0.0,0.0,0.0,0.0,0.0,0.0,0.0,0.0,0.01047693918391812,-0.6004623368858226,9.810008250720607,0.0,0.0,0.0,0.0,0.0,0.0,0.0,0.0,0.0
2025/05/21 10:41:37.832287037,1747816897,831943707,mA1/imu,0.014287028243109847,0.9998976264782549,0.0007535061201801848,-0.00022274572906245792,0.0,0.0,0.0,0.0,0.0,0.0,0.0,0.0,0.0,-0.0006789863248289113,0.004088833248672227,0.005012213840289239,0.0,0.0,0.0,0.0,0.0,0.0,0.0,0.0,0.0,0.011441324545136435,0.5336840607588895,9.810685595378663,0.0,0.0,0.0,0.0,0.0,0.0,0.0,0.0,0.0
2025/05/21 10:41:37.884651117,1747816897,884170292,mA1/imu,0.014409607916542907,0.9998958564711381,0.000740234720547665,-0.0003024303210141068,0.0,0.0,0.0,0.0,0.0,0.0,0.0,0.0,0.0,-0.0008567910211857921,0.0025634419888233752,0.0048262096517252264,0.0,0.0,0.0,0.0,0.0,0.0,0.0,0.0,0.0,0.011652416870755257,0.533255962845135,9.811683201826522,0.0,0.0,0.0,0.0,0.0,0.0,0.0,0.0,0.0
2025/05/21 10:41:37.937968100,1747816897,935217847,mA1/imu,0.014527647013314725,0.999894145252653,0.000727431733066562,-0.00034147444542574905,0.0,0.0,0.0,0.0,0.0,0.0,0.0,0.0,0.0,0.000704696464377546,0.0008887328074362098,0.0046547444481475075,0.0,0.0,0.0,0.0,0.0,0.0,0.0,0.0,0.0,0.010976770021174795,0.016450805750494093,9.813085007842568,0.0,0.0,0.0,0.0,0.0,0.0,0.0,0.0,0.0
2025/05/21 10:41:37.977485840,1747816897,976824065,mA1/imu,0.014641441328148251,0.9998924935595682,0.0007174531848026635,-0.0003387919577220034,0.0,0.0,0.0,0.0,0.0,0.0,0.0,0.0,0.0,0.002201034737636458,-0.0007960368952845045,0.004488016223311287,0.0,0.0,0.0,0.0,0.0,0.0,0.0,0.0,0.0,0.010312513711289942,-0.5030990062943507,9.811000627581555,0.0,0.0,0.0,0.0,0.0,0.0,0.0,0.0,0.0
2025/05/21 10:41:38.28686855,1747816898,27299976,mA1/imu,0.014752956716478138,0.9998908666819064,0.0007192547593217341,-0.0002960858301488077,0.0,0.0,0.0,0.0,0.0,0.0,0.0,0.0,0.0,0.0005619824577047092,-0.00222069755728943,0.004552901467067366,0.0,0.0,0.0,0.0,0.0,0.0,0.0,0.0,0.0,-0.0061222928169029165,0.034175845260838826,9.808947347250681,0.0,0.0,0.0,0.0,0.0,0.0,0.0,0.0,0.0
2025/05/21 10:41:38.79665502,1747816898,79174768,mA1/imu,0.014871847251379541,0.9998891211730249,0.0007226800659004929,-0.00022639056955570615,0.0,0.0,0.0,0.0,0.0,0.0,0.0,0.0,0.0,-0.0009946521719975865,-0.003165100953534642,0.004891628241236085,0.0,0.0,0.0,0.0,0.0,0.0,0.0,0.0,0.0,-0.00499898948544895,-0.07036872542558693,9.80874654572082,0.0,0.0,0.0,0.0,0.0,0.0,0.0,0.0,0.0
2025/05/21 10:41:38.130425143,1747816898,130157753,mA1/imu,0.01499927482623496,0.9998872373859701,0.0007186951516734165,-0.0001332089295128748,0.0,0.0,0.0,0.0,0.0,0.0,0.0,0.0,0.0,-0.0010490968211480098,-0.004046353842235667,0.005243817769981692,0.0,0.0,0.0,0.0,0.0,0.0,0.0,0.0,0.0,0.0013876105350544756,-0.09992637616848504,9.811855873375741,0.0,0.0,0.0,0.0,0.0,0.0,0.0,0.0,0.0
2025/05/21 10:41:38.181420201,1747816898,180135009,mA1/imu,0.015135750748312924,0.9998851976460468,0.0007072235072434976,-2.0310637216158217e-05,0.0,0.0,0.0,0.0,0.0,0.0,0.0,0.0,0.0,0.0002524335920734265,-0.004751341969562028,0.005608213321118639,0.0,0.0,0.0,0.0,0.0,0.0,0.0,0.0,0.0,-0.005424284643476206,0.01934412044029328,9.814260214419727,0.0,0.0,0.0,0.0,0.0,0.0,0.0,0.0,0.0
2025/05/21 10:41:38.231656283,1747816898,231025237,mA1/imu,0.015281392061254152,0.9998829760791867,0.0007084166337602385,0.00010653436810027051,0.0,0.0,0.0,0.0,0.0,0.0,0.0,0.0,0.0,-0.0007847461762410709,-0.005240864958733799,0.00596503253099388,0.0,0.0,0.0,0.0,0.0,0.0,0.0,0.0,0.0,-0.006132390295569518,0.5838273425530848,9.814128190181261,0.0,0.0,0.0,0.0,0.0,0.0,0.0,0.0,0.0
2025/05/21 10:41:38.281405491,1747816898,281025619,mA1/imu,0.01543631771383578,0.9998805749764723,0.0007054087077188767,0.00024140984208301824,0.0,0.0,0.0,0.0,0.0,0.0,0.0,0.0,0.0,0.00033539361998181054,-0.005484111453472284,0.006352704648852012,0.0,0.0,0.0,0.0,0.0,0.0,0.0,0.0,0.0,-0.0003901773870033194,0.0377515886555978,9.807294802248423,0.0,0.0,0.0,0.0,0.0,0.0,0.0,0.0,0.0
2025/05/21 10:41:38.333133462,1747816898,332523792,mA1/imu,0.015601452374173333,0.9998779685132139,0.0007069200927490494,0.0003781926587783465,0.0,0.0,0.0,0.0,0.0,0.0,0.0,0.0,0.0,0.0019399692082889613,-0.005473451890067622,0.006768137697203522,0.0,0.0,0.0,0.0,0.0,0.0,0.0,0.0,0.0,-0.0012046195179289,-0.47414790677797014,9.805812300375324,0.0,0.0,0.0,0.0,0.0,0.0,0.0,0.0,0.0
2025/05/21 10:41:38.382330285,1747816898,381845856,mA1/imu,0.015774830324605346,0.9998751736152786,0.0007269882038867571,0.0005132291865435244,0.0,0.0,0.0,0.0,0.0,0.0,0.0,0.0,0.0,-0.0011329333486314913,-0.005496126250657772,0.006924826716848152,0.0,0.0,0.0,0.0,0.0,0.0,0.0,0.0,0.0,0.02494085468017204,-0.6957100264648998,9.809955203434178,0.0,0.0,0.0,0.0,0.0,0.0,0.0,0.0,0.0
2025/05/21 10:41:38.437327875,1747816898,435522168,mA1/imu,0.0159453464161414,0.9998723844370786,0.0007302704062451697,0.0006538141279293181,0.0,0.0,0.0,0.0,0.0,0.0,0.0,0.0,0.0,-0.0015047598557794593,-0.005660400067963138,0.006742923028384591,0.0,0.0,0.0,0.0,0.0,0.0,0.0,0.0,0.0,0.02279716393676312,-0.082326142788697,9.809243815471815,0.0,0.0,0.0,0.0,0.0,0.0,0.0,0.0,0.0
2025/05/21 10:41:38.478064200,1747816898,477791748,mA1/imu,0.01611153229022771,0.9998696125902817,0.0007391936049356175,0.0007936867362665969,0.0,0.0,0.0,0.0,0.0,0.0,0.0,0.0,0.0,-0.0010319535279137365,-0.005490336799139712,0.006576499454961007,0.0,0.0,0.0,0.0,0.0,0.0,0.0,0.0,0.0,0.021556591091314317,-0.036276338427785756,9.809970630206427,0.0,0.0,0.0,0.0,0.0,0.0,0.0,0.0,0.0
2025/05/21 10:41:38.526630068,1747816898,526233751,mA1/imu,0.01627358809086096,0.9998668688121114,0.0007487581810015338,0.0009243071454227325,0.0,0.0,0.0,0.0,0.0,0.0,0.0,0.0,0.0,-0.00041820283930049933,-0.004987531286509879,0.0064137232258126495,0.0,0.0,0.0,0.0,0.0,0.0,0.0,0.0,0.0,0.019351880771112676,0.38176742979957834,9.810086954039274,0.0,0.0,0.0,0.0,0.0,0.0,0.0,0.0,0.0
2025/05/21 10:41:38.577229841,1747816898,576777479,mA1/imu,0.01643154689922016,0.9998641601183657,0.00076705217865167,0.0010378864338154398,0.0,0.0,0.0,0.0,0.0,0.0,0.0,0.0,0.0,-0.00035091927673873544,-0.004195000919919318,0.006257237632237647,0.0,0.0,0.0,0.0,0.0,0.0,0.0,0.0,0.0,0.018031820277331273,0.02103252512277264,9.80725068849418,0.0,0.0,0.0,0.0,0.0,0.0,0.0,0.0,0.0
2025/05/21 10:41:38.629147841,1747816898,628910886,mA1/imu,0.01658562469569455,0.9998615047423515,0.000785131488872247,0.00112781042698476,0.0,0.0,0.0,0.0,0.0,0.0,0.0,0.0,0.0,0.001360252676382448,-0.0031622890181227884,0.006102337437050986,0.0,0.0,0.0,0.0,0.0,0.0,0.0,0.0,0.0,0.016229231636544366,-0.48740711220473787,9.806607316929595,0.0,0.0,0.0,0.0,0.0,0.0,0.0,0.0,0.0
2025/05/21 10:41:38.680616113,1747816898,680276636,mA1/imu,0.016735773260508863,0.9998589046757862,0.0008192195454277986,0.0011889126320118765,0.0,0.0,0.0,0.0,0.0,0.0,0.0,0.0,0.0,-0.0015738019485943082,-0.0019472213452891112,0.005944437736066715,0.0,0.0,0.0,0.0,0.0,0.0,0.0,0.0,0.0,0.017833210584524507,-0.6927633055989438,9.809269186833415,0.0,0.0,0.0,0.0,0.0,0.0,0.0,0.0,0.0
2025/05/21 10:41:38.731803741,1747816898,731341887,mA1/imu,0.016882144147410003,0.999856398592039,0.0008317718990235654,0.0012180143890347165,0.0,0.0,0.0,0.0,0.0,0.0,0.0,0.0,0.0,-0.001708038683153923,-0.0006240125776670258,0.005792250406231912,0.0,0.0,0.0,0.0,0.0,0.0,0.0,0.0,0.0,0.017752549034868795,-0.08005333433581652,9.809418773105318,0.0,0.0,0.0,0.0,0.0,0.0,0.0,0.0,0.0
2025/05/21 10:41:38.784918031,1747816898,782201043,mA1/imu,0.017024905255953227,0.9998539729855872,0.0008439610003706668,0.0012136868593153175,0.0,0.0,0.0,0.0,0.0,0.0,0.0,0.0,0.0,-0.0009468403981849379,0.0007213967959051071,0.0056566984676571464,0.0,0.0,0.0,0.0,0.0,0.0,0.0,0.0,0.0,0.017053671036837647,-0.03191114840024281,9.81050396177602,0.0,0.0,0.0,0.0,0.0,0.0,0.0,0.0,0.0
2025/05/21 10:41:38.835648848,1747816898,835324380,mA1/imu,0.017162671252874517,0.9998516570973182,0.0008481096690412665,0.0011778052479512065,0.0,0.0,0.0,0.0,0.0,0.0,0.0,0.0,0.0,0.0006645819723827195,0.0018805314588896456,0.005376618131642298,0.0,0.0,0.0,0.0,0.0,0.0,0.0,0.0,0.0,0.019881153288809385,0.0710405791185128,9.811136559198417,0.0,0.0,0.0,0.0,0.0,0.0,0.0,0.0,0.0
2025/05/21 10:41:38.877861515,1747816898,875909185,mA1/imu,0.017294350274290653,0.9998494530337902,0.0008591857701088913,0.0011128865319944095,0.0,0.0,0.0,0.0,0.0,0.0,0.0,0.0,0.0,0.0008284594696860391,0.0030617339911471076,0.0052222680234014504,0.0,0.0,0.0,0.0,0.0,0.0,0.0,0.0,0.0,0.016631506052113058,0.06856546533002317,9.809933296256217,0.0,0.0,0.0,0.0,0.0,0.0,0.0,0.0,0.0
2025/05/21 10:41:38.928407825,1747816898,927180848,mA1/imu,0.017422776383723724,0.9998473130622813,0.000869191275339032,0.0010207505798785002,0.0,0.0,0.0,0.0,0.0,0.0,0.0,0.0,0.0,0.0005725676895153562,0.004064330156066754,0.0050924266311006714,0.0,0.0,0.0,0.0,0.0,0.0,0.0,0.0,0.0,0.017820314049880367,0.04207440429215621,9.809096347873822,0.0,0.0,0.0,0.0,0.0,0.0,0.0,0.0,0.0
2025/05/21 10:41:38.977482713,1747816898,976948174,mA1/imu,0.01754811858140589,0.9998452238902724,0.000877012353496259,0.0009069991155676784,0.0,0.0,0.0,0.0,0.0,0.0,0.0,0.0,0.0,0.0009336185446046408,0.004822717085000261,0.004971140294132336,0.0,0.0,0.0,0.0,0.0,0.0,0.0,0.0,0.0,0.01844013518894651,-0.5764497024680008,9.80979963290447,0.0,0.0,0.0,0.0,0.0,0.0,0.0,0.0,0.0
2025/05/21 10:41:39.28908626,1747816899,28563225,mA1/imu,0.017665574879669216,0.999843256160585,0.0008797606657014776,0.0007852359778360725,0.0,0.0,0.0,0.0,0.0,0.0,0.0,0.0,0.0,-0.00038911810506377244,0.004712024441248889,0.004429413213001314,0.0,0.0,0.0,0.0,0.0,0.0,0.0,0.0,0.0,0.031102969148146836,-0.05472828468959749,9.810057416817955,0.0,0.0,0.0,0.0,0.0,0.0,0.0,0.0,0.0
2025/05/21 10:41:39.79276137,1747816899,78421653,mA1/imu,0.01777343332549714,0.9998414415766788,0.0008689553361499332,0.0006645978611373817,0.0,0.0,0.0,0.0,0.0,0.0,0.0,0.0,0.0,-0.0003012843081720107,0.004908712618223305,0.004274391304733164,0.0,0.0,0.0,0.0,0.0,0.0,0.0,0.0,0.0,0.018633005706730606,-0.05927422904202809,9.812182160422706,0.0,0.0,0.0,0.0,0.0,0.0,0.0,0.0,0.0
2025/05/21 10:41:39.130495714,1747816899,129898067,mA1/imu,0.017883037235551544,0.9998395787734353,0.0008524359917009936,0.0005357707262308533,0.0,0.0,0.0,0.0,0.0,0.0,0.0,0.0,0.0,-0.000193154646741466,0.005432130547048191,0.0045881484940882315,0.0,0.0,0.0,0.0,0.0,0.0,0.0,0.0,0.0,-0.007227668409230337,0.5549969612806758,9.815394988397593,0.0,0.0,0.0,0.0,0.0,0.0,0.0,0.0,0.0
2025/05/21 10:41:39.180052293,1747816899,179700358,mA1/imu,0.01800439512632196,0.999837485829434,0.00082945996794701,0.0003945663101385878,0.0,0.0,0.0,0.0,0.0,0.0,0.0,0.0,0.0,0.0015349664684913221,0.005610504293826199,0.0049653612038864205,0.0,0.0,0.0,0.0,0.0,0.0,0.0,0.0,0.0,0.012068905155640304,0.037155766767900125,9.8092706252272,0.0,0.0,0.0,0.0,0.0,0.0,0.0,0.0,0.0
2025/05/21 10:41:39.231076133,1747816899,230643369,mA1/imu,0.01812993679280981,0.9998352751703992,0.0008121848931211398,0.0002612901075939603,0.0,0.0,0.0,0.0,0.0,0.0,0.0,0.0,0.0,0.0017202097993669959,0.005002013116437407,0.0050272177194041505,0.0,0.0,0.0,0.0,0.0,0.0,0.0,0.0,0.0,0.023711038638323342,0.04485921435895502,9.8100060521044,0.0,0.0,0.0,0.0,0.0,0.0,0.0,0.0,0.0
2025/05/21 10:41:39.282449237,1747816899,280876773,mA1/imu,0.018255125772833187,0.9998330345451721,0.0007942720292155517,0.00015015709756521637,0.0,0.0,0.0,0.0,0.0,0.0,0.0,0.0,0.0,0.0018750430858399502,0.00399757237416039,0.005004128885284874,0.0,0.0,0.0,0.0,0.0,0.0,0.0,0.0,0.0,0.02360799405133928,-0.5761219457174209,9.810015396641907,0.0,0.0,0.0,0.0,0.0,0.0,0.0,0.0,0.0
2025/05/21 10:41:39.332246098,1747816899,331798125,mA1/imu,0.018377750700579495,0.9998308130055534,0.000773687266038035,7.1076408681261e-05,0.0,0.0,0.0,0.0,0.0,0.0,0.0,0.0,0.0,0.00044375011410160953,0.0025468759839635713,0.004845471163706752,0.0,0.0,0.0,0.0,0.0,0.0,0.0,0.0,0.0,0.031610257531936595,-0.04430235094833,9.810304004772036,0.0,0.0,0.0,0.0,0.0,0.0,0.0,0.0,0.0
2025/05/21 10:41:39.382049360,1747816899,381692925,mA1/imu,0.018496555776999754,0.9998286456111337,0.0007456115634134804,3.00531285781398e-05,0.0,0.0,0.0,0.0,0.0,0.0,0.0,0.0,0.0,0.00020127126706975796,0.00099663380914869,0.0046908496176438965,0.0,0.0,0.0,0.0,0.0,0.0,0.0,0.0,0.0,0.030882132062668193,-0.054739034892047886,9.812047587671358,0.0,0.0,0.0,0.0,0.0,0.0,0.0,0.0,0.0
2025/05/21 10:41:39.430185431,1747816899,428147674,mA1/imu,0.01861245624090438,0.9998265129497157,0.0007208619659246046,2.8870718234031036e-05,0.0,0.0,0.0,0.0,0.0,0.0,0.0,0.0,0.0,0.000606404960211291,-0.0005974586114658215,0.004615730444626016,0.0,0.0,0.0,0.0,0.0,0.0,0.0,0.0,0.0,0.029821825842770152,0.6076423395446912,9.811956135383156,0.0,0.0,0.0,0.0,0.0,0.0,0.0,0.0,0.0
2025/05/21 10:41:39.477573982,1747816899,476955087,mA1/imu,0.018726191822238353,0.9998244022169198,0.0007000560327556572,6.627945778212263e-05,0.0,0.0,0.0,0.0,0.0,0.0,0.0,0.0,0.0,0.001997215594018354,-0.0021256378012328536,0.004502753389654485,0.0,0.0,0.0,0.0,0.0,0.0,0.0,0.0,0.0,0.029178799984902224,-0.5499508509122301,9.809027997158623,0.0,0.0,0.0,0.0,0.0,0.0,0.0,0.0,0.0
2025/05/21 10:41:39.528773810,1747816899,528441648,mA1/imu,0.01883673736964358,0.9998223309637113,0.0006814170659869478,0.00013965077876918857,0.0,0.0,0.0,0.0,0.0,0.0,0.0,0.0,0.0,0.0020968430648940486,-0.0034867889852855673,0.004374009543256862,0.0,0.0,0.0,0.0,0.0,0.0,0.0,0.0,0.0,0.026984398964758335,-0.5332683284522165,9.8083056477053,0.0,0.0,0.0,0.0,0.0,0.0,0.0,0.0,0.0
2025/05/21 10:41:39.578685903,1747816899,578210145,mA1/imu,0.01894424574872221,0.9998202892806674,0.0006673363309371455,0.000243634882724081,0.0,0.0,0.0,0.0,0.0,0.0,0.0,0.0,0.0,7.027493051819583e-05,-0.0046022807389862795,0.00424947485401978,0.0,0.0,0.0,0.0,0.0,0.0,0.0,0.0,0.0,0.02705314816104718,0.025935108263531303,9.809853231695266,0.0,0.0,0.0,0.0,0.0,0.0,0.0,0.0,0.0
2025/05/21 10:41:39.631020601,1747816899,630160712,mA1/imu,0.019048730121465723,0.9998182725153223,0.000655626851488551,0.00037145479928848215,0.0,0.0,0.0,0.0,0.0,0.0,0.0,0.0,0.0,-9.350379336481929e-05,-0.0054257985920931,0.004125942526393839,0.0,0.0,0.0,0.0,0.0,0.0,0.0,0.0,0.0,0.025067368095705336,-0.1715134263246055,9.808840060834058,0.0,0.0,0.0,0.0,0.0,0.0,0.0,0.0,0.0
2025/05/21 10:41:39.680525905,1747816899,680101108,mA1/imu,0.019150261520983602,0.9998162757535579,0.0006457594493340306,0.0005149919386431851,0.0,0.0,0.0,0.0,0.0,0.0,0.0,0.0,0.0,-0.0013111658804008273,-0.005894990805849849,0.004004353779729226,0.0,0.0,0.0,0.0,0.0,0.0,0.0,0.0,0.0,0.024148493846131328,0.5279048136049425,9.810087965603596,0.0,0.0,0.0,0.0,0.0,0.0,0.0,0.0,0.0
2025/05/21 10:41:39.732642332,1747816899,731846020,mA1/imu,0.019248868168088067,0.9998142999482806,0.0006357095090564163,0.0006652567906501849,0.0,0.0,0.0,0.0,0.0,0.0,0.0,0.0,0.0,-0.0007276563713123975,-0.006027167947042473,0.003897364044984443,0.0,0.0,0.0,0.0,0.0,0.0,0.0,0.0,0.0,0.021506620708121007,0.5788898741106865,9.809343000324894,0.0,0.0,0.0,0.0,0.0,0.0,0.0,0.0,0.0
2025/05/21 10:41:39.782347954,1747816899,781971910,mA1/imu,0.01934464868675515,0.9998123400655983,0.0006379358422887024,0.0008137921107563315,0.0,0.0,0.0,0.0,0.0,0.0,0.0,0.0,0.0,-0.0006370564823046684,-0.005818494356529233,0.0037812506220472977,0.0,0.0,0.0,0.0,0.0,0.0,0.0,0.0,0.0,0.02075299866932813,0.5991583165171187,9.809559154890243,0.0,0.0,0.0,0.0,0.0,0.0,0.0,0.0,0.0
2025/05/21 10:41:39.833281705,1747816899,832923194,mA1/imu,0.01943793771778011,0.9998104067094916,0.0006426720427323893,0.0009508865998958129,0.0,0.0,0.0,0.0,0.0,0.0,0.0,0.0,0.0,-0.0008852609589965971,-0.005203300490010213,0.003692561352454319,0.0,0.0,0.0,0.0,0.0,0.0,0.0,0.0,0.0,0.018274594165591254,0.5940756585969328,9.808365908944264,0.0,0.0,0.0,0.0,0.0,0.0,0.0,0.0,0.0
2025/05/21 10:41:39.884069067,1747816899,883695977,mA1/imu,0.019528987171457644,0.9998085027085137,0.0006599762079459958,0.0010681775236125633,0.0,0.0,0.0,0.0,0.0,0.0,0.0,0.0,0.0,-0.0006432677511092906,-0.004300468327760692,0.0036075761881448,0.0,0.0,0.0,0.0,0.0,0.0,0.0,0.0,0.0,0.01786673938229749,-0.06695111821732273,9.809086777648224,0.0,0.0,0.0,0.0,0.0,0.0,0.0,0.0,0.0
2025/05/21 10:41:39.939252577,1747816899,935946217,mA1/imu,0.019618008627090986,0.9998066515630979,0.0006708657685135764,0.0011589507383992326,0.0,0.0,0.0,0.0,0.0,0.0,0.0,0.0,0.0,-2.2676342006011088e-05,-0.0031448780315196695,0.0035280682172536644,0.0,0.0,0.0,0.0,0.0,0.0,0.0,0.0,0.0,0.016081258470479302,-0.214384457313599,9.808566679564235,0.0,0.0,0.0,0.0,0.0,0.0,0.0,0.0,0.0
2025/05/21 10:41:39.977703714,1747816899,975672850,mA1/imu,0.01970505668354836,0.9998048587668054,0.0006866073220805789,0.0012180713328872846,0.0,0.0,0.0,0.0,0.0,0.0,0.0,0.0,0.0,-0.0003902128024676777,-0.0018058631339380007,0.003450798509431742,0.0,0.0,0.0,0.0,0.0,0.0,0.0,0.0,0.0,0.01592496689512365,0.024815638063929515,9.808916232740591,0.0,0.0,0.0,0.0,0.0,0.0,0.0,0.0,0.0
2025/05/21 10:41:40.30225237,1747816900,29736288,mA1/imu,0.019790121769406085,0.9998031333637912,0.0007088649267624342,0.0012422185043845398,0.0,0.0,0.0,0.0,0.0,0.0,0.0,0.0,0.0,-0.0012149055874702362,-0.00037621349339350154,0.0033726874972284633,0.0,0.0,0.0,0.0,0.0,0.0,0.0,0.0,0.0,0.016354990128221544,0.16447962924450796,9.809731150875502,0.0,0.0,0.0,0.0,0.0,0.0,0.0,0.0,0.0
2025/05/21 10:41:40.80081839,1747816900,79629944,mA1/imu,0.019873224746519227,0.9998014854316593,0.0007281859539428822,0.0012306144962939837,0.0,0.0,0.0,0.0,0.0,0.0,0.0,0.0,0.0,-0.0011286262265402887,0.0010378110760866372,0.0032956306597323693,0.0,0.0,0.0,0.0,0.0,0.0,0.0,0.0,0.0,0.016513315520971295,-0.02907487399026986,9.810573545748932,0.0,0.0,0.0,0.0,0.0,0.0,0.0,0.0,0.0
2025/05/21 10:41:40.131177572,1747816900,130619237,mA1/imu,0.019951322015009026,0.9997999715417798,0.0007427450487056818,0.0011874277673051303,0.0,0.0,0.0,0.0,0.0,0.0,0.0,0.0,0.0,-0.000557461110719975,0.0020939349754291,0.002916132532656983,0.0,0.0,0.0,0.0,0.0,0.0,0.0,0.0,0.0,0.03218082768480449,-0.003784821693483636,9.812051075554214,0.0,0.0,0.0,0.0,0.0,0.0,0.0,0.0,0.0
2025/05/21 10:41:40.180775468,1747816900,180472088,mA1/imu,0.020015156384872747,0.9997987445008948,0.0007733448675247937,0.0011251431194601554,0.0,0.0,0.0,0.0,0.0,0.0,0.0,0.0,0.0,-0.0018076834661671728,0.00280514304465002,0.0023175544724284036,0.0,0.0,0.0,0.0,0.0,0.0,0.0,0.0,0.0,0.030606471270933598,0.29004613338736496,9.812902417890154,0.0,0.0,0.0,0.0,0.0,0.0,0.0,0.0,0.0
2025/05/21 10:41:40.232433631,1747816900,231840870,mA1/imu,0.020063707379487046,0.9997978389739998,0.0007956399598979893,0.0010467980534732996,0.0,0.0,0.0,0.0,0.0,0.0,0.0,0.0,0.0,-0.00022988830638320833,0.0033878813728315535,0.0016951131555399794,0.0,0.0,0.0,0.0,0.0,0.0,0.0,0.0,0.0,0.0308471747455559,-0.6003814155294148,9.809666127211216,0.0,0.0,0.0,0.0,0.0,0.0,0.0,0.0,0.0
2025/05/21 10:41:40.285458181,1747816900,284983632,mA1/imu,0.020096728066891736,0.9997972496496709,0.0008189861162954256,0.0009541361018089137,0.0,0.0,0.0,0.0,0.0,0.0,0.0,0.0,0.0,6.736240438786688e-05,0.00394532307570327,0.0010790348830096398,0.0,0.0,0.0,0.0,0.0,0.0,0.0,0.0,0.0,0.02679745967676773,-0.5228257828877614,9.810922251775152,0.0,0.0,0.0,0.0,0.0,0.0,0.0,0.0,0.0
2025/05/21 10:41:40.327103283,1747816900,326690349,mA1/imu,0.020113599016554806,0.9997969884772392,0.0008400501481018943,0.0008481050603013729,0.0,0.0,0.0,0.0,0.0,0.0,0.0,0.0,0.0,0.00015932868325694728,0.0044216903032161135,0.00040376439702323783,0.0,0.0,0.0,0.0,0.0,0.0,0.0,0.0,0.0,0.022944008334838416,0.04880752555640616,9.810315144984731,0.0,0.0,0.0,0.0,0.0,0.0,0.0,0.0,0.0
2025/05/21 10:41:40.376315071,1747816900,375923297,mA1/imu,0.020113554832089767,0.9997970552575774,0.0008683690610401111,0.0007342652564730295,0.0,0.0,0.0,0.0,0.0,0.0,0.0,0.0,0.0,-0.0009698930062347875,0.004644725862833203,-0.00025831449087941654,0.0,0.0,0.0,0.0,0.0,0.0,0.0,0.0,0.0,0.022472265769262974,-0.04570733557052238,9.814249797181374,0.0,0.0,0.0,0.0,0.0,0.0,0.0,0.0,0.0
2025/05/21 10:41:40.428097321,1747816900,427825957,mA1/imu,0.020105560337767413,0.9997972929069892,0.0008775356808369482,0.0006078408420815353,0.0,0.0,0.0,0.0,0.0,0.0,0.0,0.0,0.0,-0.00033049052552722305,0.005302691710992046,-0.0003561061730898542,0.0,0.0,0.0,0.0,0.0,0.0,0.0,0.0,0.0,0.004603810885060663,0.10121890394514932,9.81041287956303,0.0,0.0,0.0,0.0,0.0,0.0,0.0,0.0,0.0
2025/05/21 10:41:40.478213857,1747816900,477629524,mA1/imu,0.020095007465733575,0.9997975771975516,0.0008803715427279308,0.00046930885845878094,0.0,0.0,0.0,0.0,0.0,0.0,0.0,0.0,0.0,0.0005241130787889438,0.005653783198022044,-0.00045705157358769724,0.0,0.0,0.0,0.0,0.0,0.0,0.0,0.0,0.0,0.004990581674332159,-0.11048074989381061,9.810812553703787,0.0,0.0,0.0,0.0,0.0,0.0,0.0,0.0,0.0
2025/05/21 10:41:40.529032303,1747816900,528584218,mA1/imu,0.0200818061273744,0.9997978956034694,0.0008842661681754334,0.0003272352066905834,0.0,0.0,0.0,0.0,0.0,0.0,0.0,0.0,0.0,-0.0008780801243944919,0.0056557993409727305,-0.0005645950453156075,0.0,0.0,0.0,0.0,0.0,0.0,0.0,0.0,0.0,0.007503235876252331,0.20291948159357606,9.81049413534324,0.0,0.0,0.0,0.0,0.0,0.0,0.0,0.0,0.0
2025/05/21 10:41:40.579571700,1747816900,578999024,mA1/imu,0.02006603932399875,0.9997982665446585,0.000862754842919545,0.0001895632469120712,0.0,0.0,0.0,0.0,0.0,0.0,0.0,0.0,0.0,0.0005550028909964627,0.0053449449815377815,-0.0006727139697423467,0.0,0.0,0.0,0.0,0.0,0.0,0.0,0.0,0.0,0.0077004407968657256,-0.013052576397531598,9.808304237360966,0.0,0.0,0.0,0.0,0.0,0.0,0.0,0.0,0.0
