time,header_stamp_secs,header_stamp_nsecs,header_frame_id,orientation_x,orientation_y,orientation_z,orientation_w,orientation_covariance_0,orientation_covariance_1,orientation_covariance_2,orientation_covariance_3,orientation_covariance_4,orientation_covariance_5,orientation_covariance_6,orientation_covariance_7,orientation_covariance_8,angular_velocity_x,angular_velocity_y,angular_velocity_z,angular_velocity_covariance_0,angular_velocity_covariance_1,angular_velocity_covariance_2,angular_velocity_covariance_3,angular_velocity_covariance_4,angular_velocity_covariance_5,angular_velocity_covariance_6,angular_velocity_covariance_7,angular_velocity_covariance_8,linear_acceleration_x,linear_acceleration_y,linear_acceleration_z,linear_acceleration_covariance_0,linear_acceleration_covariance_1,linear_acceleration_covariance_2,linear_acceleration_covariance_3,linear_acceleration_covariance_4,linear_acceleration_covariance_5,linear_acceleration_covariance_6,linear_acceleration_covariance_7,linear_acceleration_covariance_8
2025/05/14 12:38:24.508589795,1747219104,507550476,mA1/imu,0.7079783127018672,0.706233571029813,0.0002322395111708432,0.0008932855672209665,0.0,0.0,0.0,0.0,0.0,0.0,0.0,0.0,0.0,0.000893919239029747,-0.0004069011775065024,-0.0005749764870629552,0.0,0.0,0.0,0.0,0.0,0.0,0.0,0.0,0.0,0.006290032286129589,-0.5819925519933191,9.80923299181659,0.0,0.0,0.0,0.0,0.0,0.0,0.0,0.0,0.0
2025/05/14 12:38:24.566658812,1747219104,559078090,mA1/imu,0.7079683357162364,0.7062435623330494,0.00023116431022709175,0.0009015815927311228,0.0,0.0,0.0,0.0,0.0,0.0,0.0,0.0,0.0,-0.0006818080959701642,-0.00018031955338912236,-0.0005587148653285026,0.0,0.0,0.0,0.0,0.0,0.0,0.0,0.0,0.0,0.006757782916644707,-0.062462970044709916,9.80982955889415,0.0,0.0,0.0,0.0,0.0,0.0,0.0,0.0,0.0
2025/05/14 12:38:24.608316891,1747219104,602442671,mA1/imu,0.7079558789798703,0.7062560477864176,0.00022397479662663553,0.0009045541659767457,0.0,0.0,0.0,0.0,0.0,0.0,0.0,0.0,0.0,-0.0007679526112575623,-0.00042597428073098807,-0.0008655594920992542,0.0,0.0,0.0,0.0,0.0,0.0,0.0,0.0,0.0,0.02672829064469192,-0.06676127631701213,9.812792442949137,0.0,0.0,0.0,0.0,0.0,0.0,0.0,0.0,0.0
2025/05/14 12:38:24.662111435,1747219104,657268017,mA1/imu,0.7079372033676196,0.7062747613213392,0.00021039900226944218,0.0009128750073785405,0.0,0.0,0.0,0.0,0.0,0.0,0.0,0.0,0.0,-0.0009353082746908579,-0.0006279094216967365,-0.001135351881482118,0.0,0.0,0.0,0.0,0.0,0.0,0.0,0.0,0.0,0.005146057642649616,0.5494690932563311,9.812045838229178,0.0,0.0,0.0,0.0,0.0,0.0,0.0,0.0,0.0
2025/05/14 12:38:24.711088130,1747219104,707739246,mA1/imu,0.7079174369048832,0.7062945709607656,0.00019942978606587688,0.0009174884898083243,0.0,0.0,0.0,0.0,0.0,0.0,0.0,0.0,0.0,0.0006574980228308148,-0.00030646673944458074,-0.0011093570466072743,0.0,0.0,0.0,0.0,0.0,0.0,0.0,0.0,0.0,0.004809727117339422,0.03112737558389633,9.808515279501197,0.0,0.0,0.0,0.0,0.0,0.0,0.0,0.0,0.0
2025/05/14 12:38:24.759634561,1747219104,754074199,mA1/imu,0.7078981287392252,0.7063139171721171,0.0001998761859632488,0.0009218383770120613,0.0,0.0,0.0,0.0,0.0,0.0,0.0,0.0,0.0,0.0007782409387538752,1.898771201931895e-05,-0.0010820271183421633,0.0,0.0,0.0,0.0,0.0,0.0,0.0,0.0,0.0,0.004959446893364176,0.039889337064237015,9.808826981369922,0.0,0.0,0.0,0.0,0.0,0.0,0.0,0.0,0.0
2025/05/14 12:38:24.807828849,1747219104,804139117,mA1/imu,0.7078792602046214,0.7063328264413836,0.0002059243996384923,0.0009213352408039429,0.0,0.0,0.0,0.0,0.0,0.0,0.0,0.0,0.0,0.0009167279370230986,0.00022137171191753666,-0.0010634810508738327,0.0,0.0,0.0,0.0,0.0,0.0,0.0,0.0,0.0,0.014319430363478047,-0.579330254042404,9.809199564029306,0.0,0.0,0.0,0.0,0.0,0.0,0.0,0.0,0.0
2025/05/14 12:38:24.869656208,1747219104,864478653,mA1/imu,0.7078604811822511,0.7063516469750138,0.00021316145801425094,0.0009189985365631666,0.0,0.0,0.0,0.0,0.0,0.0,0.0,0.0,0.0,-0.0005562542772365863,0.00028421379223760886,-0.0010691675215685173,0.0,0.0,0.0,0.0,0.0,0.0,0.0,0.0,0.0,0.014306672523711974,-0.08167421937735185,9.809870339308379,0.0,0.0,0.0,0.0,0.0,0.0,0.0,0.0,0.0
2025/05/14 12:38:24.912198656,1747219104,904184796,mA1/imu,0.7078407609380849,0.7063714221817471,0.00021705107883395662,0.0009077270284415231,0.0,0.0,0.0,0.0,0.0,0.0,0.0,0.0,0.0,-0.0007128469430894597,0.0005615243319047679,-0.0011654211446748505,0.0,0.0,0.0,0.0,0.0,0.0,0.0,0.0,0.0,0.00634698853797064,-0.07036173429616337,9.811574262921729,0.0,0.0,0.0,0.0,0.0,0.0,0.0,0.0,0.0
2025/05/14 12:38:24.959630463,1747219104,956105065,mA1/imu,0.707818965712856,0.7063932793068717,0.0002266323587006529,0.000891832406211449,0.0,0.0,0.0,0.0,0.0,0.0,0.0,0.0,0.0,-0.0009143776715796277,0.0008500425180734145,-0.001262397128123779,0.0,0.0,0.0,0.0,0.0,0.0,0.0,0.0,0.0,0.006078495394248755,0.5495378194598144,9.812014041978852,0.0,0.0,0.0,0.0,0.0,0.0,0.0,0.0,0.0
2025/05/14 12:38:25.10956935,1747219105,8789080,mA1/imu,0.7077980650889864,0.706414242324094,0.00023986641192325813,0.00087164331450787,0.0,0.0,0.0,0.0,0.0,0.0,0.0,0.0,0.0,0.0006868219077374972,0.0010164365732212135,-0.0011039075138739693,0.0,0.0,0.0,0.0,0.0,0.0,0.0,0.0,0.0,0.007113055182223961,0.036803555242206784,9.807369331575648,0.0,0.0,0.0,0.0,0.0,0.0,0.0,0.0,0.0
2025/05/14 12:38:25.64930117,1747219105,57553286,mA1/imu,0.7077802614027869,0.7064320946198525,0.0002608129552786045,0.0008539532849123864,0.0,0.0,0.0,0.0,0.0,0.0,0.0,0.0,0.0,0.0008199080959281265,0.0011160927535692972,-0.0009617633836090185,0.0,0.0,0.0,0.0,0.0,0.0,0.0,0.0,0.0,0.006992688876683142,0.03879590434247533,9.809201861144729,0.0,0.0,0.0,0.0,0.0,0.0,0.0,0.0,0.0
2025/05/14 12:38:25.106441156,1747219105,102489498,mA1/imu,0.7077635033122528,0.7064488986190909,0.00028267651933368244,0.0008349329467459356,0.0,0.0,0.0,0.0,0.0,0.0,0.0,0.0,0.0,0.0009861491281648587,0.0011642302167007407,-0.0009406389762513879,0.0,0.0,0.0,0.0,0.0,0.0,0.0,0.0,0.0,0.006704922661934879,-0.5792525150936803,9.809499298494364,0.0,0.0,0.0,0.0,0.0,0.0,0.0,0.0,0.0
2025/05/14 12:38:25.159651135,1747219105,155928719,mA1/imu,0.7077470744323854,0.7064653694552959,0.0003058704595902629,0.0008166003022153491,0.0,0.0,0.0,0.0,0.0,0.0,0.0,0.0,0.0,-0.0006248957595791546,0.0011617160117254827,-0.0009224886567284851,0.0,0.0,0.0,0.0,0.0,0.0,0.0,0.0,0.0,0.007601643213058923,-0.061359750991022255,9.810045886626257,0.0,0.0,0.0,0.0,0.0,0.0,0.0,0.0,0.0
2025/05/14 12:38:25.213228804,1747219105,209672150,mA1/imu,0.7077309777981061,0.7064815127983536,0.00032300276215204213,0.0007942344125512091,0.0,0.0,0.0,0.0,0.0,0.0,0.0,0.0,0.0,-0.0007654103204403604,0.001087687813009396,-0.0009039380181137133,0.0,0.0,0.0,0.0,0.0,0.0,0.0,0.0,0.0,0.0069667724707117625,-0.06688664997871913,9.811212889027594,0.0,0.0,0.0,0.0,0.0,0.0,0.0,0.0,0.0
2025/05/14 12:38:25.262725797,1747219105,256656158,mA1/imu,0.7077152046428908,0.7064973289061236,0.0003379147811158845,0.0007740667829469138,0.0,0.0,0.0,0.0,0.0,0.0,0.0,0.0,0.0,-0.0009413035232633725,0.0009364874891219095,-0.0008855534341483233,0.0,0.0,0.0,0.0,0.0,0.0,0.0,0.0,0.0,0.007784628227541033,0.5489160026036807,9.812224621490165,0.0,0.0,0.0,0.0,0.0,0.0,0.0,0.0,0.0
2025/05/14 12:38:25.308621563,1747219105,307027541,mA1/imu,0.7076995653461313,0.7065130069789463,0.00034717159373454245,0.0007587162504399097,0.0,0.0,0.0,0.0,0.0,0.0,0.0,0.0,0.0,0.0006586894365259702,0.0005089257326339266,-0.000884389557488787,0.0,0.0,0.0,0.0,0.0,0.0,0.0,0.0,0.0,0.01698818553227735,0.03555429183588272,9.807594820756346,0.0,0.0,0.0,0.0,0.0,0.0,0.0,0.0,0.0
2025/05/14 12:38:25.365257555,1747219105,361004832,mA1/imu,0.7076855294545271,0.7065270668572406,0.0003562788712787746,0.0007538329626538789,0.0,0.0,0.0,0.0,0.0,0.0,0.0,0.0,0.0,0.0007920209548862358,0.0002990704082884275,-0.0007529480615925982,0.0,0.0,0.0,0.0,0.0,0.0,0.0,0.0,0.0,0.007044039309257024,0.03906089481357049,9.809312811840858,0.0,0.0,0.0,0.0,0.0,0.0,0.0,0.0,0.0
2025/05/14 12:38:25.403809738,1747219105,400748913,mA1/imu,0.7076723636709203,0.7065402510165144,0.00036130922922906057,0.0007542185189779638,0.0,0.0,0.0,0.0,0.0,0.0,0.0,0.0,0.0,0.0009166689643752284,-6.0133214811410855e-05,-0.0007460994558441803,0.0,0.0,0.0,0.0,0.0,0.0,0.0,0.0,0.0,0.017054217175249898,-0.5793796738573881,9.809964828411925,0.0,0.0,0.0,0.0,0.0,0.0,0.0,0.0,0.0
2025/05/14 12:38:25.453571158,1747219105,452649833,mA1/imu,0.7076590401036984,0.7065535878053427,0.0003582440677183383,0.0007630072726488377,0.0,0.0,0.0,0.0,0.0,0.0,0.0,0.0,0.0,-0.0006306486015404074,-0.0005316899119198808,-0.0007666021060569265,0.0,0.0,0.0,0.0,0.0,0.0,0.0,0.0,0.0,0.016388718039118975,-0.06086208255104831,9.810370472277299,0.0,0.0,0.0,0.0,0.0,0.0,0.0,0.0,0.0
2025/05/14 12:38:25.506572072,1747219105,504419700,mA1/imu,0.7076456190677405,0.7065670265647307,0.00034343960749463095,0.0007725509341604069,0.0,0.0,0.0,0.0,0.0,0.0,0.0,0.0,0.0,-0.0007650921916143493,-0.0007358620137007031,-0.0007524774219025022,0.0,0.0,0.0,0.0,0.0,0.0,0.0,0.0,0.0,0.0063518866610621245,-0.06803068707233574,9.811225861309616,0.0,0.0,0.0,0.0,0.0,0.0,0.0,0.0,0.0
2025/05/14 12:38:25.560346936,1747219105,558000012,mA1/imu,0.7076325378011199,0.7065801227219496,0.00032645478621752365,0.0007842491018655743,0.0,0.0,0.0,0.0,0.0,0.0,0.0,0.0,0.0,-0.0009427485440390719,-0.000839912070912475,-0.0007336337789665816,0.0,0.0,0.0,0.0,0.0,0.0,0.0,0.0,0.0,0.00650413368455098,0.5482308748657766,9.81211382359188,0.0,0.0,0.0,0.0,0.0,0.0,0.0,0.0,0.0
2025/05/14 12:38:25.610580597,1747219105,608899932,mA1/imu,0.707620136256781,0.7065925356380223,0.000306578717075212,0.0007983445717627872,0.0,0.0,0.0,0.0,0.0,0.0,0.0,0.0,0.0,0.0006417725381623311,-0.0010437395554325902,-0.0006719596325337568,0.0,0.0,0.0,0.0,0.0,0.0,0.0,0.0,0.0,0.012436823304370266,0.033247423953409044,9.807379977968681,0.0,0.0,0.0,0.0,0.0,0.0,0.0,0.0,0.0
2025/05/14 12:38:25.652519326,1747219105,650626627,mA1/imu,0.7076088474603874,0.7066038216847316,0.0002892158472268792,0.0008212980626708003,0.0,0.0,0.0,0.0,0.0,0.0,0.0,0.0,0.0,0.0007438998402877352,-0.0011697093165327554,-0.0006159087388036494,0.0,0.0,0.0,0.0,0.0,0.0,0.0,0.0,0.0,0.004452377712775454,0.037657095803623405,9.808989460981067,0.0,0.0,0.0,0.0,0.0,0.0,0.0,0.0,0.0
2025/05/14 12:38:25.702187225,1747219105,701697021,mA1/imu,0.7075952311315813,0.7066174336838231,0.00027028598525139446,0.0008474900696880016,0.0,0.0,0.0,0.0,0.0,0.0,0.0,0.0,0.0,0.0008426655446151923,-0.0014191704301420901,-0.0009291816294797695,0.0,0.0,0.0,0.0,0.0,0.0,0.0,0.0,0.0,0.01869913485221031,-0.5874839073513927,9.809000622694514,0.0,0.0,0.0,0.0,0.0,0.0,0.0,0.0,0.0
2025/05/14 12:38:25.756554152,1747219105,754915585,mA1/imu,0.7075760287470775,0.7066366334852412,0.00025006651240965243,0.0008770552430620278,0.0,0.0,0.0,0.0,0.0,0.0,0.0,0.0,0.0,-0.0007450213701566006,-0.001364405437979607,-0.0011241650776516996,0.0,0.0,0.0,0.0,0.0,0.0,0.0,0.0,0.0,0.007709989061466723,-0.06319307502477406,9.809560484093625,0.0,0.0,0.0,0.0,0.0,0.0,0.0,0.0,0.0
2025/05/14 12:38:25.807417636,1747219105,805431886,mA1/imu,0.7075561497904578,0.7066565193571164,0.0002278618797036354,0.0008981217916574928,0.0,0.0,0.0,0.0,0.0,0.0,0.0,0.0,0.0,-0.0008822110190751087,-0.0010994876682131852,-0.0011179637785262218,0.0,0.0,0.0,0.0,0.0,0.0,0.0,0.0,0.0,0.004269482330442251,-0.06857070417828429,9.8107208818357,0.0,0.0,0.0,0.0,0.0,0.0,0.0,0.0,0.0
2025/05/14 12:38:25.858967655,1747219105,856860461,mA1/imu,0.7075366294410431,0.706676049355901,0.00021112414643137162,0.0009136150934064612,0.0,0.0,0.0,0.0,0.0,0.0,0.0,0.0,0.0,-0.0010542787892314795,-0.0007665769272259906,-0.0010973896612030336,0.0,0.0,0.0,0.0,0.0,0.0,0.0,0.0,0.0,0.004612068653840654,0.5475993202789071,9.81164039597482,0.0,0.0,0.0,0.0,0.0,0.0,0.0,0.0,0.0
2025/05/14 12:38:25.908508091,1747219105,906786797,mA1/imu,0.7075176128191067,0.7066950801424705,0.0002000276626133582,0.0009226278307045176,0.0,0.0,0.0,0.0,0.0,0.0,0.0,0.0,0.0,0.000543555468954727,-0.0004566143088764529,-0.0010502956804390663,0.0,0.0,0.0,0.0,0.0,0.0,0.0,0.0,0.0,0.010577536417740823,0.03321961361052165,9.806947263640565,0.0,0.0,0.0,0.0,0.0,0.0,0.0,0.0,0.0
2025/05/14 12:38:25.954413954,1747219105,952420798,mA1/imu,0.7074998373351873,0.7067128653165052,0.00020104575538035035,0.0009304554921261568,0.0,0.0,0.0,0.0,0.0,0.0,0.0,0.0,0.0,0.0006576141470902151,7.080861705150201e-07,-0.0009677820222801181,0.0,0.0,0.0,0.0,0.0,0.0,0.0,0.0,0.0,0.0005416385061803083,0.03794087774256359,9.808654453051757,0.0,0.0,0.0,0.0,0.0,0.0,0.0,0.0,0.0
2025/05/14 12:38:26.3646198,1747219106,2105401,mA1/imu,0.707483713263981,0.7067290046753358,0.00021135052085413788,0.0009299181553335624,0.0,0.0,0.0,0.0,0.0,0.0,0.0,0.0,0.0,0.000799496522803521,0.0004706611586507518,-0.000888313137234348,0.0,0.0,0.0,0.0,0.0,0.0,0.0,0.0,0.0,0.003907209237248328,-0.5830442841648233,9.809176772216896,0.0,0.0,0.0,0.0,0.0,0.0,0.0,0.0,0.0
2025/05/14 12:38:26.61214480,1747219106,55208229,mA1/imu,0.7074683521862316,0.706744385657129,0.00022889322047940766,0.0009228244247938531,0.0,0.0,0.0,0.0,0.0,0.0,0.0,0.0,0.0,-0.000765953194286578,0.0008296620925675439,-0.0008562576181598391,0.0,0.0,0.0,0.0,0.0,0.0,0.0,0.0,0.0,0.004919983093067277,-0.063419366061994,9.809667254734135,0.0,0.0,0.0,0.0,0.0,0.0,0.0,0.0,0.0
2025/05/14 12:38:26.108878025,1747219106,105674450,mA1/imu,0.7074543964506657,0.7067583754607999,0.00024783682348956596,0.0009023500120113082,0.0,0.0,0.0,0.0,0.0,0.0,0.0,0.0,0.0,-0.0008300589435032178,0.001467645271063528,-0.0006604641138888375,0.0,0.0,0.0,0.0,0.0,0.0,0.0,0.0,0.0,-0.019647567777067013,-0.06534258076268529,9.812731082581637,0.0,0.0,0.0,0.0,0.0,0.0,0.0,0.0,0.0
2025/05/14 12:38:26.158999086,1747219106,157352881,mA1/imu,0.707443369835955,0.7067694412519772,0.000274487971790995,0.0008718049492789646,0.0,0.0,0.0,0.0,0.0,0.0,0.0,0.0,0.0,-0.0009621399541758184,0.0016974738149622792,-0.0006135023966845558,0.0,0.0,0.0,0.0,0.0,0.0,0.0,0.0,0.0,0.0055231450083569455,0.5486178583280806,9.81178098779744,0.0,0.0,0.0,0.0,0.0,0.0,0.0,0.0,0.0
2025/05/14 12:38:26.209096399,1747219106,207296597,mA1/imu,0.7074327024095367,0.7067801482479426,0.00030248451202748654,0.0008379184185422911,0.0,0.0,0.0,0.0,0.0,0.0,0.0,0.0,0.0,0.0006524470664743843,0.0017788304897256861,-0.0005960612541764346,0.0,0.0,0.0,0.0,0.0,0.0,0.0,0.0,0.0,0.005207939067934328,0.030429151167354014,9.80854420039419,0.0,0.0,0.0,0.0,0.0,0.0,0.0,0.0,0.0
2025/05/14 12:38:26.262031648,1747219106,260993056,mA1/imu,0.7074223295835392,0.7067905492314631,0.0003359408096443922,0.0008088680099838304,0.0,0.0,0.0,0.0,0.0,0.0,0.0,0.0,0.0,0.0007996946114887462,0.0017441328549215808,-0.0005793873363682855,0.0,0.0,0.0,0.0,0.0,0.0,0.0,0.0,0.0,0.005964758874804489,0.03922769237414087,9.808936462238018,0.0,0.0,0.0,0.0,0.0,0.0,0.0,0.0,0.0
2025/05/14 12:38:26.311278038,1747219106,309416430,mA1/imu,0.7074123367979727,0.7068005658197816,0.00036748238154450853,0.0007815750556433979,0.0,0.0,0.0,0.0,0.0,0.0,0.0,0.0,0.0,0.0009662172393433696,0.001583412156275156,-0.0005551608208451984,0.0,0.0,0.0,0.0,0.0,0.0,0.0,0.0,0.0,0.007279194277784443,-0.5816084038570275,9.80947791820407,0.0,0.0,0.0,0.0,0.0,0.0,0.0,0.0,0.0
2025/05/14 12:38:26.356319283,1747219106,351461631,mA1/imu,0.7074027660703976,0.7068101553992076,0.0003952716591001393,0.0007579847054473263,0.0,0.0,0.0,0.0,0.0,0.0,0.0,0.0,0.0,-0.0005816787192540307,0.001345102500364941,-0.0005316298820715948,0.0,0.0,0.0,0.0,0.0,0.0,0.0,0.0,0.0,0.008160980960487726,-0.062096214508953335,9.80993752513242,0.0,0.0,0.0,0.0,0.0,0.0,0.0,0.0,0.0
2025/05/14 12:38:26.403945560,1747219106,402793630,mA1/imu,0.7073934391901189,0.7068195063114475,0.00041171055355317425,0.000733609458216372,0.0,0.0,0.0,0.0,0.0,0.0,0.0,0.0,0.0,-0.0006638167168194044,0.001011244168671934,-0.0005422141688963139,0.0,0.0,0.0,0.0,0.0,0.0,0.0,0.0,0.0,0.01049928915485919,-0.06594115075149141,9.81159194182643,0.0,0.0,0.0,0.0,0.0,0.0,0.0,0.0,0.0
2025/05/14 12:38:26.454862312,1747219106,453853375,mA1/imu,0.7073833430175914,0.7068296240226931,0.00041965128929694246,0.0007159036181405628,0.0,0.0,0.0,0.0,0.0,0.0,0.0,0.0,0.0,-0.0007952912664520609,0.0005496601734085953,-0.0005930317771467252,0.0,0.0,0.0,0.0,0.0,0.0,0.0,0.0,0.0,0.011230335958595485,0.5498023018796573,9.812564629233025,0.0,0.0,0.0,0.0,0.0,0.0,0.0,0.0,0.0
2025/05/14 12:38:26.505914075,1747219106,504962260,mA1/imu,0.7073723626799273,0.7068406238785025,0.0004184008618495884,0.0007056148989118768,0.0,0.0,0.0,0.0,0.0,0.0,0.0,0.0,0.0,0.0008008435097291943,8.703362380364538e-05,-0.0006233493771789357,0.0,0.0,0.0,0.0,0.0,0.0,0.0,0.0,0.0,0.007363831875096033,0.029573660195667206,9.808781556145107,0.0,0.0,0.0,0.0,0.0,0.0,0.0,0.0,0.0
2025/05/14 12:38:26.558884637,1747219106,557854863,mA1/imu,0.7073615709605284,0.706851422615506,0.0004157516425058068,0.0007081138753567425,0.0,0.0,0.0,0.0,0.0,0.0,0.0,0.0,0.0,0.0009131280046276516,-0.00030021584916622887,-0.0006021073578509461,0.0,0.0,0.0,0.0,0.0,0.0,0.0,0.0,0.0,0.0069291862248988985,0.038404284205115546,9.809116964208059,0.0,0.0,0.0,0.0,0.0,0.0,0.0,0.0,0.0
2025/05/14 12:38:26.610393998,1747219106,607604045,mA1/imu,0.7073511660316696,0.7068618301596172,0.0004073123000732431,0.000717686368677655,0.0,0.0,0.0,0.0,0.0,0.0,0.0,0.0,0.0,0.0010351351587322211,-0.000659746020626673,-0.0005806462586494315,0.0,0.0,0.0,0.0,0.0,0.0,0.0,0.0,0.0,0.007366548318068521,-0.5832624032234732,9.809609430866798,0.0,0.0,0.0,0.0,0.0,0.0,0.0,0.0,0.0
2025/05/14 12:38:26.660511062,1747219106,658659731,mA1/imu,0.7073411357498177,0.7068718582980562,0.00039393186642203864,0.000733784774398589,0.0,0.0,0.0,0.0,0.0,0.0,0.0,0.0,0.0,-0.000559720508590673,-0.0009532605050039055,-0.000559772994547701,0.0,0.0,0.0,0.0,0.0,0.0,0.0,0.0,0.0,0.007324037833713616,-0.06369046210959407,9.80997745023333,0.0,0.0,0.0,0.0,0.0,0.0,0.0,0.0,0.0
2025/05/14 12:38:26.712151543,1747219106,708680340,mA1/imu,0.7073314381699235,0.7068815579493063,0.000370693029866378,0.0007497961768519314,0.0,0.0,0.0,0.0,0.0,0.0,0.0,0.0,0.0,-0.0007154785757358284,-0.0011989870007825048,-0.0005441130459360097,0.0,0.0,0.0,0.0,0.0,0.0,0.0,0.0,0.0,0.0069158499577776315,-0.06960244299610033,9.81104720979129,0.0,0.0,0.0,0.0,0.0,0.0,0.0,0.0,0.0
2025/05/14 12:38:26.761376138,1747219106,760152298,mA1/imu,0.7073219253597083,0.7068910689449993,0.0003436396996287698,0.0007697161738320083,0.0,0.0,0.0,0.0,0.0,0.0,0.0,0.0,0.0,-0.000889496919625595,-0.0013895968924962777,-0.0005367420508029705,0.0,0.0,0.0,0.0,0.0,0.0,0.0,0.0,0.0,0.007074330628907399,0.547312976314869,9.811980226304902,0.0,0.0,0.0,0.0,0.0,0.0,0.0,0.0,0.0
2025/05/14 12:38:26.806509862,1747219106,799948032,mA1/imu,0.7073098078443042,0.706903179682392,0.00030989359306533544,0.0007963969727957875,0.0,0.0,0.0,0.0,0.0,0.0,0.0,0.0,0.0,0.0006555717887499402,-0.001967970447023677,-0.0008370949932771663,0.0,0.0,0.0,0.0,0.0,0.0,0.0,0.0,0.0,0.023738964492905426,0.029605193026718837,9.808185603745656,0.0,0.0,0.0,0.0,0.0,0.0,0.0,0.0,0.0
2025/05/14 12:38:26.853033763,1747219106,851129074,mA1/imu,0.7072910594553097,0.7069219046541663,0.00027217318156681146,0.0008389615431711964,0.0,0.0,0.0,0.0,0.0,0.0,0.0,0.0,0.0,0.0007595488195388322,-0.0023708736860581043,-0.0011470266728801743,0.0,0.0,0.0,0.0,0.0,0.0,0.0,0.0,0.0,0.003285867142381953,0.03857280867752058,9.808966149548704,0.0,0.0,0.0,0.0,0.0,0.0,0.0,0.0,0.0
2025/05/14 12:38:26.905221854,1747219106,902620841,mA1/imu,0.7072740307541798,0.7069389066095528,0.00023943884625081174,0.0008777308610003376,0.0,0.0,0.0,0.0,0.0,0.0,0.0,0.0,0.0,0.0008962067630217109,-0.0017615648492453528,-0.000786523774542907,0.0,0.0,0.0,0.0,0.0,0.0,0.0,0.0,0.0,-0.008362994507166328,-0.5819775539940337,9.809082179021024,0.0,0.0,0.0,0.0,0.0,0.0,0.0,0.0,0.0
2025/05/14 12:38:26.955366840,1747219106,953853637,mA1/imu,0.7072610652186043,0.7069518469268168,0.00021677997059760506,0.0009081624589799217,0.0,0.0,0.0,0.0,0.0,0.0,0.0,0.0,0.0,-0.0007056459751443548,-0.0013213327986932382,-0.0006937158126917169,0.0,0.0,0.0,0.0,0.0,0.0,0.0,0.0,0.0,0.0010133322290167713,-0.06506262878881552,9.809613362972941,0.0,0.0,0.0,0.0,0.0,0.0,0.0,0.0,0.0
2025/05/14 12:38:27.9066199,1747219107,7521596,mA1/imu,0.7072495472744192,0.7069633533466659,0.0001973198228561028,0.0009251863885866593,0.0,0.0,0.0,0.0,0.0,0.0,0.0,0.0,0.0,-0.000842844221971161,-0.0007705412735317736,-0.0006217552118812028,0.0,0.0,0.0,0.0,0.0,0.0,0.0,0.0,0.0,-0.0066746906617029395,-0.07065519868078343,9.811579116437128,0.0,0.0,0.0,0.0,0.0,0.0,0.0,0.0,0.0
2025/05/14 12:38:27.61483204,1747219107,59582546,mA1/imu,0.7072390762217734,0.7069738238711633,0.0001900558300092006,0.000930217576552357,0.0,0.0,0.0,0.0,0.0,0.0,0.0,0.0,0.0,-0.001024335195291633,-3.408087452787871e-05,-0.0005696439717019528,0.0,0.0,0.0,0.0,0.0,0.0,0.0,0.0,0.0,-0.00512015775792252,0.5464436220734847,9.812385447087275,0.0,0.0,0.0,0.0,0.0,0.0,0.0,0.0,0.0
2025/05/14 12:38:27.117563884,1747219107,111097141,mA1/imu,0.7072294460903041,0.7069834645149158,0.00019286874157797607,0.0009242764397779171,0.0,0.0,0.0,0.0,0.0,0.0,0.0,0.0,0.0,0.0005630601790286083,0.0003962068694261118,-0.0005375566206219121,0.0,0.0,0.0,0.0,0.0,0.0,0.0,0.0,0.0,0.004435515296539514,0.031211436916569427,9.80830633108667,0.0,0.0,0.0,0.0,0.0,0.0,0.0,0.0,0.0
2025/05/14 12:38:27.154856835,1747219107,153730366,mA1/imu,0.7072201117576886,0.7069928063697554,0.00020739751666414664,0.0009177434990029841,0.0,0.0,0.0,0.0,0.0,0.0,0.0,0.0,0.0,0.0006898174082582317,0.0007200277200056133,-0.0005209749248781139,0.0,0.0,0.0,0.0,0.0,0.0,0.0,0.0,0.0,0.004936940445916545,0.03978724151396743,9.808611021195174,0.0,0.0,0.0,0.0,0.0,0.0,0.0,0.0,0.0
2025/05/14 12:38:27.205500845,1747219107,203154391,mA1/imu,0.707211068996886,0.7070018606654277,0.00022752032622676635,0.0009061668752487954,0.0,0.0,0.0,0.0,0.0,0.0,0.0,0.0,0.0,0.0008366427712936426,0.0009914484694929756,-0.0005046944467271356,0.0,0.0,0.0,0.0,0.0,0.0,0.0,0.0,0.0,0.0055737429846961836,-0.5813411399693513,9.80913479218795,0.0,0.0,0.0,0.0,0.0,0.0,0.0,0.0,0.0
2025/05/14 12:38:27.259717553,1747219107,256445034,mA1/imu,0.7072023162710563,0.7070106272330755,0.0002520707590336657,0.0008906742829534059,0.0,0.0,0.0,0.0,0.0,0.0,0.0,0.0,0.0,-0.0007247071445526113,0.0012063724432864898,-0.00048818471933042765,0.0,0.0,0.0,0.0,0.0,0.0,0.0,0.0,0.0,0.006557849703637243,-0.06185650659695266,9.809575200230102,0.0,0.0,0.0,0.0,0.0,0.0,0.0,0.0,0.0
2025/05/14 12:38:27.308580417,1747219107,306754421,mA1/imu,0.7071929516844206,0.7070200153031608,0.00027278560024542216,0.0008675463165036129,0.0,0.0,0.0,0.0,0.0,0.0,0.0,0.0,0.0,-0.0008303740461183935,0.0012334513739598546,-0.0005759866100178708,0.0,0.0,0.0,0.0,0.0,0.0,0.0,0.0,0.0,0.011605973609321744,-0.06924110959099436,9.811499910931605,0.0,0.0,0.0,0.0,0.0,0.0,0.0,0.0,0.0
2025/05/14 12:38:27.360325971,1747219107,358737194,mA1/imu,0.7071836416283659,0.7070293495683206,0.0002947282069743308,0.0008420199074653735,0.0,0.0,0.0,0.0,0.0,0.0,0.0,0.0,0.0,-0.000975946727224573,0.0014113797079655023,-0.0005035736033672074,0.0,0.0,0.0,0.0,0.0,0.0,0.0,0.0,0.0,0.004171954447177075,0.5489996033260033,9.811679008146475,0.0,0.0,0.0,0.0,0.0,0.0,0.0,0.0,0.0
2025/05/14 12:38:27.410700621,1747219107,409099717,mA1/imu,0.7071729499716864,0.7070400637965523,0.00031450991392591203,0.0008173728792044161,0.0,0.0,0.0,0.0,0.0,0.0,0.0,0.0,0.0,0.0006132734407857214,0.0011775954618977742,-0.0006606203301306625,0.0,0.0,0.0,0.0,0.0,0.0,0.0,0.0,0.0,0.0066896489848247516,0.0303687583558906,9.808346681110663,0.0,0.0,0.0,0.0,0.0,0.0,0.0,0.0,0.0
2025/05/14 12:38:27.453761529,1747219107,450830468,mA1/imu,0.7071614941890723,0.7070515310975999,0.00033848319310522776,0.0007993359409991579,0.0,0.0,0.0,0.0,0.0,0.0,0.0,0.0,0.0,0.0007527149367552402,0.0011829090020058963,-0.0006382819203089463,0.0,0.0,0.0,0.0,0.0,0.0,0.0,0.0,0.0,0.0038078170043243415,0.039306472074435564,9.808946116719126,0.0,0.0,0.0,0.0,0.0,0.0,0.0,0.0,0.0
2025/05/14 12:38:27.508133218,1747219107,502622751,mA1/imu,0.7071501689183106,0.7070628655339012,0.0003618569297202312,0.0007822028865280137,0.0,0.0,0.0,0.0,0.0,0.0,0.0,0.0,0.0,0.0008967875102173103,0.0010678873416367395,-0.0006645388736970408,0.0,0.0,0.0,0.0,0.0,0.0,0.0,0.0,0.0,0.008819930485964949,-0.5849305411492287,9.809418414573823,0.0,0.0,0.0,0.0,0.0,0.0,0.0,0.0,0.0
2025/05/14 12:38:27.555439128,1747219107,554344468,mA1/imu,0.7071373154380408,0.7070757240068185,0.00038211845105291684,0.0007691689045100558,0.0,0.0,0.0,0.0,0.0,0.0,0.0,0.0,0.0,-0.0006766399277799991,0.0008388543359796876,-0.0007665561321330201,0.0,0.0,0.0,0.0,0.0,0.0,0.0,0.0,0.0,0.008662725185907173,-0.06532067685827583,9.809926497647439,0.0,0.0,0.0,0.0,0.0,0.0,0.0,0.0,0.0
2025/05/14 12:38:27.606505280,1747219107,604136861,mA1/imu,0.7071229942638322,0.7070900558663107,0.0003926646612771081,0.000754779963904992,0.0,0.0,0.0,0.0,0.0,0.0,0.0,0.0,0.0,-0.0007921491602343709,0.0006512615149133457,-0.0008226221991422256,0.0,0.0,0.0,0.0,0.0,0.0,0.0,0.0,0.0,0.003106873565453144,-0.06848520837875265,9.811564271237117,0.0,0.0,0.0,0.0,0.0,0.0,0.0,0.0,0.0
2025/05/14 12:38:27.654557398,1747219107,651398549,mA1/imu,0.7071087760814567,0.7071042832000544,0.00040071451851314067,0.0007422240875911816,0.0,0.0,0.0,0.0,0.0,0.0,0.0,0.0,0.0,-0.0009709168298337073,0.0005470719366244089,-0.000792009007470667,0.0,0.0,0.0,0.0,0.0,0.0,0.0,0.0,0.0,0.002170243103904016,0.5455017155256965,9.81217632188267,0.0,0.0,0.0,0.0,0.0,0.0,0.0,0.0,0.0
2025/05/14 12:38:27.701849679,1747219107,700999230,mA1/imu,0.7070951209495406,0.7071179471413578,0.0004067215199360791,0.0007302996313855521,0.0,0.0,0.0,0.0,0.0,0.0,0.0,0.0,0.0,0.0006569618988364724,0.0005657164352173509,-0.0007562692386632715,0.0,0.0,0.0,0.0,0.0,0.0,0.0,0.0,0.0,-0.009509650182812777,0.026548479055155675,9.807670270800985,0.0,0.0,0.0,0.0,0.0,0.0,0.0,0.0,0.0
2025/05/14 12:38:27.762600041,1747219107,756265395,mA1/imu,0.7070818283793951,0.7071312398678942,0.0004189735773273756,0.0007225231399968469,0.0,0.0,0.0,0.0,0.0,0.0,0.0,0.0,0.0,0.0007887027394183496,0.0005096143174277732,-0.0007929116315290469,0.0,0.0,0.0,0.0,0.0,0.0,0.0,0.0,0.0,-0.0001832273132737587,0.03622324132617387,9.808187604847,0.0,0.0,0.0,0.0,0.0,0.0,0.0,0.0,0.0
2025/05/14 12:38:27.807215361,1747219107,805446815,mA1/imu,0.7070675413795502,0.7071455248118843,0.0004285106115835758,0.0007176661192664472,0.0,0.0,0.0,0.0,0.0,0.0,0.0,0.0,0.0,0.0009522518556209391,0.00030363562970886504,-0.0007968840065155997,0.0,0.0,0.0,0.0,0.0,0.0,0.0,0.0,0.0,0.002974153440129369,-0.5817467994600256,9.809924667098088,0.0,0.0,0.0,0.0,0.0,0.0,0.0,0.0,0.0
2025/05/14 12:38:27.860775738,1747219107,858516629,mA1/imu,0.7070537353531035,0.7071593264432081,0.0004338629344550408,0.0007170150389009908,0.0,0.0,0.0,0.0,0.0,0.0,0.0,0.0,0.0,-0.000597986758598718,6.924864418880642e-05,-0.0007703099989613631,0.0,0.0,0.0,0.0,0.0,0.0,0.0,0.0,0.0,0.0034933629287075374,-0.06228581186702935,9.810445991333866,0.0,0.0,0.0,0.0,0.0,0.0,0.0,0.0,0.0
2025/05/14 12:38:27.916627167,1747219107,910317576,mA1/imu,0.7070407088850745,0.7071723562475357,0.0004286016870392238,0.0007147301542241155,0.0,0.0,0.0,0.0,0.0,0.0,0.0,0.0,0.0,-0.0006663231627415717,-0.00016985965224001765,-0.0006866434356113793,0.0,0.0,0.0,0.0,0.0,0.0,0.0,0.0,0.0,0.0024700022271615988,-0.06254857011340097,9.812298167340463,0.0,0.0,0.0,0.0,0.0,0.0,0.0,0.0,0.0
2025/05/14 12:38:27.958707201,1747219107,953174421,mA1/imu,0.7070304044056253,0.7071826642625373,0.000417043457893841,0.0007160218653547194,0.0,0.0,0.0,0.0,0.0,0.0,0.0,0.0,0.0,-0.0007717723201095219,-0.0004648743689676291,-0.0005324382643555579,0.0,0.0,0.0,0.0,0.0,0.0,0.0,0.0,0.0,0.004857351281846231,0.5484310774442992,9.8122998138665,0.0,0.0,0.0,0.0,0.0,0.0,0.0,0.0,0.0
2025/05/14 12:38:28.8770547,1747219108,6768810,mA1/imu,0.7070211730834465,0.7071918984436408,0.0003996775870044093,0.000721002921576884,0.0,0.0,0.0,0.0,0.0,0.0,0.0,0.0,0.0,0.0008295059146014569,-0.0007308520231550344,-0.0005165254561953286,0.0,0.0,0.0,0.0,0.0,0.0,0.0,0.0,0.0,0.004300618435359085,0.03066138491007358,9.808859316807931,0.0,0.0,0.0,0.0,0.0,0.0,0.0,0.0,0.0
2025/05/14 12:38:28.54580487,1747219108,51294536,mA1/imu,0.707012200781077,0.7072008622519859,0.00038369040795134686,0.0007356347032388423,0.0,0.0,0.0,0.0,0.0,0.0,0.0,0.0,0.0,0.0009525118816226275,-0.0009511162465765622,-0.0005021692069606475,0.0,0.0,0.0,0.0,0.0,0.0,0.0,0.0,0.0,0.00398255625940136,0.039556511283114576,9.809063501821452,0.0,0.0,0.0,0.0,0.0,0.0,0.0,0.0,0.0
2025/05/14 12:38:28.102069468,1747219108,101396227,mA1/imu,0.7070034204032166,0.7072096304833538,0.0003642867891888813,0.0007545759642279184,0.0,0.0,0.0,0.0,0.0,0.0,0.0,0.0,0.0,0.0010874901185797476,-0.0012442239708688298,-0.0004998092495918947,0.0,0.0,0.0,0.0,0.0,0.0,0.0,0.0,0.0,0.013852723178455938,-0.5789921761423846,9.809734517418223,0.0,0.0,0.0,0.0,0.0,0.0,0.0,0.0,0.0
2025/05/14 12:38:28.155250969,1747219108,152507490,mA1/imu,0.7069947008692845,0.7072183331275655,0.0003399732585409694,0.0007788768851148049,0.0,0.0,0.0,0.0,0.0,0.0,0.0,0.0,0.0,-0.000477894061090565,-0.0014083058461169516,-0.0004894728840508121,0.0,0.0,0.0,0.0,0.0,0.0,0.0,0.0,0.0,0.003925274207754377,-0.06256761778238763,9.809995334160881,0.0,0.0,0.0,0.0,0.0,0.0,0.0,0.0,0.0
2025/05/14 12:38:28.204231986,1747219108,203117943,mA1/imu,0.7069864661183158,0.7072265577201857,0.0003102717483853929,0.0007978171686407312,0.0,0.0,0.0,0.0,0.0,0.0,0.0,0.0,0.0,-0.0005987540847372137,-0.0012840829706853793,-0.0004242271430009863,0.0,0.0,0.0,0.0,0.0,0.0,0.0,0.0,0.0,-0.004380938075034607,-0.06493771948568301,9.811830986377524,0.0,0.0,0.0,0.0,0.0,0.0,0.0,0.0,0.0
2025/05/14 12:38:28.256969018,1747219108,254062015,mA1/imu,0.7069802961313097,0.7072327196826409,0.00028445918258417085,0.0008125117562938811,0.0,0.0,0.0,0.0,0.0,0.0,0.0,0.0,0.0,-0.000781530525525268,-0.0010524267185163046,-0.00031257723371358486,0.0,0.0,0.0,0.0,0.0,0.0,0.0,0.0,0.0,0.00399860669967313,0.5478938464185927,9.811808294147024,0.0,0.0,0.0,0.0,0.0,0.0,0.0,0.0,0.0
2025/05/14 12:38:28.306375380,1747219108,304916262,mA1/imu,0.7069749440957057,0.707238064630407,0.0002614440124478384,0.0008246246045581643,0.0,0.0,0.0,0.0,0.0,0.0,0.0,0.0,0.0,0.0007668879923992093,-0.000940127917525698,-0.0002971180652429524,0.0,0.0,0.0,0.0,0.0,0.0,0.0,0.0,0.0,0.0034696126543195234,0.030140388521156948,9.808338972153672,0.0,0.0,0.0,0.0,0.0,0.0,0.0,0.0,0.0
2025/05/14 12:38:28.358152920,1747219108,355915915,mA1/imu,0.7069698504319738,0.7072431426644119,0.00024747004409893226,0.0008405313416344517,0.0,0.0,0.0,0.0,0.0,0.0,0.0,0.0,0.0,0.0008405208042516406,-0.0007788063043312121,-0.00028240808697475894,0.0,0.0,0.0,0.0,0.0,0.0,0.0,0.0,0.0,0.003377008564756056,0.03906925971906634,9.808591260681785,0.0,0.0,0.0,0.0,0.0,0.0,0.0,0.0,0.0
2025/05/14 12:38:28.412161800,1747219108,408077146,mA1/imu,0.7069650137294885,0.7072479640830948,0.00023813471786640118,0.0008543738279533097,0.0,0.0,0.0,0.0,0.0,0.0,0.0,0.0,0.0,0.0009270955343551832,-0.0005825823578498506,-0.0002680740647040414,0.0,0.0,0.0,0.0,0.0,0.0,0.0,0.0,0.0,0.0037482176375297155,-0.5827878836115054,9.809086898004661,0.0,0.0,0.0,0.0,0.0,0.0,0.0,0.0,0.0
2025/05/14 12:38:28.452808154,1747219108,450435069,mA1/imu,0.7069604239144351,0.7072525396391548,0.00023405283874860974,0.0008656858301242197,0.0,0.0,0.0,0.0,0.0,0.0,0.0,0.0,0.0,-0.0006996055074979105,-0.0003446568270148693,-0.0002540588597315659,0.0,0.0,0.0,0.0,0.0,0.0,0.0,0.0,0.0,0.004228297728191626,-0.06329311689634452,9.809657600467332,0.0,0.0,0.0,0.0,0.0,0.0,0.0,0.0,0.0
2025/05/14 12:38:28.503172638,1747219108,500463264,mA1/imu,0.7069560774891974,0.7072568827733021,0.00022940018022695423,0.0008681281223305046,0.0,0.0,0.0,0.0,0.0,0.0,0.0,0.0,0.0,-0.0008619476242261482,-9.57796889653868e-05,-0.00024075471246218227,0.0,0.0,0.0,0.0,0.0,0.0,0.0,0.0,0.0,0.0037064573350256242,-0.06777552278498035,9.810761942753446,0.0,0.0,0.0,0.0,0.0,0.0,0.0,0.0,0.0
2025/05/14 12:38:28.556067268,1747219108,553262518,mA1/imu,0.7069519564645464,0.7072610037421804,0.00022933017473708768,0.0008667434594125604,0.0,0.0,0.0,0.0,0.0,0.0,0.0,0.0,0.0,-0.0010587529365134337,0.00013909987436573084,-0.000228104687548083,0.0,0.0,0.0,0.0,0.0,0.0,0.0,0.0,0.0,0.004387684359714511,0.548339719931023,9.8117318956873,0.0,0.0,0.0,0.0,0.0,0.0,0.0,0.0,0.0
2025/05/14 12:38:28.606482147,1747219108,603627345,mA1/imu,0.7069480746168232,0.7072648887523348,0.00023314066167345882,0.0008617303211143148,0.0,0.0,0.0,0.0,0.0,0.0,0.0,0.0,0.0,0.0004964218589957156,0.00032080765009750084,-0.00021387907761709655,0.0,0.0,0.0,0.0,0.0,0.0,0.0,0.0,0.0,0.005462462303563788,0.030695631340333582,9.808338522540547,0.0,0.0,0.0,0.0,0.0,0.0,0.0,0.0,0.0
2025/05/14 12:38:28.660628293,1747219108,655173370,mA1/imu,0.7069443698170447,0.7072685896312819,0.00024588664033548793,0.0008600259991264986,0.0,0.0,0.0,0.0,0.0,0.0,0.0,0.0,0.0,0.0005929495047584824,0.0004588652123273892,-0.00020655639947840589,0.0,0.0,0.0,0.0,0.0,0.0,0.0,0.0,0.0,0.005938426989428609,0.03973115036548654,9.808751273079585,0.0,0.0,0.0,0.0,0.0,0.0,0.0,0.0,0.0
2025/05/14 12:38:28.709887469,1747219108,707568842,mA1/imu,0.7069407580670086,0.7072721979240197,0.00026162494278302056,0.0008568429020859726,0.0,0.0,0.0,0.0,0.0,0.0,0.0,0.0,0.0,0.0007141658799672864,0.0005656824477562774,-0.00020169573649695506,0.0,0.0,0.0,0.0,0.0,0.0,0.0,0.0,0.0,0.006456956951217495,-0.5823351574650556,9.809314351054768,0.0,0.0,0.0,0.0,0.0,0.0,0.0,0.0,0.0
2025/05/14 12:38:28.766340544,1747219108,759715838,mA1/imu,0.7069372295912472,0.7072757228663545,0.00027962926416342935,0.0008526835301220096,0.0,0.0,0.0,0.0,0.0,0.0,0.0,0.0,0.0,-0.0008684945355420632,0.0006513520695309323,-0.0001970709484196331,0.0,0.0,0.0,0.0,0.0,0.0,0.0,0.0,0.0,0.007173498745034732,-0.06282751886489449,9.810002646674988,0.0,0.0,0.0,0.0,0.0,0.0,0.0,0.0,0.0
2025/05/14 12:38:28.807696607,1747219108,804209711,mA1/imu,0.7069337878372406,0.7072791702919053,0.0002929275452167992,0.0008420681317611407,0.0,0.0,0.0,0.0,0.0,0.0,0.0,0.0,0.0,-0.0009799453572299065,0.0006972895462540375,-0.00019261601558534473,0.0,0.0,0.0,0.0,0.0,0.0,0.0,0.0,0.0,0.006367704940312791,-0.06729726449396706,9.811162118593462,0.0,0.0,0.0,0.0,0.0,0.0,0.0,0.0,0.0
2025/05/14 12:38:28.864410492,1747219108,858098286,mA1/imu,0.7069304228305054,0.707282541607624,0.00030579592086031523,0.0008307241402866672,0.0,0.0,0.0,0.0,0.0,0.0,0.0,0.0,0.0,-0.0011206702815277432,0.0006867507386311444,-0.00018830579205103974,0.0,0.0,0.0,0.0,0.0,0.0,0.0,0.0,0.0,0.007128104355663159,0.5488055668322346,9.81218871414026,0.0,0.0,0.0,0.0,0.0,0.0,0.0,0.0,0.0
2025/05/14 12:38:28.913421852,1747219108,909537044,mA1/imu,0.7069271381039683,0.707285833246841,0.0003172356312302516,0.0008190616637152133,0.0,0.0,0.0,0.0,0.0,0.0,0.0,0.0,0.0,0.000491108725302921,0.0006329960643312985,-0.00018350917668513746,0.0,0.0,0.0,0.0,0.0,0.0,0.0,0.0,0.0,0.006818514735448988,0.030890033257004235,9.80879046542332,0.0,0.0,0.0,0.0,0.0,0.0,0.0,0.0,0.0
2025/05/14 12:38:28.957734694,1747219108,952253083,mA1/imu,0.7069239280399842,0.7072890407004429,0.00033258194143935863,0.0008137928597375036,0.0,0.0,0.0,0.0,0.0,0.0,0.0,0.0,0.0,0.0006415507272061172,0.0005408908486357125,-0.00017907837204612651,0.0,0.0,0.0,0.0,0.0,0.0,0.0,0.0,0.0,0.007025126697686758,0.03973857704764279,9.809175979888801,0.0,0.0,0.0,0.0,0.0,0.0,0.0,0.0,0.0
2025/05/14 12:38:29.4687861,1747219109,2191227,mA1/imu,0.7069237260430905,0.7072892446081277,0.00035131231934375787,0.0008041135938451703,0.0,0.0,0.0,0.0,0.0,0.0,0.0,0.0,0.0,0.0008381737720781937,0.0010151376445710018,0.00014885424414616042,0.0,0.0,0.0,0.0,0.0,0.0,0.0,0.0,0.0,-0.012457086568573215,-0.5821294502717798,9.80904376948525,0.0,0.0,0.0,0.0,0.0,0.0,0.0,0.0,0.0
2025/05/14 12:38:29.62439268,1747219109,54595093,mA1/imu,0.7069263804244922,0.7072865949712002,0.0003723781052284576,0.0007915608114547513,0.0,0.0,0.0,0.0,0.0,0.0,0.0,0.0,0.0,-0.0007003618336408964,0.0008881006745316305,0.00015209613846735407,0.0,0.0,0.0,0.0,0.0,0.0,0.0,0.0,0.0,0.007388819905350742,-0.06279995790134799,9.810242620980972,0.0,0.0,0.0,0.0,0.0,0.0,0.0,0.0,0.0
2025/05/14 12:38:29.114198450,1747219109,109725929,mA1/imu,0.7069290769725661,0.7072839109105977,0.00038403082512915803,0.0007758982218201444,0.0,0.0,0.0,0.0,0.0,0.0,0.0,0.0,0.0,-0.0007783184155639525,0.0006996081158984207,0.00015349757969597986,0.0,0.0,0.0,0.0,0.0,0.0,0.0,0.0,0.0,0.0065472508614001935,-0.06772276218557371,9.811296951668691,0.0,0.0,0.0,0.0,0.0,0.0,0.0,0.0,0.0
2025/05/14 12:38:29.153779135,1747219109,152172038,mA1/imu,0.7069318554297125,0.70728114405192,0.00039067226916930924,0.0007631660956595046,0.0,0.0,0.0,0.0,0.0,0.0,0.0,0.0,0.0,-0.0008977175939129181,0.0004612826168079155,0.00016062158787270096,0.0,0.0,0.0,0.0,0.0,0.0,0.0,0.0,0.0,0.00698057665581297,0.5482347643072603,9.812153282389753,0.0,0.0,0.0,0.0,0.0,0.0,0.0,0.0,0.0
2025/05/14 12:38:29.206277634,1747219109,204573328,mA1/imu,0.7069351967720483,0.7072778141514692,0.00039166081981534544,0.0007535089829075965,0.0,0.0,0.0,0.0,0.0,0.0,0.0,0.0,0.0,0.0007533338335038593,0.00019978795693052892,0.00024519147901185586,0.0,0.0,0.0,0.0,0.0,0.0,0.0,0.0,0.0,0.008180978091038685,0.03657551583666771,9.807250049615073,0.0,0.0,0.0,0.0,0.0,0.0,0.0,0.0,0.0
2025/05/14 12:38:29.258457299,1747219109,255690261,mA1/imu,0.7069406029740574,0.7072724109083133,0.00039246589338318844,0.0007527317854587642,0.0,0.0,0.0,0.0,0.0,0.0,0.0,0.0,0.0,0.0009270319042712426,-7.797332425171315e-05,0.0003176745203418179,0.0,0.0,0.0,0.0,0.0,0.0,0.0,0.0,0.0,0.0074336653574161035,0.03891002728679599,9.80893191243198,0.0,0.0,0.0,0.0,0.0,0.0,0.0,0.0,0.0
2025/05/14 12:38:29.310240204,1747219109,308442777,mA1/imu,0.7069453553994843,0.707267658186556,0.00038793223418598453,0.0007574107097268066,0.0,0.0,0.0,0.0,0.0,0.0,0.0,0.0,0.0,0.0010649317569528052,-0.0003998098299706816,0.00021472797096227128,0.0,0.0,0.0,0.0,0.0,0.0,0.0,0.0,0.0,0.008192313023423861,-0.5868119077419457,9.809532085324214,0.0,0.0,0.0,0.0,0.0,0.0,0.0,0.0,0.0
2025/05/14 12:38:29.360569185,1747219109,353278030,mA1/imu,0.7069477595515695,0.7072652496177897,0.00037966252074396543,0.0007666840759383943,0.0,0.0,0.0,0.0,0.0,0.0,0.0,0.0,0.0,-0.0004980310265249998,-0.0005927966185218574,0.0001057936331787246,0.0,0.0,0.0,0.0,0.0,0.0,0.0,0.0,0.0,0.007769635474765725,-0.062236732359155764,9.809884238762985,0.0,0.0,0.0,0.0,0.0,0.0,0.0,0.0,0.0
2025/05/14 12:38:29.407032656,1747219109,405058656,mA1/imu,0.7069497695440934,0.7072632418623269,0.0003616036507980609,0.0007741412949638906,0.0,0.0,0.0,0.0,0.0,0.0,0.0,0.0,0.0,-0.000601792748983936,-0.0007915277747114923,0.0001177867516833425,0.0,0.0,0.0,0.0,0.0,0.0,0.0,0.0,0.0,0.006647724298479122,-0.06693662004091769,9.810937268675795,0.0,0.0,0.0,0.0,0.0,0.0,0.0,0.0,0.0
2025/05/14 12:38:29.457621097,1747219109,454480450,mA1/imu,0.7069519899621621,0.7072610221046559,0.0003397958265213755,0.0007842441028817497,0.0,0.0,0.0,0.0,0.0,0.0,0.0,0.0,0.0,-0.0007509544345933481,-0.0009533649277222809,0.0001294525469675081,0.0,0.0,0.0,0.0,0.0,0.0,0.0,0.0,0.0,0.006790236731446405,0.548999250018267,9.811752028588584,0.0,0.0,0.0,0.0,0.0,0.0,0.0,0.0,0.0
2025/05/14 12:38:29.504037570,1747219109,500884254,mA1/imu,0.70695436918196,0.7072586420220862,0.00031506086632046446,0.000796188584615932,0.0,0.0,0.0,0.0,0.0,0.0,0.0,0.0,0.0,0.0008352379031535616,-0.0010806521566858688,0.0001354628270313488,0.0,0.0,0.0,0.0,0.0,0.0,0.0,0.0,0.0,0.007008117381402243,0.03092463434973606,9.80829573966655,0.0,0.0,0.0,0.0,0.0,0.0,0.0,0.0,0.0
2025/05/14 12:38:29.554063225,1747219109,552759113,mA1/imu,0.7069567734012253,0.7072562257691893,0.00029455765179555116,0.0008154070393798939,0.0,0.0,0.0,0.0,0.0,0.0,0.0,0.0,0.0,0.0009463843779222123,-0.0011487945614311356,0.00013491190243962285,0.0,0.0,0.0,0.0,0.0,0.0,0.0,0.0,0.0,0.006756151689563785,0.03983635157226701,9.808589382165833,0.0,0.0,0.0,0.0,0.0,0.0,0.0,0.0,0.0
2025/05/14 12:38:29.608806559,1747219109,604932973,mA1/imu,0.7069591491532713,0.7072538354549962,0.0002743198353642758,0.0008357100621236208,0.0,0.0,0.0,0.0,0.0,0.0,0.0,0.0,0.0,0.0010666023446825332,-0.0011522640646431598,0.00013313590377382416,0.0,0.0,0.0,0.0,0.0,0.0,0.0,0.0,0.0,0.007057973538594296,-0.5821479850493915,9.809138030845435,0.0,0.0,0.0,0.0,0.0,0.0,0.0,0.0,0.0
2025/05/14 12:38:29.659745332,1747219109,656058749,mA1/imu,0.7069614909325598,0.7072514772683246,0.0002557332523661803,0.000856061147585629,0.0,0.0,0.0,0.0,0.0,0.0,0.0,0.0,0.0,-0.0005343533330367891,-0.001069694137413172,0.00013141520559373823,0.0,0.0,0.0,0.0,0.0,0.0,0.0,0.0,0.0,0.0071076095032712215,-0.06267298627816954,9.809714472802426,0.0,0.0,0.0,0.0,0.0,0.0,0.0,0.0,0.0
2025/05/14 12:38:29.707633572,1747219109,705866783,mA1/imu,0.7069638004376196,0.7072491598843822,0.00023387007674396698,0.0008694931973364536,0.0,0.0,0.0,0.0,0.0,0.0,0.0,0.0,0.0,-0.0006801206157189721,-0.0009345938160762585,0.00012902200708913395,0.0,0.0,0.0,0.0,0.0,0.0,0.0,0.0,0.0,0.006310417747588238,-0.06745606322807626,9.8108515715113,0.0,0.0,0.0,0.0,0.0,0.0,0.0,0.0,0.0
2025/05/14 12:38:29.761308142,1747219109,758883262,mA1/imu,0.706966096860348,0.7072468569494377,0.00021497012013855984,0.0008803482460434176,0.0,0.0,0.0,0.0,0.0,0.0,0.0,0.0,0.0,-0.000870730652526071,-0.0007572741386016397,0.00012969444826193592,0.0,0.0,0.0,0.0,0.0,0.0,0.0,0.0,0.0,0.006487117946081191,0.5485721446963479,9.811806481115672,0.0,0.0,0.0,0.0,0.0,0.0,0.0,0.0,0.0
2025/05/14 12:38:29.809929127,1747219109,808932874,mA1/imu,0.7069688357947644,0.7072441145492231,0.00019961304310692592,0.0008875838629261035,0.0,0.0,0.0,0.0,0.0,0.0,0.0,0.0,0.0,0.0007094365413615407,-0.0005470696319220725,0.00020836765929350067,0.0,0.0,0.0,0.0,0.0,0.0,0.0,0.0,0.0,0.007711550048716284,0.03681715809218285,9.80703956426745,0.0,0.0,0.0,0.0,0.0,0.0,0.0,0.0,0.0
2025/05/14 12:38:29.863437631,1747219109,860626157,mA1/imu,0.7069740563271132,0.7072388866167799,0.0001938987308227953,0.0008962927689009851,0.0,0.0,0.0,0.0,0.0,0.0,0.0,0.0,0.0,0.0008179389494546864,-0.0003359978723616831,0.00033498162827236543,0.0,0.0,0.0,0.0,0.0,0.0,0.0,0.0,0.0,0.007098074907609065,0.038866089435098165,9.808884401846694,0.0,0.0,0.0,0.0,0.0,0.0,0.0,0.0,0.0
2025/05/14 12:38:29.902060743,1747219109,900425335,mA1/imu,0.7069801103206408,0.7072328273428182,0.00019297713516673836,0.0009023854626402201,0.0,0.0,0.0,0.0,0.0,0.0,0.0,0.0,0.0,0.0009110483482007356,-0.00012298195528871663,0.00034739541057761945,0.0,0.0,0.0,0.0,0.0,0.0,0.0,0.0,0.0,0.007677236531693517,-0.5829480535946282,9.809468671607302,0.0,0.0,0.0,0.0,0.0,0.0,0.0,0.0,0.0
2025/05/14 12:38:29.956550396,1747219109,953688429,mA1/imu,0.7069863774102101,0.7072265568874003,0.00019723592242882086,0.0009058076902123062,0.0,0.0,0.0,0.0,0.0,0.0,0.0,0.0,0.0,-0.0007098730688618559,0.00010867573341977955,0.0003595681892585587,0.0,0.0,0.0,0.0,0.0,0.0,0.0,0.0,0.0,0.008211728693387859,-0.06333955356697354,9.81013297681021,0.0,0.0,0.0,0.0,0.0,0.0,0.0,0.0,0.0
2025/05/14 12:38:30.5804613,1747219110,3704368,mA1/imu,0.7069931470859515,0.7072197959621703,0.00020099850680560923,0.0008998735068469753,0.0,0.0,0.0,0.0,0.0,0.0,0.0,0.0,0.0,-0.000846930447177931,0.0004443052231731443,0.0004255814036686886,0.0,0.0,0.0,0.0,0.0,0.0,0.0,0.0,0.0,-0.0007644369898264815,-0.06482648043321383,9.812088713861547,0.0,0.0,0.0,0.0,0.0,0.0,0.0,0.0,0.0
2025/05/14 12:38:30.60151626,1747219110,55366514,mA1/imu,0.707001859540526,0.707211099039342,0.00021121153724936055,0.0008873508274197806,0.0,0.0,0.0,0.0,0.0,0.0,0.0,0.0,0.0,-0.0010250425004651852,0.0007520217978305083,0.0005124252655440995,0.0,0.0,0.0,0.0,0.0,0.0,0.0,0.0,0.0,0.011784757308914694,0.5497692776962481,9.812813615121145,0.0,0.0,0.0,0.0,0.0,0.0,0.0,0.0,0.0
2025/05/14 12:38:30.106549109,1747219110,105359781,mA1/imu,0.7070099819603457,0.7072029938884533,0.00022362560786274357,0.0008722586931024854,0.0,0.0,0.0,0.0,0.0,0.0,0.0,0.0,0.0,0.000539301768413485,0.0008404164145704604,0.0004079510651591264,0.0,0.0,0.0,0.0,0.0,0.0,0.0,0.0,0.0,0.005671737539468464,0.026988082829109018,9.807646486862138,0.0,0.0,0.0,0.0,0.0,0.0,0.0,0.0,0.0
2025/05/14 12:38:30.161074830,1747219110,159437564,mA1/imu,0.707015741179219,0.7071972422310914,0.00024402990678663937,0.0008618323174676988,0.0,0.0,0.0,0.0,0.0,0.0,0.0,0.0,0.0,0.0006124394321977069,0.0008836205817911773,0.00029095311776581396,0.0,0.0,0.0,0.0,0.0,0.0,0.0,0.0,0.0,0.008331818269938061,0.04014405063785217,9.809162881105658,0.0,0.0,0.0,0.0,0.0,0.0,0.0,0.0,0.0
2025/05/14 12:38:30.211230925,1747219110,209128238,mA1/imu,0.7070212274383972,0.707191763544805,0.0002683822142571776,0.0008494097232845895,0.0,0.0,0.0,0.0,0.0,0.0,0.0,0.0,0.0,0.000723146849839468,0.0011476176390181347,0.0003255211555514776,0.0,0.0,0.0,0.0,0.0,0.0,0.0,0.0,0.0,-0.00015033023543287866,-0.5845255610265191,9.809793506192745,0.0,0.0,0.0,0.0,0.0,0.0,0.0,0.0,0.0
2025/05/14 12:38:30.257195848,1747219110,251107082,mA1/imu,0.707025336287236,0.7071876616491287,0.00029611916237881424,0.000835088378475971,0.0,0.0,0.0,0.0,0.0,0.0,0.0,0.0,0.0,-0.0008537097397115126,0.001171331604502224,0.00019464026161055382,0.0,0.0,0.0,0.0,0.0,0.0,0.0,0.0,0.0,0.00938405619989265,-0.06098152878782173,9.81017743165956,0.0,0.0,0.0,0.0,0.0,0.0,0.0,0.0,0.0
2025/05/14 12:38:30.303873295,1747219110,300532345,mA1/imu,0.7070285351616381,0.7071844767048593,0.0003173110797892072,0.0008158973841482608,0.0,0.0,0.0,0.0,0.0,0.0,0.0,0.0,0.0,-0.000960147714076429,0.0011532731064938294,0.00016030895151561826,0.0,0.0,0.0,0.0,0.0,0.0,0.0,0.0,0.0,0.004102009245293071,-0.07023744452325958,9.811858736056928,0.0,0.0,0.0,0.0,0.0,0.0,0.0,0.0,0.0
2025/05/14 12:38:30.353509851,1747219110,351828002,mA1/imu,0.7070303605802281,0.7071826645153273,0.00033839248275676563,0.0007960636422020433,0.0,0.0,0.0,0.0,0.0,0.0,0.0,0.0,0.0,-0.0011119759862487923,0.0011834762288679905,6.632937429458375e-05,0.0,0.0,0.0,0.0,0.0,0.0,0.0,0.0,0.0,0.00453921654957574,0.5468088692067428,9.81268543201704,0.0,0.0,0.0,0.0,0.0,0.0,0.0,0.0,0.0
2025/05/14 12:38:30.405912890,1747219110,403314530,mA1/imu,0.7070312118995922,0.7071818261487017,0.0003575437521166473,0.0007760974465455713,0.0,0.0,0.0,0.0,0.0,0.0,0.0,0.0,0.0,0.0005153621325292485,0.0010396738327885355,4.472202812079047e-05,0.0,0.0,0.0,0.0,0.0,0.0,0.0,0.0,0.0,0.00717171270756164,0.033520585697361396,9.808574398169494,0.0,0.0,0.0,0.0,0.0,0.0,0.0,0.0,0.0
2025/05/14 12:38:30.458994069,1747219110,454788928,mA1/imu,0.7070318817845868,0.7071811585129699,0.0003780619468393865,0.0007643648109760125,0.0,0.0,0.0,0.0,0.0,0.0,0.0,0.0,0.0,0.000686523746416522,0.0008146929783231564,3.465750743909161e-05,0.0,0.0,0.0,0.0,0.0,0.0,0.0,0.0,0.0,0.007408810389183692,0.042076790888833135,9.808800716377313,0.0,0.0,0.0,0.0,0.0,0.0,0.0,0.0,0.0
2025/05/14 12:38:30.509768935,1747219110,506369207,mA1/imu,0.7070326719581497,0.7071803682464453,0.0003933669153664079,0.0007568441129962486,0.0,0.0,0.0,0.0,0.0,0.0,0.0,0.0,0.0,0.0008786544770737211,0.0004923416211072433,8.164549312102564e-05,0.0,0.0,0.0,0.0,0.0,0.0,0.0,0.0,0.0,0.010399408172654794,-0.5772136271804869,9.809436899348151,0.0,0.0,0.0,0.0,0.0,0.0,0.0,0.0,0.0
2025/05/14 12:38:30.558861097,1747219110,557336082,mA1/imu,0.7070356824396355,0.7071773567189916,0.0004018376546271404,0.0007539413492571747,0.0,0.0,0.0,0.0,0.0,0.0,0.0,0.0,0.0,-0.000598392428781734,0.00018863106859829965,0.00020405234894998786,0.0,0.0,0.0,0.0,0.0,0.0,0.0,0.0,0.0,0.010372185368117886,-0.061879875373650375,9.80979979717064,0.0,0.0,0.0,0.0,0.0,0.0,0.0,0.0,0.0
2025/05/14 12:38:30.609750344,1747219110,607471691,mA1/imu,0.707039249178096,0.7071737967277749,0.0003973835863508948,0.0007506194664370073,0.0,0.0,0.0,0.0,0.0,0.0,0.0,0.0,0.0,-0.0006687951838510435,-0.0001678546442648451,0.00019987666059960167,0.0,0.0,0.0,0.0,0.0,0.0,0.0,0.0,0.0,0.008922730660067504,-0.06618527460725546,9.810862120184014,0.0,0.0,0.0,0.0,0.0,0.0,0.0,0.0,0.0
2025/05/14 12:38:30.661670551,1747219110,660305775,mA1/imu,0.7070427455252861,0.7071703055893863,0.0003854282161709124,0.0007525541640771054,0.0,0.0,0.0,0.0,0.0,0.0,0.0,0.0,0.0,-0.0007854158285021792,-0.0005217262194623701,0.0001956190737363979,0.0,0.0,0.0,0.0,0.0,0.0,0.0,0.0,0.0,0.009156860555529108,0.54993450466561,9.811792450522915,0.0,0.0,0.0,0.0,0.0,0.0,0.0,0.0,0.0
2025/05/14 12:38:30.701075630,1747219110,699825575,mA1/imu,0.7070468138138885,0.7071662420270057,0.00036857014361797876,0.0007572113841997854,0.0,0.0,0.0,0.0,0.0,0.0,0.0,0.0,0.0,0.0008255736352327625,-0.00048250803592544375,0.00031256318007850546,0.0,0.0,0.0,0.0,0.0,0.0,0.0,0.0,0.0,-0.016966023010075187,0.02639333315433754,9.806895199299658,0.0,0.0,0.0,0.0,0.0,0.0,0.0,0.0,0.0
2025/05/14 12:38:30.756506130,1747219110,752391822,mA1/imu,0.7070523700052418,0.707160682472997,0.00035876370384158864,0.0007658478311805103,0.0,0.0,0.0,0.0,0.0,0.0,0.0,0.0,0.0,0.0009467344414724276,-0.0005967618994177539,0.00029962911286486143,0.0,0.0,0.0,0.0,0.0,0.0,0.0,0.0,0.0,0.0073311679056095175,0.04259864211672379,9.808683112049618,0.0,0.0,0.0,0.0,0.0,0.0,0.0,0.0,0.0
2025/05/14 12:38:30.803608770,1747219110,801602286,mA1/imu,0.7070576376890153,0.7071554086464256,0.0003456446211222261,0.0007781629212942655,0.0,0.0,0.0,0.0,0.0,0.0,0.0,0.0,0.0,0.0011063531344418503,-0.0008137701454331504,0.00029605963407522895,0.0,0.0,0.0,0.0,0.0,0.0,0.0,0.0,0.0,0.007992687835606117,-0.5797710705330414,9.809201093237455,0.0,0.0,0.0,0.0,0.0,0.0,0.0,0.0,0.0
2025/05/14 12:38:30.854956441,1747219110,852570938,mA1/imu,0.7070628462223353,0.7071501911491238,0.00032952607231261734,0.0007937646346365961,0.0,0.0,0.0,0.0,0.0,0.0,0.0,0.0,0.0,-0.0004552442711135799,-0.0009592065265378377,0.0002927819660939176,0.0,0.0,0.0,0.0,0.0,0.0,0.0,0.0,0.0,0.008003577048655593,-0.06052785733245611,9.809887274577433,0.0,0.0,0.0,0.0,0.0,0.0,0.0,0.0,0.0
2025/05/14 12:38:30.905967390,1747219110,904611016,mA1/imu,0.7070681822150275,0.7071448530284569,0.00030510484760074583,0.0008058818340538892,0.0,0.0,0.0,0.0,0.0,0.0,0.0,0.0,0.0,-0.000538916560083825,-0.0010826622202543387,0.00031879063790110217,0.0,0.0,0.0,0.0,0.0,0.0,0.0,0.0,0.0,0.009538891068113549,-0.059884529412388476,9.811695022306857,0.0,0.0,0.0,0.0,0.0,0.0,0.0,0.0,0.0
2025/05/14 12:38:30.958252543,1747219110,956058938,mA1/imu,0.7070747945944278,0.7071382369238677,0.0002767431913683412,0.0008198430691526685,0.0,0.0,0.0,0.0,0.0,0.0,0.0,0.0,0.0,-0.0006641967299245743,-0.0012275208072898064,0.00040095682516556636,0.0,0.0,0.0,0.0,0.0,0.0,0.0,0.0,0.0,0.007486037295339929,0.5496819394651913,9.812071722486172,0.0,0.0,0.0,0.0,0.0,0.0,0.0,0.0,0.0
2025/05/14 12:38:31.6939451,1747219111,5632145,mA1/imu,0.7070819470623011,0.7071310799463719,0.00024680978922754265,0.000833665035163785,0.0,0.0,0.0,0.0,0.0,0.0,0.0,0.0,0.0,0.0009207942250092839,-0.0012267812571900606,0.000405416098395536,0.0,0.0,0.0,0.0,0.0,0.0,0.0,0.0,0.0,0.007001683334915396,0.03316099805002391,9.808670218907983,0.0,0.0,0.0,0.0,0.0,0.0,0.0,0.0,0.0
2025/05/14 12:38:31.61122982,1747219111,59384139,mA1/imu,0.7070891674729312,0.7071238445761198,0.00022410051695861754,0.0008529087188911481,0.0,0.0,0.0,0.0,0.0,0.0,0.0,0.0,0.0,0.0009929942279274444,-0.0011538840712692522,0.00040970075198935076,0.0,0.0,0.0,0.0,0.0,0.0,0.0,0.0,0.0,0.0065895379959565945,0.04129170645943423,9.809077672483971,0.0,0.0,0.0,0.0,0.0,0.0,0.0,0.0,0.0
2025/05/14 12:38:31.104936319,1747219111,101344220,mA1/imu,0.7070964477063784,0.7071165478937248,0.00020474747498460115,0.0008714438328882039,0.0,0.0,0.0,0.0,0.0,0.0,0.0,0.0,0.0,0.0010749427166012616,-0.001027097719759172,0.0004123009193629091,0.0,0.0,0.0,0.0,0.0,0.0,0.0,0.0,0.0,0.007594390018477883,-0.5812764604358198,9.809547111528714,0.0,0.0,0.0,0.0,0.0,0.0,0.0,0.0,0.0
2025/05/14 12:38:31.160156620,1747219111,154422313,mA1/imu,0.7071038088315651,0.7071091698404555,0.00018992635603954646,0.0008884770196935911,0.0,0.0,0.0,0.0,0.0,0.0,0.0,0.0,0.0,-0.0005631102022828844,-0.0008215445876555188,0.00041981387619860407,0.0,0.0,0.0,0.0,0.0,0.0,0.0,0.0,0.0,0.00748352035801628,-0.062108044896785904,9.810193319510192,0.0,0.0,0.0,0.0,0.0,0.0,0.0,0.0,0.0
2025/05/14 12:38:31.208490911,1747219111,204700429,mA1/imu,0.7071113504849411,0.707101621194215,0.00017460602652811076,0.0008971246352812423,0.0,0.0,0.0,0.0,0.0,0.0,0.0,0.0,0.0,-0.0007429405597057871,-0.0005695384277775997,0.0004304148368857076,0.0,0.0,0.0,0.0,0.0,0.0,0.0,0.0,0.0,0.006223326712785094,-0.06652600241196448,9.811305321448256,0.0,0.0,0.0,0.0,0.0,0.0,0.0,0.0,0.0
2025/05/14 12:38:31.261856536,1747219111,258274784,mA1/imu,0.7071190753946044,0.7070938923524319,0.00016463456767635935,0.0009019459109508329,0.0,0.0,0.0,0.0,0.0,0.0,0.0,0.0,0.0,-0.0009626412011140443,-0.00029965560175115456,0.00044095312903769297,0.0,0.0,0.0,0.0,0.0,0.0,0.0,0.0,0.0,0.006641322319741293,0.5495876213709291,9.812364878369568,0.0,0.0,0.0,0.0,0.0,0.0,0.0,0.0,0.0
2025/05/14 12:38:31.311567423,1747219111,309363542,mA1/imu,0.7071269826476376,0.7070859851539563,0.00016023507873036836,0.0009024052448525539,0.0,0.0,0.0,0.0,0.0,0.0,0.0,0.0,0.0,0.0005626367534908014,-1.980116850190068e-05,0.00045142363943387586,0.0,0.0,0.0,0.0,0.0,0.0,0.0,0.0,0.0,0.006219230784507099,0.03149349606500141,9.80891562821603,0.0,0.0,0.0,0.0,0.0,0.0,0.0,0.0,0.0
2025/05/14 12:38:31.354750605,1747219111,351434395,mA1/imu,0.7071350094203923,0.7070779531562155,0.00016740346110578474,0.0009047588186741188,0.0,0.0,0.0,0.0,0.0,0.0,0.0,0.0,0.0,0.0006209782269006301,0.0002337484993905264,0.00045552084156202114,0.0,0.0,0.0,0.0,0.0,0.0,0.0,0.0,0.0,0.007010110491725157,0.04012606503101573,9.809207903758622,0.0,0.0,0.0,0.0,0.0,0.0,0.0,0.0,0.0
2025/05/14 12:38:31.403225261,1747219111,401050434,mA1/imu,0.7071430337556667,0.7070699256629497,0.0001803697232763313,0.0009041573899001309,0.0,0.0,0.0,0.0,0.0,0.0,0.0,0.0,0.0,0.0007034850006255848,0.000459509683358179,0.000453027599665575,0.0,0.0,0.0,0.0,0.0,0.0,0.0,0.0,0.0,0.008412569335790817,-0.5818450128270745,9.809506558843145,0.0,0.0,0.0,0.0,0.0,0.0,0.0,0.0,0.0
2025/05/14 12:38:31.459914199,1747219111,455203641,mA1/imu,0.7071510014826596,0.7070619561679217,0.00019846003404230258,0.0009010303426861805,0.0,0.0,0.0,0.0,0.0,0.0,0.0,0.0,0.0,-0.0009150831026069396,0.0006729410519991021,0.00045012851276722397,0.0,0.0,0.0,0.0,0.0,0.0,0.0,0.0,0.0,0.00914086018293467,-0.06235326759439656,9.810044056331662,0.0,0.0,0.0,0.0,0.0,0.0,0.0,0.0,0.0
2025/05/14 12:38:31.509628989,1747219111,508157689,mA1/imu,0.7071563170606713,0.7070566461478,0.000211090745147666,0.0008932077639021289,0.0,0.0,0.0,0.0,0.0,0.0,0.0,0.0,0.0,-0.0010373688124540362,0.00019313739181811654,-4.350648563213024e-05,0.0,0.0,0.0,0.0,0.0,0.0,0.0,0.0,0.0,0.06329573205471897,-0.07671910577637303,9.815048153761975,0.0,0.0,0.0,0.0,0.0,0.0,0.0,0.0,0.0
2025/05/14 12:38:31.561993118,1747219111,560009774,mA1/imu,0.7071435325630075,0.7070694148894684,0.00020211482897156146,0.0009088629002891444,0.0,0.0,0.0,0.0,0.0,0.0,0.0,0.0,0.0,-0.0012884424989673508,-0.0012024609566306638,-0.0011773308088473453,0.0,0.0,0.0,0.0,0.0,0.0,0.0,0.0,0.0,0.05829271954043399,0.540942050851468,9.815846953255372,0.0,0.0,0.0,0.0,0.0,0.0,0.0,0.0,0.0
2025/05/14 12:38:31.602707843,1747219111,601611825,mA1/imu,0.7071188439208183,0.7070940775528827,0.0001827341238769085,0.0009341680594801486,0.0,0.0,0.0,0.0,0.0,0.0,0.0,0.0,0.0,0.0003106727463124805,-0.0009910961795852728,-0.0013850175613574851,0.0,0.0,0.0,0.0,0.0,0.0,0.0,0.0,0.0,-0.007437927809674207,0.030979501720412556,9.807054096206535,0.0,0.0,0.0,0.0,0.0,0.0,0.0,0.0,0.0
2025/05/14 12:38:31.654876207,1747219111,652349106,mA1/imu,0.7070951093968468,0.707117787560894,0.0001808152763603528,0.0009529364527751018,0.0,0.0,0.0,0.0,0.0,0.0,0.0,0.0,0.0,0.0004406270904516905,-0.0003648256984003433,-0.0013250646034721428,0.0,0.0,0.0,0.0,0.0,0.0,0.0,0.0,0.0,0.004646668233628689,0.042908071270896055,9.808501253355013,0.0,0.0,0.0,0.0,0.0,0.0,0.0,0.0,0.0
2025/05/14 12:38:31.706604508,1747219111,704862282,mA1/imu,0.7070721874437792,0.7071406921151645,0.00018676201182934988,0.0009635446573692039,0.0,0.0,0.0,0.0,0.0,0.0,0.0,0.0,0.0,0.0006267421941037489,-4.910780104267846e-06,-0.0012459345877109656,0.0,0.0,0.0,0.0,0.0,0.0,0.0,0.0,0.0,0.006693747934152804,-0.576201604840742,9.808942092839077,0.0,0.0,0.0,0.0,0.0,0.0,0.0,0.0,0.0
2025/05/14 12:38:31.756795722,1747219111,756037121,mA1/imu,0.7070521614394821,0.7071607087577505,0.0001981233696061763,0.0009663022937664693,0.0,0.0,0.0,0.0,0.0,0.0,0.0,0.0,0.0,-0.0008350772067016384,0.00038580991515030165,-0.0010637221826419235,0.0,0.0,0.0,0.0,0.0,0.0,0.0,0.0,0.0,0.007773087962725371,-0.05776990533124614,9.809440645386495,0.0,0.0,0.0,0.0,0.0,0.0,0.0,0.0,0.0
2025/05/14 12:38:31.807804644,1747219111,805973184,mA1/imu,0.7070339574901734,0.7071789200797759,0.00020804125914284668,0.000956383511101794,0.0,0.0,0.0,0.0,0.0,0.0,0.0,0.0,0.0,-0.0008727690585716148,0.0006721777760819429,-0.0010430534884457675,0.0,0.0,0.0,0.0,0.0,0.0,0.0,0.0,0.0,0.009277648927405572,-0.06461357781159609,9.810861189722644,0.0,0.0,0.0,0.0,0.0,0.0,0.0,0.0,0.0
2025/05/14 12:38:31.861063809,1747219111,857517228,mA1/imu,0.7070150744468877,0.7071978155999055,0.00021992921588684828,0.0009411411816030004,0.0,0.0,0.0,0.0,0.0,0.0,0.0,0.0,0.0,-0.0009570076936207065,0.0008439624475922553,-0.0010876674663133686,0.0,0.0,0.0,0.0,0.0,0.0,0.0,0.0,0.0,0.010373897240739083,0.5513067697419791,9.811953013374952,0.0,0.0,0.0,0.0,0.0,0.0,0.0,0.0,0.0
2025/05/14 12:38:31.909004126,1747219111,907517667,mA1/imu,0.7069954225564518,0.7072174837524382,0.0002327173589787601,0.0009214128958964466,0.0,0.0,0.0,0.0,0.0,0.0,0.0,0.0,0.0,0.0006949865894568132,0.0009904337762584594,-0.001111165873597345,0.0,0.0,0.0,0.0,0.0,0.0,0.0,0.0,0.0,0.006598265564306625,0.031518810067642164,9.807962645399359,0.0,0.0,0.0,0.0,0.0,0.0,0.0,0.0,0.0
2025/05/14 12:38:31.965445611,1747219111,959324486,mA1/imu,0.7069759893609204,0.7072369264250731,0.00025298047847683604,0.0009035313170213549,0.0,0.0,0.0,0.0,0.0,0.0,0.0,0.0,0.0,0.000866214866856102,0.00112752569819233,-0.0010903044141971692,0.0,0.0,0.0,0.0,0.0,0.0,0.0,0.0,0.0,0.00710413216030438,0.04040479940915465,9.808368419462033,0.0,0.0,0.0,0.0,0.0,0.0,0.0,0.0,0.0
2025/05/14 12:38:32.10424272,1747219112,9703335,mA1/imu,0.7069597856330787,0.7072531462931863,0.00028102844326606427,0.0008772565384339856,0.0,0.0,0.0,0.0,0.0,0.0,0.0,0.0,0.0,0.0010139407709016453,0.001857059055853902,-0.0007554478400072971,0.0,0.0,0.0,0.0,0.0,0.0,0.0,0.0,0.0,-0.015637829989177225,-0.5895050059518646,9.808348018696373,0.0,0.0,0.0,0.0,0.0,0.0,0.0,0.0,0.0
2025/05/14 12:38:32.54258534,1747219112,52069364,mA1/imu,0.7069457091786391,0.7072672425698011,0.00031695239577128023,0.0008434469751685319,0.0,0.0,0.0,0.0,0.0,0.0,0.0,0.0,0.0,-0.0005227415799292428,0.001996865756939288,-0.0007941105695965656,0.0,0.0,0.0,0.0,0.0,0.0,0.0,0.0,0.0,0.005428580793467532,-0.061396829526928,9.809364299967452,0.0,0.0,0.0,0.0,0.0,0.0,0.0,0.0,0.0
2025/05/14 12:38:32.101870153,1747219112,100803667,mA1/imu,0.7069324785230866,0.7072804997595383,0.00034614971570219913,0.0008035231656967961,0.0,0.0,0.0,0.0,0.0,0.0,0.0,0.0,0.0,-0.0005666426875009325,0.001917442533085893,-0.0006983106044604342,0.0,0.0,0.0,0.0,0.0,0.0,0.0,0.0,0.0,0.006451723314216005,-0.060125462455288145,9.811487873884152,0.0,0.0,0.0,0.0,0.0,0.0,0.0,0.0,0.0
2025/05/14 12:38:32.152888441,1747219112,152090163,mA1/imu,0.7069219344370947,0.7072910686579448,0.0003698039184773438,0.0007655412989514826,0.0,0.0,0.0,0.0,0.0,0.0,0.0,0.0,0.0,-0.0006471900573256544,0.0016414899275282659,-0.0005443411218171237,0.0,0.0,0.0,0.0,0.0,0.0,0.0,0.0,0.0,0.009340430755598525,0.5504794138118927,9.81204220342536,0.0,0.0,0.0,0.0,0.0,0.0,0.0,0.0,0.0
2025/05/14 12:38:32.203897329,1747219112,202276669,mA1/imu,0.7069125267464791,0.7073004981167517,0.0003864280621457305,0.0007318237877315208,0.0,0.0,0.0,0.0,0.0,0.0,0.0,0.0,0.0,0.0009691161928140605,0.0012741389915274226,-0.000524647473508429,0.0,0.0,0.0,0.0,0.0,0.0,0.0,0.0,0.0,0.009042152996044274,0.03240100793961302,9.808719436771097,0.0,0.0,0.0,0.0,0.0,0.0,0.0,0.0,0.0
2025/05/14 12:38:32.257504467,1747219112,254173322,mA1/imu,0.7069033730646191,0.7073096600160381,0.0004010265248322729,0.000710757051935269,0.0,0.0,0.0,0.0,0.0,0.0,0.0,0.0,0.0,0.0011001130575039725,0.0008225938391907565,-0.000513074222569737,0.0,0.0,0.0,0.0,0.0,0.0,0.0,0.0,0.0,0.009506768052512465,0.04137948124553981,9.809260115999635,0.0,0.0,0.0,0.0,0.0,0.0,0.0,0.0,0.0
2025/05/14 12:38:32.305151091,1747219112,304129880,mA1/imu,0.7068938377640782,0.7073191981900273,0.0004070085983589232,0.000698818281844138,0.0,0.0,0.0,0.0,0.0,0.0,0.0,0.0,0.0,0.0012412274873895351,0.0002626278428071859,-0.0005654037912383886,0.0,0.0,0.0,0.0,0.0,0.0,0.0,0.0,0.0,0.01332676012552781,-0.5802443587299955,9.809525371587233,0.0,0.0,0.0,0.0,0.0,0.0,0.0,0.0,0.0
2025/05/14 12:38:32.359999549,1747219112,357933206,mA1/imu,0.7068832112773763,0.7073298215722353,0.00040327165567321176,0.0006974960540459694,0.0,0.0,0.0,0.0,0.0,0.0,0.0,0.0,0.0,-0.00031131203834973246,-0.0002839454075720077,-0.0006181923699680982,0.0,0.0,0.0,0.0,0.0,0.0,0.0,0.0,0.0,0.010179651977627008,-0.07423771021512823,9.810451467554806,0.0,0.0,0.0,0.0,0.0,0.0,0.0,0.0,0.0
2025/05/14 12:38:32.412051658,1747219112,408536300,mA1/imu,0.7068723652614572,0.7073406683895723,0.0003854525958437897,0.0006996414527933742,0.0,0.0,0.0,0.0,0.0,0.0,0.0,0.0,0.0,-0.00048783553089560357,-0.0007411447055992651,-0.0006114338561459805,0.0,0.0,0.0,0.0,0.0,0.0,0.0,0.0,0.0,0.009711053834429825,-0.06574733293161007,9.811589644850786,0.0,0.0,0.0,0.0,0.0,0.0,0.0,0.0,0.0
2025/05/14 12:38:32.453939714,1747219112,451395806,mA1/imu,0.7068616741680366,0.7073513547522035,0.0003607459892907488,0.0007102006154923069,0.0,0.0,0.0,0.0,0.0,0.0,0.0,0.0,0.0,-0.0007091495905283493,-0.001144649475534421,-0.0006000014978318646,0.0,0.0,0.0,0.0,0.0,0.0,0.0,0.0,0.0,0.009280534987256162,0.5496201438732241,9.812759812128743,0.0,0.0,0.0,0.0,0.0,0.0,0.0,0.0,0.0
2025/05/14 12:38:32.502306016,1747219112,501208786,mA1/imu,0.706851230614358,0.707361787859072,0.00033052192400785923,0.0007277438029820648,0.0,0.0,0.0,0.0,0.0,0.0,0.0,0.0,0.0,0.0008052910139648206,-0.0014695070483867368,-0.0005856107503953349,0.0,0.0,0.0,0.0,0.0,0.0,0.0,0.0,0.0,0.008244034880465486,0.03141505173260146,9.8093274609302,0.0,0.0,0.0,0.0,0.0,0.0,0.0,0.0,0.0
2025/05/14 12:38:32.554102279,1747219112,551977198,mA1/imu,0.7068410343208621,0.7073719585211236,0.00030263888319721104,0.0007569068040922757,0.0,0.0,0.0,0.0,0.0,0.0,0.0,0.0,0.0,0.0008464787643638533,-0.0016970244400397994,-0.0005717320042463536,0.0,0.0,0.0,0.0,0.0,0.0,0.0,0.0,0.0,0.007533648271956975,0.04015209175244238,9.809598389705421,0.0,0.0,0.0,0.0,0.0,0.0,0.0,0.0,0.0
2025/05/14 12:38:32.607477781,1747219112,605474578,mA1/imu,0.7068310857228277,0.7073818742800824,0.000273757942256853,0.0007907290783798561,0.0,0.0,0.0,0.0,0.0,0.0,0.0,0.0,0.0,0.0009017440044284934,-0.0018227756633844327,-0.000558147122689476,0.0,0.0,0.0,0.0,0.0,0.0,0.0,0.0,0.0,0.007782416131679501,-0.5816417503849649,9.809742568649574,0.0,0.0,0.0,0.0,0.0,0.0,0.0,0.0,0.0
2025/05/14 12:38:32.663324908,1747219112,656992750,mA1/imu,0.7068213793412663,0.7073915413733217,0.00024585226619535137,0.0008273187104735629,0.0,0.0,0.0,0.0,0.0,0.0,0.0,0.0,0.0,-0.0007522467859400053,-0.0018200913537249157,-0.0005439585372074489,0.0,0.0,0.0,0.0,0.0,0.0,0.0,0.0,0.0,0.007499408226531952,-0.06216500479385623,9.810136931498418,0.0,0.0,0.0,0.0,0.0,0.0,0.0,0.0,0.0
2025/05/14 12:38:32.708570996,1747219112,707494398,mA1/imu,0.7068122321707406,0.7074006540702885,0.00021459793410502788,0.000858500127866579,0.0,0.0,0.0,0.0,0.0,0.0,0.0,0.0,0.0,-0.0009148055877675029,-0.0016995614762215676,-0.00047078460572368456,0.0,0.0,0.0,0.0,0.0,0.0,0.0,0.0,0.0,0.0059014020672634535,-0.06232297314468532,9.811850849808396,0.0,0.0,0.0,0.0,0.0,0.0,0.0,0.0,0.0
2025/05/14 12:38:32.761484083,1747219112,760023969,mA1/imu,0.7068050366822524,0.7074078164053932,0.00018571209449118754,0.0008870852108199118,0.0,0.0,0.0,0.0,0.0,0.0,0.0,0.0,0.0,-0.0009768413683879046,-0.001541954761979449,-0.00039365360143138494,0.0,0.0,0.0,0.0,0.0,0.0,0.0,0.0,0.0,0.00742351762893517,0.4960699202711382,9.812054744329348,0.0,0.0,0.0,0.0,0.0,0.0,0.0,0.0,0.0
2025/05/14 12:38:32.802188482,1747219112,801382472,mA1/imu,0.706798247160437,0.7074145757790673,0.00016016207249604995,0.0009111170981862604,0.0,0.0,0.0,0.0,0.0,0.0,0.0,0.0,0.0,0.00046910914334688655,-0.001294012386486709,-0.00037907215714001855,0.0,0.0,0.0,0.0,0.0,0.0,0.0,0.0,0.0,0.00708567823176029,0.035382756482343035,9.808299201367953,0.0,0.0,0.0,0.0,0.0,0.0,0.0,0.0,0.0
2025/05/14 12:38:32.855942538,1747219112,853477808,mA1/imu,0.7067916144734073,0.7074211709698448,0.00014714683874926038,0.0009375081522836979,0.0,0.0,0.0,0.0,0.0,0.0,0.0,0.0,0.0,0.0005065615209245938,-0.0009902127753366257,-0.0003730043592665164,0.0,0.0,0.0,0.0,0.0,0.0,0.0,0.0,0.0,0.007184340169402184,0.04187806444959251,9.808403285567008,0.0,0.0,0.0,0.0,0.0,0.0,0.0,0.0,0.0
2025/05/14 12:38:32.905480918,1747219112,903217286,mA1/imu,0.7067850087369842,0.7074277402458266,0.00014298450215279355,0.0009608906163685454,0.0,0.0,0.0,0.0,0.0,0.0,0.0,0.0,0.0,0.00020143108739945702,-0.0006459549856602559,-0.00037363981334522504,0.0,0.0,0.0,0.0,0.0,0.0,0.0,0.0,0.0,0.007928115480178216,-0.4414771475269235,9.809245220540495,0.0,0.0,0.0,0.0,0.0,0.0,0.0,0.0,0.0
2025/05/14 12:38:32.956667382,1747219112,954157855,mA1/imu,0.7067783791600663,0.7074343431605774,0.00014317934931818436,0.0009758936959068464,0.0,0.0,0.0,0.0,0.0,0.0,0.0,0.0,0.0,-0.0007053626163336348,-0.0002696266729566797,-0.0003749730664367196,0.0,0.0,0.0,0.0,0.0,0.0,0.0,0.0,0.0,0.008155915575689556,-0.0397914121209826,9.809067991495782,0.0,0.0,0.0,0.0,0.0,0.0,0.0,0.0,0.0
2025/05/14 12:38:33.6561529,1747219113,5728811,mA1/imu,0.7067715520775277,0.7074411558868889,0.00014669959084517197,0.0009811271961932115,0.0,0.0,0.0,0.0,0.0,0.0,0.0,0.0,0.0,-0.0014220377381956768,9.451851825869501e-05,-0.0004116991205760802,0.0,0.0,0.0,0.0,0.0,0.0,0.0,0.0,0.0,0.010988618824815805,0.5425270171492644,9.811143597861893,0.0,0.0,0.0,0.0,0.0,0.0,0.0,0.0,0.0
2025/05/14 12:38:33.59233686,1747219113,57262204,mA1/imu,0.7067634940074866,0.7074492006743903,0.00015768802339369986,0.0009834317379098787,0.0,0.0,0.0,0.0,0.0,0.0,0.0,0.0,0.0,-0.0013938046201940181,0.0003601989862793182,-0.00048656507687098083,0.0,0.0,0.0,0.0,0.0,0.0,0.0,0.0,0.0,0.012029432726753478,0.5415622270272524,9.812169885224334,0.0,0.0,0.0,0.0,0.0,0.0,0.0,0.0,0.0
2025/05/14 12:38:33.109080372,1747219113,108235601,mA1/imu,0.7067549010101031,0.7074578009513868,0.0001657709673189517,0.0009707168555883193,0.0,0.0,0.0,0.0,0.0,0.0,0.0,0.0,0.0,0.0010572094998125157,0.0008840687312560604,-0.00039688932195037043,0.0,0.0,0.0,0.0,0.0,0.0,0.0,0.0,0.0,-0.011103793458578164,0.08073453869342073,9.808058647592294,0.0,0.0,0.0,0.0,0.0,0.0,0.0,0.0,0.0
2025/05/14 12:38:33.162051727,1747219113,159293393,mA1/imu,0.7067518296525384,0.707460880661936,0.00020223157779364944,0.0009553628716598463,0.0,0.0,0.0,0.0,0.0,0.0,0.0,0.0,0.0,0.0014225586821897565,0.001697217479001213,-7.744848160427677e-05,0.0,0.0,0.0,0.0,0.0,0.0,0.0,0.0,0.0,0.009172001518363351,-0.5282078910829433,9.807583111467997,0.0,0.0,0.0,0.0,0.0,0.0,0.0,0.0,0.0
2025/05/14 12:38:33.202363880,1747219113,200928453,mA1/imu,0.7067511885229986,0.7074615379809845,0.00024577714640951074,0.00093241219613041,0.0,0.0,0.0,0.0,0.0,0.0,0.0,0.0,0.0,3.709716854593159e-05,0.0020739503265880727,7.676887149318756e-05,0.0,0.0,0.0,0.0,0.0,0.0,0.0,0.0,0.0,-0.008411252334157314,-0.6299677941693985,9.808867458385135,0.0,0.0,0.0,0.0,0.0,0.0,0.0,0.0,0.0
2025/05/14 12:38:33.252977404,1747219113,251655767,mA1/imu,0.706756101552271,0.7074566630747087,0.0002929119385840848,0.0008927443253493335,0.0,0.0,0.0,0.0,0.0,0.0,0.0,0.0,0.0,-0.0015494138344490785,0.0026130482368177635,0.0003695879140828601,0.0,0.0,0.0,0.0,0.0,0.0,0.0,0.0,0.0,0.013832850199259176,-0.11715142501520154,9.81077353461367,0.0,0.0,0.0,0.0,0.0,0.0,0.0,0.0,0.0
2025/05/14 12:38:33.304767515,1747219113,302287095,mA1/imu,0.7067625498061745,0.707450262847233,0.0003339972243100861,0.0008439399916906982,0.0,0.0,0.0,0.0,0.0,0.0,0.0,0.0,0.0,-0.0017304092100559629,0.0025843643459176574,0.00036974580339278296,0.0,0.0,0.0,0.0,0.0,0.0,0.0,0.0,0.0,0.0009666782623909392,0.497758193127619,9.810128879166902,0.0,0.0,0.0,0.0,0.0,0.0,0.0,0.0,0.0
2025/05/14 12:38:33.355430502,1747219113,353355922,mA1/imu,0.7067691634858487,0.7074436941643567,0.00037295993980709333,0.0007937464865727503,0.0,0.0,0.0,0.0,0.0,0.0,0.0,0.0,0.0,-0.0002645558186143877,0.0025078176551873864,0.00038133926675957386,0.0,0.0,0.0,0.0,0.0,0.0,0.0,0.0,0.0,0.002591646803386151,0.5955099867055275,9.81063010107836,0.0,0.0,0.0,0.0,0.0,0.0,0.0,0.0,0.0
2025/05/14 12:38:33.405143162,1747219113,403393710,mA1/imu,0.706775906132969,0.7074369830852022,0.00041207807335573383,0.0007507761912152009,0.0,0.0,0.0,0.0,0.0,0.0,0.0,0.0,0.0,0.0015206444360723245,0.0021853326437593526,0.0003848028152222917,0.0,0.0,0.0,0.0,0.0,0.0,0.0,0.0,0.0,0.004928773199535083,0.08251890308904769,9.809256282990917,0.0,0.0,0.0,0.0,0.0,0.0,0.0,0.0,0.0
2025/05/14 12:38:33.456381998,1747219113,454931231,mA1/imu,0.7067844496928444,0.7074284587744243,0.00045197414208591384,0.000716315433972662,0.0,0.0,0.0,0.0,0.0,0.0,0.0,0.0,0.0,0.0018635215091218262,0.0020365317468815603,0.0006166340549642399,0.0,0.0,0.0,0.0,0.0,0.0,0.0,0.0,0.0,-0.002253091299813621,-0.5211093025658085,9.807463774545639,0.0,0.0,0.0,0.0,0.0,0.0,0.0,0.0,0.0
2025/05/14 12:38:33.511466927,1747219113,508325663,mA1/imu,0.7067963320555011,0.7074165931068062,0.00048430521391139297,0.0006886497722663878,0.0,0.0,0.0,0.0,0.0,0.0,0.0,0.0,0.0,0.0004944930659628728,0.0013607265963407288,0.0006655096222509412,0.0,0.0,0.0,0.0,0.0,0.0,0.0,0.0,0.0,0.01607184560873137,-0.626154480966269,9.809716002724114,0.0,0.0,0.0,0.0,0.0,0.0,0.0,0.0,0.0
2025/05/14 12:38:33.563272367,1747219113,560046526,mA1/imu,0.7068078801233458,0.7074050656270775,0.0004955979016663054,0.0006694052673250506,0.0,0.0,0.0,0.0,0.0,0.0,0.0,0.0,0.0,-0.0011315004681647723,0.0005195818133522705,0.0006454934129614446,0.0,0.0,0.0,0.0,0.0,0.0,0.0,0.0,0.0,0.016869689632977004,-0.11381205258368125,9.811142892007865,0.0,0.0,0.0,0.0,0.0,0.0,0.0,0.0,0.0
2025/05/14 12:38:33.602628371,1747219113,599837756,mA1/imu,0.7068193005126681,0.7073936731074074,0.0004865981260021498,0.0006564241439799483,0.0,0.0,0.0,0.0,0.0,0.0,0.0,0.0,0.0,-0.0013350109220261013,-7.838259477085592e-05,0.0006488828534832694,0.0,0.0,0.0,0.0,0.0,0.0,0.0,0.0,0.0,0.004502315531853056,0.5007998592771243,9.810633905167014,0.0,0.0,0.0,0.0,0.0,0.0,0.0,0.0,0.0
2025/05/14 12:38:33.654673548,1747219113,652664418,mA1/imu,0.7068321620189302,0.7073808398844176,0.0004672950401410159,0.0006509496188765007,0.0,0.0,0.0,0.0,0.0,0.0,0.0,0.0,0.0,0.00012046087684289795,-0.0004827735543125808,0.0008508483659280022,0.0,0.0,0.0,0.0,0.0,0.0,0.0,0.0,0.0,-0.007080558996536085,0.6034633470522872,9.81293962428759,0.0,0.0,0.0,0.0,0.0,0.0,0.0,0.0,0.0
2025/05/14 12:38:33.705690988,1747219113,703943756,mA1/imu,0.7068484006962364,0.707364622646963,0.00044442602126486323,0.0006569217641711608,0.0,0.0,0.0,0.0,0.0,0.0,0.0,0.0,0.0,0.001869490766346395,-0.0010796121337987902,0.0009139549412106597,0.0,0.0,0.0,0.0,0.0,0.0,0.0,0.0,0.0,0.007206578009804781,0.08466434349620781,9.809784833334687,0.0,0.0,0.0,0.0,0.0,0.0,0.0,0.0,0.0
2025/05/14 12:38:33.758003396,1747219113,755471300,mA1/imu,0.7068661901723174,0.7073468425044821,0.00041919874565746835,0.0006766554693670577,0.0,0.0,0.0,0.0,0.0,0.0,0.0,0.0,0.0,0.00214596361790691,-0.001376768756122284,0.0011316288090393268,0.0,0.0,0.0,0.0,0.0,0.0,0.0,0.0,0.0,-0.0015935970063734395,-0.5190540431423284,9.807839688270844,0.0,0.0,0.0,0.0,0.0,0.0,0.0,0.0,0.0
2025/05/14 12:38:33.806450299,1747219113,805718230,mA1/imu,0.7068870882210545,0.7073259487125655,0.00038808505297720805,0.0007043963514057121,0.0,0.0,0.0,0.0,0.0,0.0,0.0,0.0,0.0,0.0006695511944785018,-0.001884425845508071,0.001174165116174656,0.0,0.0,0.0,0.0,0.0,0.0,0.0,0.0,0.0,0.005543873237252972,-0.6283966264171532,9.811362755372938,0.0,0.0,0.0,0.0,0.0,0.0,0.0,0.0,0.0
2025/05/14 12:38:33.860104085,1747219113,857839600,mA1/imu,0.7069078348968428,0.7073052050106208,0.000343133380186156,0.0007363326864698878,0.0,0.0,0.0,0.0,0.0,0.0,0.0,0.0,0.0,-0.0010145451143962429,-0.0022719023475771885,0.0012240042151153824,0.0,0.0,0.0,0.0,0.0,0.0,0.0,0.0,0.0,-0.011041488460444376,-0.11985598726891895,9.81165213044463,0.0,0.0,0.0,0.0,0.0,0.0,0.0,0.0,0.0
2025/05/14 12:38:33.910331717,1747219113,908787418,mA1/imu,0.7069331700923066,0.7072798774567302,0.00029536187856954893,0.0007620560315572372,0.0,0.0,0.0,0.0,0.0,0.0,0.0,0.0,0.0,-0.0013789408140317718,-0.0018604268222131843,0.001569982945974811,0.0,0.0,0.0,0.0,0.0,0.0,0.0,0.0,0.0,-0.014680105023597876,0.5014147493370774,9.811911183609134,0.0,0.0,0.0,0.0,0.0,0.0,0.0,0.0,0.0
2025/05/14 12:38:33.962426420,1747219113,960090424,mA1/imu,0.7069633339678689,0.707249718997129,0.0002530677355172113,0.0007844490032764144,0.0,0.0,0.0,0.0,0.0,0.0,0.0,0.0,0.0,-7.253815428273809e-05,-0.001901219513343498,0.0017212415571846683,0.0,0.0,0.0,0.0,0.0,0.0,0.0,0.0,0.0,0.012123398281180146,0.6041028230888413,9.81104440324036,0.0,0.0,0.0,0.0,0.0,0.0,0.0,0.0,0.0
2025/05/14 12:38:34.6367772,1747219114,1354239,mA1/imu,0.7069936964023144,0.7072193451999473,0.00021527639426975793,0.000815278126687568,0.0,0.0,0.0,0.0,0.0,0.0,0.0,0.0,0.0,0.0015492876228577702,-0.001920015985927018,0.0017156378472249513,0.0,0.0,0.0,0.0,0.0,0.0,0.0,0.0,0.0,0.004877147410275022,0.08797854757073015,9.809301782875119,0.0,0.0,0.0,0.0,0.0,0.0,0.0,0.0,0.0
2025/05/14 12:38:34.57878119,1747219114,55094408,mA1/imu,0.7070236611376405,0.7071893519093667,0.0001837281425354444,0.0008540383518072503,0.0,0.0,0.0,0.0,0.0,0.0,0.0,0.0,0.0,0.001769922622253133,-0.002038136637285859,0.0016810931709205512,0.0,0.0,0.0,0.0,0.0,0.0,0.0,0.0,0.0,0.012572611129540182,-0.5179978129807388,9.807627874380437,0.0,0.0,0.0,0.0,0.0,0.0,0.0,0.0,0.0
2025/05/14 12:38:34.105294712,1747219114,104594293,mA1/imu,0.7070530709486982,0.7071599044151369,0.00015386444655093694,0.0008948605040814088,0.0,0.0,0.0,0.0,0.0,0.0,0.0,0.0,0.0,0.00024903622847787036,-0.0019272461148455284,0.0016584306377557872,0.0,0.0,0.0,0.0,0.0,0.0,0.0,0.0,0.0,0.0024005512528807588,-0.6261198602468603,9.810671329849342,0.0,0.0,0.0,0.0,0.0,0.0,0.0,0.0,0.0
2025/05/14 12:38:34.159630029,1747219114,158623763,mA1/imu,0.7070822755404639,0.7071306670200248,0.00012465726460131294,0.0009272739079735058,0.0,0.0,0.0,0.0,0.0,0.0,0.0,0.0,0.0,-0.0014885771935220506,-0.001674822075886969,0.0016404705684585725,0.0,0.0,0.0,0.0,0.0,0.0,0.0,0.0,0.0,0.012788964103668315,-0.10920315528256304,9.810670967992733,0.0,0.0,0.0,0.0,0.0,0.0,0.0,0.0,0.0
2025/05/14 12:38:34.210639709,1747219114,209315640,mA1/imu,0.7071110351872241,0.7071018823865906,9.40943450731889e-05,0.0009502568319511188,0.0,0.0,0.0,0.0,0.0,0.0,0.0,0.0,0.0,-0.001774570114824694,-0.0012984076134733122,0.0016244273270255177,0.0,0.0,0.0,0.0,0.0,0.0,0.0,0.0,0.0,0.0009079412138129975,0.5052925596920699,9.8100466002896,0.0,0.0,0.0,0.0,0.0,0.0,0.0,0.0,0.0
2025/05/14 12:38:34.253558969,1747219114,252218420,mA1/imu,0.7071394768545844,0.7070734238742095,6.769808101653136e-05,0.0009638161635334836,0.0,0.0,0.0,0.0,0.0,0.0,0.0,0.0,0.0,-0.0003369355953294083,-0.0010004954646940288,0.0015953225470050128,0.0,0.0,0.0,0.0,0.0,0.0,0.0,0.0,0.0,0.011537434379972403,0.6077491716550785,9.810252138868348,0.0,0.0,0.0,0.0,0.0,0.0,0.0,0.0,0.0
2025/05/14 12:38:34.304213002,1747219114,302818373,mA1/imu,0.7071674369144825,0.707045436136021,5.8414285478610654e-05,0.0009818323667058523,0.0,0.0,0.0,0.0,0.0,0.0,0.0,0.0,0.0,0.0003225802040658121,-0.0005582170384117539,0.0015806782222737281,0.0,0.0,0.0,0.0,0.0,0.0,0.0,0.0,0.0,0.00319672873926676,0.4414289329027268,9.809505278224158,0.0,0.0,0.0,0.0,0.0,0.0,0.0,0.0,0.0
2025/05/14 12:38:34.356669293,1747219114,354635002,mA1/imu,0.7071952786714628,0.7070175758893312,5.891446067366135e-05,0.0009908266509426047,0.0,0.0,0.0,0.0,0.0,0.0,0.0,0.0,0.0,-0.001225543334738984,-8.588844418814672e-05,0.001564689796322973,0.0,0.0,0.0,0.0,0.0,0.0,0.0,0.0,0.0,0.012360851562126176,0.5492096338988551,9.809253989359245,0.0,0.0,0.0,0.0,0.0,0.0,0.0,0.0,0.0
2025/05/14 12:38:34.409610112,1747219114,406360625,mA1/imu,0.7072234607642744,0.7069893896860551,6.330940266801227e-05,0.000987627390018116,0.0,0.0,0.0,0.0,0.0,0.0,0.0,0.0,0.0,0.0004953247742183947,0.0005683774155146931,0.0016923197038199724,0.0,0.0,0.0,0.0,0.0,0.0,0.0,0.0,0.0,-0.012026491456449238,0.2318458798245198,9.811538539350781,0.0,0.0,0.0,0.0,0.0,0.0,0.0,0.0,0.0
2025/05/14 12:38:34.460544862,1747219114,459044667,mA1/imu,0.7072606043705602,0.7069522501896339,9.861761476900893e-05,0.0009714585783240784,0.0,0.0,0.0,0.0,0.0,0.0,0.0,0.0,0.0,-0.0001923734409075836,0.002151277782268666,0.0025022162622010597,0.0,0.0,0.0,0.0,0.0,0.0,0.0,0.0,0.0,-0.035233722791331,-0.0033514035897751794,9.807291826820586,0.0,0.0,0.0,0.0,0.0,0.0,0.0,0.0,0.0
2025/05/14 12:38:34.514502045,1747219114,509872613,mA1/imu,0.7073080402569886,0.7069048472682772,0.00014132993705965544,0.0009236461881837807,0.0,0.0,0.0,0.0,0.0,0.0,0.0,0.0,0.0,-0.0011541915358942436,0.0026769208117287235,0.0026752041556699223,0.0,0.0,0.0,0.0,0.0,0.0,0.0,0.0,0.0,0.0054086020649796755,0.5608587901097181,9.809273012346694,0.0,0.0,0.0,0.0,0.0,0.0,0.0,0.0,0.0
2025/05/14 12:38:34.554235721,1747219114,550514169,mA1/imu,0.7073549853427855,0.7068579123780034,0.00019307280633419513,0.0008826903249737658,0.0,0.0,0.0,0.0,0.0,0.0,0.0,0.0,0.0,0.002403879156006204,0.002556814325442269,0.0026420118963744205,0.0,0.0,0.0,0.0,0.0,0.0,0.0,0.0,0.0,0.015127711758288507,-0.44849549737860434,9.808943869239876,0.0,0.0,0.0,0.0,0.0,0.0,0.0,0.0,0.0
2025/05/14 12:38:34.606783190,1747219114,603975415,mA1/imu,0.7074012072138163,0.706811680182999,0.00024530136536565414,0.000848891372067228,0.0,0.0,0.0,0.0,0.0,0.0,0.0,0.0,0.0,0.0009476544577921675,0.002299225781132613,0.0026019468787752353,0.0,0.0,0.0,0.0,0.0,0.0,0.0,0.0,0.0,0.016700519490090104,-0.5590618342678125,9.809420492757502,0.0,0.0,0.0,0.0,0.0,0.0,0.0,0.0,0.0
2025/05/14 12:38:34.665799588,1747219114,658163749,mA1/imu,0.707446727168907,0.7067661494013319,0.0002823536173444247,0.0008115139253662201,0.0,0.0,0.0,0.0,0.0,0.0,0.0,0.0,0.0,0.0007548580495743577,0.001945255053463572,0.0025608563720196783,0.0,0.0,0.0,0.0,0.0,0.0,0.0,0.0,0.0,0.01634541893074473,-0.5725976928842501,9.810066971817646,0.0,0.0,0.0,0.0,0.0,0.0,0.0,0.0,0.0
2025/05/14 12:38:34.710643000,1747219114,708621299,mA1/imu,0.7074915459091735,0.7067213067471368,0.0003113308213134559,0.000781108050557463,0.0,0.0,0.0,0.0,0.0,0.0,0.0,0.0,0.0,0.0006322200269925733,0.0014837692618585216,0.002522032241329446,0.0,0.0,0.0,0.0,0.0,0.0,0.0,0.0,0.0,0.01663644245672214,0.042312308364008566,9.811386813883967,0.0,0.0,0.0,0.0,0.0,0.0,0.0,0.0,0.0
2025/05/14 12:38:34.753692175,1747219114,752094901,mA1/imu,0.707535683875191,0.7066771244417732,0.00033655131190352084,0.0007645699359057696,0.0,0.0,0.0,0.0,0.0,0.0,0.0,0.0,0.0,-0.0009223632401943148,0.0009671146282153694,0.0024841768083633925,0.0,0.0,0.0,0.0,0.0,0.0,0.0,0.0,0.0,0.01645793785521178,0.5639885743715892,9.810722202823618,0.0,0.0,0.0,0.0,0.0,0.0,0.0,0.0,0.0
2025/05/14 12:38:34.807615747,1747219114,804662599,mA1/imu,0.7075792394316154,0.7066335154999079,0.0003515203116457721,0.0007557321539761598,0.0,0.0,0.0,0.0,0.0,0.0,0.0,0.0,0.0,-0.0007350188540848313,0.0005412105852864743,0.0024585738808634286,0.0,0.0,0.0,0.0,0.0,0.0,0.0,0.0,0.0,0.00631973693170096,-0.05538581121592268,9.80932656993639,0.0,0.0,0.0,0.0,0.0,0.0,0.0,0.0,0.0
2025/05/14 12:38:34.858167117,1747219114,856130374,mA1/imu,0.7076223386201701,0.7065903634759455,0.0003518927614425421,0.000748531987944288,0.0,0.0,0.0,0.0,0.0,0.0,0.0,0.0,0.0,0.0009110056192950111,-1.5487351342012974e-05,0.0024266331979665313,0.0,0.0,0.0,0.0,0.0,0.0,0.0,0.0,0.0,0.015567550848153172,-0.5752148226252684,9.81068885918963,0.0,0.0,0.0,0.0,0.0,0.0,0.0,0.0,0.0
2025/05/14 12:38:34.908671737,1747219114,906967648,mA1/imu,0.7076648767701085,0.7065477630996044,0.00034192990312600317,0.0007508187753947047,0.0,0.0,0.0,0.0,0.0,0.0,0.0,0.0,0.0,0.0008177045382076898,-0.0005690770572237609,0.0023957637395065207,0.0,0.0,0.0,0.0,0.0,0.0,0.0,0.0,0.0,0.01563566190058492,0.04154705513672254,9.81192438831078,0.0,0.0,0.0,0.0,0.0,0.0,0.0,0.0,0.0
2025/05/14 12:38:34.951239501,1747219114,950391113,mA1/imu,0.7077068817936754,0.7065056798462795,0.0003268647285290064,0.000766137238623066,0.0,0.0,0.0,0.0,0.0,0.0,0.0,0.0,0.0,-0.000697611574833557,-0.0010488356667725399,0.002366191203409133,0.0,0.0,0.0,0.0,0.0,0.0,0.0,0.0,0.0,0.014718159829685648,0.5659359855855768,9.810969430874154,0.0,0.0,0.0,0.0,0.0,0.0,0.0,0.0,0.0
2025/05/14 12:38:35.3369516,1747219115,216085,mA1/imu,0.7077480933893274,0.7064643825055194,0.00030293239238335986,0.0007879002683779369,0.0,0.0,0.0,0.0,0.0,0.0,0.0,0.0,0.0,-0.00041889527637062573,-0.001426578207025774,0.0022818051727350836,0.0,0.0,0.0,0.0,0.0,0.0,0.0,0.0,0.0,0.012330030180878894,-0.09661260220214364,9.809366208892339,0.0,0.0,0.0,0.0,0.0,0.0,0.0,0.0,0.0
2025/05/14 12:38:35.53746190,1747219115,51409577,mA1/imu,0.7077878475131137,0.7064245453857013,0.0002664478749629643,0.0008084521560852232,0.0,0.0,0.0,0.0,0.0,0.0,0.0,0.0,0.0,0.0011336343998550622,-0.0017239149819102272,0.0022360680568343136,0.0,0.0,0.0,0.0,0.0,0.0,0.0,0.0,0.0,0.012806526293180067,-0.5709824965274548,9.810439280137082,0.0,0.0,0.0,0.0,0.0,0.0,0.0,0.0,0.0
2025/05/14 12:38:35.102669552,1747219115,101646648,mA1/imu,0.7078270498441108,0.7063852474959544,0.0002280893032777025,0.0008352271137424083,0.0,0.0,0.0,0.0,0.0,0.0,0.0,0.0,0.0,0.0009271447196114992,-0.0019135375423254759,0.0022078812926055926,0.0,0.0,0.0,0.0,0.0,0.0,0.0,0.0,0.0,0.013004807624586268,0.04000023991063984,9.811489797263144,0.0,0.0,0.0,0.0,0.0,0.0,0.0,0.0,0.0
2025/05/14 12:38:35.153190759,1747219115,152568271,mA1/imu,0.7078657598544154,0.7063464263040353,0.00019279931055679887,0.0008688507782079484,0.0,0.0,0.0,0.0,0.0,0.0,0.0,0.0,0.0,-0.0006395665787252397,-0.0019625022431399575,0.002180939515670806,0.0,0.0,0.0,0.0,0.0,0.0,0.0,0.0,0.0,0.011905359631926573,0.5631983859350856,9.810370818361122,0.0,0.0,0.0,0.0,0.0,0.0,0.0,0.0,0.0
2025/05/14 12:38:35.209223701,1747219115,205747110,mA1/imu,0.7079040681930551,0.7063080072545924,0.00015372530120293972,0.0008974922289668783,0.0,0.0,0.0,0.0,0.0,0.0,0.0,0.0,0.0,0.0002989446763011262,-0.0018311553582694405,0.0021672296098543616,0.0,0.0,0.0,0.0,0.0,0.0,0.0,0.0,0.0,0.004278852614334168,-0.12360685760753352,9.810435228656475,0.0,0.0,0.0,0.0,0.0,0.0,0.0,0.0,0.0
2025/05/14 12:38:35.259747680,1747219115,258748338,mA1/imu,0.7079420604062016,0.7062699064384856,0.00011432818728636862,0.000919399945769258,0.0,0.0,0.0,0.0,0.0,0.0,0.0,0.0,0.0,0.001378058547523092,-0.001673973468921972,0.002136685056445857,0.0,0.0,0.0,0.0,0.0,0.0,0.0,0.0,0.0,0.011674717402715296,-0.5155912278756226,9.809311645857738,0.0,0.0,0.0,0.0,0.0,0.0,0.0,0.0,0.0
2025/05/14 12:38:35.311211266,1747219115,309284030,mA1/imu,0.7079794990955055,0.706232347663286,8.601679547230972e-05,0.0009447621876783508,0.0,0.0,0.0,0.0,0.0,0.0,0.0,0.0,0.0,-0.0003011123749476292,-0.001354615534588643,0.0021168052968463373,0.0,0.0,0.0,0.0,0.0,0.0,0.0,0.0,0.0,0.004245749948137896,0.5865235648437375,9.811157088524698,0.0,0.0,0.0,0.0,0.0,0.0,0.0,0.0,0.0
2025/05/14 12:38:35.352624097,1747219115,351701716,mA1/imu,0.7080165395282211,0.7061951894546911,6.474105505887109e-05,0.0009643412941887326,0.0,0.0,0.0,0.0,0.0,0.0,0.0,0.0,0.0,-0.0006248093261346779,-0.0010283348843633385,0.002083991953625781,0.0,0.0,0.0,0.0,0.0,0.0,0.0,0.0,0.0,0.011663348119715831,0.11084845138365693,9.809758909514013,0.0,0.0,0.0,0.0,0.0,0.0,0.0,0.0,0.0
2025/05/14 12:38:35.405046937,1747219115,400801871,mA1/imu,0.7080529704672351,0.7061586519458516,4.495017083769662e-05,0.0009732800339748454,0.0,0.0,0.0,0.0,0.0,0.0,0.0,0.0,0.0,0.0012109082218033252,-0.0006732239865109361,0.0020497668517858495,0.0,0.0,0.0,0.0,0.0,0.0,0.0,0.0,0.0,0.01131757680955046,-0.5596286273949718,9.808825659891385,0.0,0.0,0.0,0.0,0.0,0.0,0.0,0.0,0.0
2025/05/14 12:38:35.452969390,1747219115,452136251,mA1/imu,0.7080887857672896,0.7061227272053318,3.8695399221448266e-05,0.0009818846041137906,0.0,0.0,0.0,0.0,0.0,0.0,0.0,0.0,0.0,0.00023627995890432624,-0.0002701628068958779,0.0020163053132769768,0.0,0.0,0.0,0.0,0.0,0.0,0.0,0.0,0.0,0.011483920458888072,-0.6249916306782002,9.809548663727378,0.0,0.0,0.0,0.0,0.0,0.0,0.0,0.0,0.0
2025/05/14 12:38:35.503766816,1747219115,502157948,mA1/imu,0.7081291710289084,0.706082247923492,3.9346141429332e-05,0.0009668283719689107,0.0,0.0,0.0,0.0,0.0,0.0,0.0,0.0,0.0,-0.0007849991531027556,0.0017323025991874297,0.002948674331937927,0.0,0.0,0.0,0.0,0.0,0.0,0.0,0.0,0.0,-0.10801757435430556,0.3246827198144063,9.809187601023877,0.0,0.0,0.0,0.0,0.0,0.0,0.0,0.0,0.0
2025/05/14 12:38:35.559955088,1747219115,556235888,mA1/imu,0.7081851791101988,0.7060261252534515,7.504963924185741e-05,0.0009256974694318311,0.0,0.0,0.0,0.0,0.0,0.0,0.0,0.0,0.0,-0.0009200388232094537,0.0022901427347461665,0.0031951271451807774,0.0,0.0,0.0,0.0,0.0,0.0,0.0,0.0,0.0,0.016506523069544286,0.5548198653769568,9.808356267139985,0.0,0.0,0.0,0.0,0.0,0.0,0.0,0.0,0.0
2025/05/14 12:38:35.609651293,1747219115,607143549,mA1/imu,0.708241001452903,0.7059701792225974,0.0001124653142003545,0.000881624044538295,0.0,0.0,0.0,0.0,0.0,0.0,0.0,0.0,0.0,0.0006655845699811215,0.0022994648821930796,0.003141095703677872,0.0,0.0,0.0,0.0,0.0,0.0,0.0,0.0,0.0,0.016080850326054955,0.03953460060769169,9.809478068306026,0.0,0.0,0.0,0.0,0.0,0.0,0.0,0.0,0.0
2025/05/14 12:38:35.664720364,1747219115,660453856,mA1/imu,0.7082958550352875,0.7059151785764552,0.00015727261394676823,0.0008471484681681571,0.0,0.0,0.0,0.0,0.0,0.0,0.0,0.0,0.0,-0.00010036295029872079,0.002178524155599673,0.003088616043892516,0.0,0.0,0.0,0.0,0.0,0.0,0.0,0.0,0.0,0.016829279887969277,-0.07033293054243157,9.808964821423046,0.0,0.0,0.0,0.0,0.0,0.0,0.0,0.0,0.0
2025/05/14 12:38:35.713723943,1747219115,709870296,mA1/imu,0.7083573580863711,0.7058535047175586,0.00020500838805256812,0.0008006837058010968,0.0,0.0,0.0,0.0,0.0,0.0,0.0,0.0,0.0,-0.0001343375900244617,0.0031165727483877846,0.003884294683198241,0.0,0.0,0.0,0.0,0.0,0.0,0.0,0.0,0.0,-0.026294568343406443,-0.6331555696843286,9.809275903618065,0.0,0.0,0.0,0.0,0.0,0.0,0.0,0.0,0.0
2025/05/14 12:38:35.757558780,1747219115,752551503,mA1/imu,0.7084285391853298,0.7057821163644646,0.0002518037025348346,0.0007387034129038143,0.0,0.0,0.0,0.0,0.0,0.0,0.0,0.0,0.0,0.0005901030773458299,0.002945483120268521,0.004086667893567722,0.0,0.0,0.0,0.0,0.0,0.0,0.0,0.0,0.0,0.023294848277096665,-0.36610063709027263,9.809633729914356,0.0,0.0,0.0,0.0,0.0,0.0,0.0,0.0,0.0
2025/05/14 12:38:35.803755639,1747219115,802425510,mA1/imu,0.7084998272375362,0.7057105825480751,0.0002947663925794226,0.0006939717657784421,0.0,0.0,0.0,0.0,0.0,0.0,0.0,0.0,0.0,0.00023626565822670333,0.0021452578708730935,0.0040098855824320994,0.0,0.0,0.0,0.0,0.0,0.0,0.0,0.0,0.0,0.024128498457474813,0.017563081185719705,9.80979226955368,0.0,0.0,0.0,0.0,0.0,0.0,0.0,0.0,0.0
2025/05/14 12:38:35.854469062,1747219115,853498113,mA1/imu,0.7085697063735569,0.7056404323137924,0.00032515112135489454,0.0006676604253871011,0.0,0.0,0.0,0.0,0.0,0.0,0.0,0.0,0.0,-0.00036555526916663076,0.0012262149268284668,0.0039302926097587705,0.0,0.0,0.0,0.0,0.0,0.0,0.0,0.0,0.0,0.024031392688222426,-0.062406944901487696,9.810678824574255,0.0,0.0,0.0,0.0,0.0,0.0,0.0,0.0,0.0
2025/05/14 12:38:35.905010967,1747219115,903665640,mA1/imu,0.7086402978065993,0.7055695479776658,0.0003392791113556857,0.0006528252839583948,0.0,0.0,0.0,0.0,0.0,0.0,0.0,0.0,0.0,0.0005429703405606038,0.0008179244564679069,0.00424804512036513,0.0,0.0,0.0,0.0,0.0,0.0,0.0,0.0,0.0,-0.021127085470793876,-0.5752073165526027,9.8101104319378,0.0,0.0,0.0,0.0,0.0,0.0,0.0,0.0,0.0
2025/05/14 12:38:35.960118907,1747219115,957743491,mA1/imu,0.7087206650240185,0.7054888302810212,0.00035007979361745083,0.0006377779921904979,0.0,0.0,0.0,0.0,0.0,0.0,0.0,0.0,0.0,0.0005089355956417968,0.0003500345081581378,0.004561956651467975,0.0,0.0,0.0,0.0,0.0,0.0,0.0,0.0,0.0,0.026407685183039365,0.0052598381335434395,9.810478757955401,0.0,0.0,0.0,0.0,0.0,0.0,0.0,0.0,0.0
2025/05/14 12:38:36.7720110,1747219116,6532001,mA1/imu,0.7088002598548682,0.705408860010058,0.0003452423309930129,0.0006423836197158351,0.0,0.0,0.0,0.0,0.0,0.0,0.0,0.0,0.0,-5.101176241197327e-05,-0.0006236097373314737,0.004487286432760485,0.0,0.0,0.0,0.0,0.0,0.0,0.0,0.0,0.0,0.018017265794335338,0.2334319989211989,9.811048256820975,0.0,0.0,0.0,0.0,0.0,0.0,0.0,0.0,0.0
2025/05/14 12:38:36.60599062,1747219116,58000547,mA1/imu,0.7088785934453232,0.7053301265672944,0.0003268437237811667,0.0006674464209463518,0.0,0.0,0.0,0.0,0.0,0.0,0.0,0.0,0.0,-0.000548643453174729,-0.0016485982655292941,0.0044258175137381565,0.0,0.0,0.0,0.0,0.0,0.0,0.0,0.0,0.0,0.027300282257680712,-0.026659577304415632,9.812067764419957,0.0,0.0,0.0,0.0,0.0,0.0,0.0,0.0,0.0
2025/05/14 12:38:36.108672491,1747219116,108035097,mA1/imu,0.7089568580597772,0.7052514452458052,0.0002824675736563169,0.0007018552428027975,0.0,0.0,0.0,0.0,0.0,0.0,0.0,0.0,0.0,0.0012015594309241686,-0.0026029521454932667,0.00442158491160663,0.0,0.0,0.0,0.0,0.0,0.0,0.0,0.0,0.0,0.025956596007233865,-0.5401741438844269,9.811258025942658,0.0,0.0,0.0,0.0,0.0,0.0,0.0,0.0,0.0
2025/05/14 12:38:36.154005690,1747219116,151262201,mA1/imu,0.7090339696062155,0.7051738816471637,0.0002302911857395259,0.0007573328819269764,0.0,0.0,0.0,0.0,0.0,0.0,0.0,0.0,0.0,-0.00048119399670476596,-0.0033200639570286693,0.004341349847918861,0.0,0.0,0.0,0.0,0.0,0.0,0.0,0.0,0.0,0.023936762298829822,0.6029966353309455,9.81183027990724,0.0,0.0,0.0,0.0,0.0,0.0,0.0,0.0,0.0
2025/05/14 12:38:36.203201366,1747219116,201115459,mA1/imu,0.7091097250238991,0.705097649461927,0.00016592519919518653,0.0008216255984255141,0.0,0.0,0.0,0.0,0.0,0.0,0.0,0.0,0.0,1.2981444911919365e-05,-0.0038196343952900487,0.0042665509246218244,0.0,0.0,0.0,0.0,0.0,0.0,0.0,0.0,0.0,0.022512460557970605,-0.1668945345287564,9.810381938722728,0.0,0.0,0.0,0.0,0.0,0.0,0.0,0.0,0.0
2025/05/14 12:38:36.256219459,1747219116,252105764,mA1/imu,0.709184198227277,0.7050226765641919,9.216526843017138e-05,0.0008888310078596728,0.0,0.0,0.0,0.0,0.0,0.0,0.0,0.0,0.0,0.0006885097547115886,-0.004065544565531162,0.004195882706945124,0.0,0.0,0.0,0.0,0.0,0.0,0.0,0.0,0.0,0.020905856341769308,-0.012833880649203995,9.810933827427204,0.0,0.0,0.0,0.0,0.0,0.0,0.0,0.0,0.0
2025/05/14 12:38:36.304605841,1747219116,303776777,mA1/imu,0.7092572298524197,0.7049491149856925,2.1899056922863424e-05,0.0009626543471912608,0.0,0.0,0.0,0.0,0.0,0.0,0.0,0.0,0.0,-0.0008115290188413729,-0.004076354965995815,0.004088136555302431,0.0,0.0,0.0,0.0,0.0,0.0,0.0,0.0,0.0,0.024137176388472747,0.5757798786888105,9.812054961913741,0.0,0.0,0.0,0.0,0.0,0.0,0.0,0.0,0.0
2025/05/14 12:38:36.362278133,1747219116,356836080,mA1/imu,0.7093288850018289,0.7048769149978676,-4.556508804108865e-05,0.0010322446287657956,0.0,0.0,0.0,0.0,0.0,0.0,0.0,0.0,0.0,-0.0007047153573214579,-0.0036949759194148243,0.004058625425554302,0.0,0.0,0.0,0.0,0.0,0.0,0.0,0.0,0.0,0.0168506150519563,-0.037061107783210034,9.810363729159542,0.0,0.0,0.0,0.0,0.0,0.0,0.0,0.0,0.0
2025/05/14 12:38:36.408869018,1747219116,407487124,mA1/imu,0.7093989337189883,0.7048063228132014,-0.00010854862750700283,0.0010901275572967922,0.0,0.0,0.0,0.0,0.0,0.0,0.0,0.0,0.0,-0.0011396239559456304,-0.0032888835468998442,0.0038297986557668242,0.0,0.0,0.0,0.0,0.0,0.0,0.0,0.0,0.0,0.031162333765989984,0.5502926450302353,9.812407190542475,0.0,0.0,0.0,0.0,0.0,0.0,0.0,0.0,0.0
2025/05/14 12:38:36.463580842,1747219116,459812131,mA1/imu,0.7094644374515067,0.7047403026827338,-0.0001622913657822484,0.0011364100397443328,0.0,0.0,0.0,0.0,0.0,0.0,0.0,0.0,0.0,0.001224775934046449,-0.002426528994942855,0.0036897356137659456,0.0,0.0,0.0,0.0,0.0,0.0,0.0,0.0,0.0,0.0059913816193200835,-0.08360051447923839,9.810768491263978,0.0,0.0,0.0,0.0,0.0,0.0,0.0,0.0,0.0
2025/05/14 12:38:36.501670060,1747219116,500838974,mA1/imu,0.709528377993123,0.7046758535637034,-0.00018583201761332392,0.0011780038943818877,0.0,0.0,0.0,0.0,0.0,0.0,0.0,0.0,0.0,-0.0007077924181261075,-0.0015019052450898915,0.0035598684635531493,0.0,0.0,0.0,0.0,0.0,0.0,0.0,0.0,0.0,0.01637690655129484,-0.1082806580335605,9.807373696092359,0.0,0.0,0.0,0.0,0.0,0.0,0.0,0.0,0.0
2025/05/14 12:38:36.556466099,1747219116,554330330,mA1/imu,0.7095913560952221,0.7046124113834006,-0.00020014768934284118,0.0011903866244304345,0.0,0.0,0.0,0.0,0.0,0.0,0.0,0.0,0.0,0.00020928235569832066,-0.00025477342796796236,0.0035901028357791624,0.0,0.0,0.0,0.0,0.0,0.0,0.0,0.0,0.0,0.0053392379158749455,-0.6064782173713525,9.808062403931213,0.0,0.0,0.0,0.0,0.0,0.0,0.0,0.0,0.0
2025/05/14 12:38:36.600705451,1747219116,600014999,mA1/imu,0.7096509864514576,0.7045523729074199,-0.0002009768379511018,0.0011793503751514989,0.0,0.0,0.0,0.0,0.0,0.0,0.0,0.0,0.0,0.0015538746787214,0.0005031935361476763,0.0031609476222489385,0.0,0.0,0.0,0.0,0.0,0.0,0.0,0.0,0.0,0.02759668332503591,-0.525323641664878,9.807985991452808,0.0,0.0,0.0,0.0,0.0,0.0,0.0,0.0,0.0
2025/05/14 12:38:36.655130716,1747219116,652936736,mA1/imu,0.7097066728233113,0.7044963226271882,-0.00017781568508510573,0.001156864908268524,0.0,0.0,0.0,0.0,0.0,0.0,0.0,0.0,0.0,-0.00011411204479256764,0.0017615947234458555,0.0031462782688891425,0.0,0.0,0.0,0.0,0.0,0.0,0.0,0.0,0.0,0.006878270081279496,0.6335133947505569,9.809112906418719,0.0,0.0,0.0,0.0,0.0,0.0,0.0,0.0,0.0
2025/05/14 12:38:36.705881821,1747219116,703101032,mA1/imu,0.7097614463634083,0.7044412116758934,-0.00012930751327903977,0.0011188513257080301,0.0,0.0,0.0,0.0,0.0,0.0,0.0,0.0,0.0,-0.001543480748430137,0.0029397450725516853,0.0030683621875650853,0.0,0.0,0.0,0.0,0.0,0.0,0.0,0.0,0.0,0.0010448326785205478,0.5295247667134554,9.807720316337553,0.0,0.0,0.0,0.0,0.0,0.0,0.0,0.0,0.0
2025/05/14 12:38:36.756533531,1747219116,755284455,mA1/imu,0.709814834069585,0.7043875238236532,-6.800633446881746e-05,0.0010549841176777396,0.0,0.0,0.0,0.0,0.0,0.0,0.0,0.0,0.0,0.0002449258637186819,0.003931744529623468,0.003042283714495624,0.0,0.0,0.0,0.0,0.0,0.0,0.0,0.0,0.0,0.003996943010184483,-0.6083427749763916,9.807560786343041,0.0,0.0,0.0,0.0,0.0,0.0,0.0,0.0,0.0
2025/05/14 12:38:36.807770040,1747219116,805847287,mA1/imu,0.7098680849664911,0.7043339830719916,2.0714935713817646e-06,0.0009706861793350251,0.0,0.0,0.0,0.0,0.0,0.0,0.0,0.0,0.0,0.0016932991751379106,0.004544881658641799,0.0029695357267109992,0.0,0.0,0.0,0.0,0.0,0.0,0.0,0.0,0.0,0.014599112893935357,-0.5134173208849054,9.807610246258776,0.0,0.0,0.0,0.0,0.0,0.0,0.0,0.0,0.0
2025/05/14 12:38:36.858181751,1747219116,856912396,mA1/imu,0.709919695557203,0.7042820708531083,8.729495008297819e-05,0.0008848245118513068,0.0,0.0,0.0,0.0,0.0,0.0,0.0,0.0,0.0,-0.0003224423060820073,0.004989300932407183,0.002913330502999549,0.0,0.0,0.0,0.0,0.0,0.0,0.0,0.0,0.0,0.008190716432654732,0.4488294275234578,9.808912983393475,0.0,0.0,0.0,0.0,0.0,0.0,0.0,0.0,0.0
2025/05/14 12:38:36.910105036,1747219116,908584640,mA1/imu,0.7099703948763217,0.7042310535997085,0.00017807195646014792,0.0007936216873472274,0.0,0.0,0.0,0.0,0.0,0.0,0.0,0.0,0.0,-0.00019786498382604476,0.005245277029969028,0.002842105230786916,0.0,0.0,0.0,0.0,0.0,0.0,0.0,0.0,0.0,0.0028886280952801335,-0.22798780091233137,9.807614174711109,0.0,0.0,0.0,0.0,0.0,0.0,0.0,0.0,0.0
2025/05/14 12:38:36.953431607,1747219116,950626142,mA1/imu,0.7100198303052991,0.7041812904365182,0.00026302921377406954,0.0006939654364996793,0.0,0.0,0.0,0.0,0.0,0.0,0.0,0.0,0.0,-0.0008437992750239886,0.005160727360403166,0.002790703861434587,0.0,0.0,0.0,0.0,0.0,0.0,0.0,0.0,0.0,0.009158397302061212,0.4049269572828791,9.809574230840218,0.0,0.0,0.0,0.0,0.0,0.0,0.0,0.0,0.0
2025/05/14 12:38:37.3071758,1747219117,1897782,mA1/imu,0.7100675640979444,0.7041332082680849,0.0003438351817913379,0.0006010053853170748,0.0,0.0,0.0,0.0,0.0,0.0,0.0,0.0,0.0,0.0007298115020694512,0.004631248654110684,0.002574208428846437,0.0,0.0,0.0,0.0,0.0,0.0,0.0,0.0,0.0,0.021391775394925972,-0.38540389621689297,9.808460603389173,0.0,0.0,0.0,0.0,0.0,0.0,0.0,0.0,0.0
2025/05/14 12:38:37.56301967,1747219117,53058665,mA1/imu,0.7101117078182546,0.7040887154582322,0.0004149487809686521,0.0005205778785848685,0.0,0.0,0.0,0.0,0.0,0.0,0.0,0.0,0.0,-0.000318896049583375,0.004036554985922374,0.0024831888297311934,0.0,0.0,0.0,0.0,0.0,0.0,0.0,0.0,0.0,0.007899060733851573,0.5260175914806106,9.810745727528301,0.0,0.0,0.0,0.0,0.0,0.0,0.0,0.0,0.0
2025/05/14 12:38:37.106341984,1747219117,103141112,mA1/imu,0.710154764205759,0.7040452964330518,0.00047491397580759086,0.0004537654399188866,0.0,0.0,0.0,0.0,0.0,0.0,0.0,0.0,0.0,0.00012189123084629405,0.0032562640464200827,0.0024248557924259804,0.0,0.0,0.0,0.0,0.0,0.0,0.0,0.0,0.0,0.007261431908249712,-0.23667542758665866,9.809931302057304,0.0,0.0,0.0,0.0,0.0,0.0,0.0,0.0,0.0
2025/05/14 12:38:37.156165104,1747219117,154271928,mA1/imu,0.7101968216238388,0.7040028805479759,0.0005119596436519987,0.00039576871140619996,0.0,0.0,0.0,0.0,0.0,0.0,0.0,0.0,0.0,0.0019527823143376411,0.0022843403411439128,0.002369016645629422,0.0,0.0,0.0,0.0,0.0,0.0,0.0,0.0,0.0,0.007901911010791136,-0.5035291040846976,9.81026073110037,0.0,0.0,0.0,0.0,0.0,0.0,0.0,0.0,0.0
2025/05/14 12:38:37.210040005,1747219117,207103205,mA1/imu,0.7102379146834282,0.7039614200606321,0.0005392387133890279,0.0003644639405577136,0.0,0.0,0.0,0.0,0.0,0.0,0.0,0.0,0.0,0.0008151037649011038,0.001203833174946061,0.0023146317574738334,0.0,0.0,0.0,0.0,0.0,0.0,0.0,0.0,0.0,0.008618098372237218,-0.5833853852267703,9.810604750312237,0.0,0.0,0.0,0.0,0.0,0.0,0.0,0.0,0.0
2025/05/14 12:38:37.258853190,1747219117,258143801,mA1/imu,0.7102780880134134,0.7039208935212662,0.0005410195597899926,0.0003473471863987917,0.0,0.0,0.0,0.0,0.0,0.0,0.0,0.0,0.0,-8.932951398895234e-05,7.445441984866196e-05,0.002261826679612845,0.0,0.0,0.0,0.0,0.0,0.0,0.0,0.0,0.0,0.00845341497712146,-0.01494104978661401,9.811032378418515,0.0,0.0,0.0,0.0,0.0,0.0,0.0,0.0,0.0
2025/05/14 12:38:37.311077592,1747219117,308729147,mA1/imu,0.7103176314200018,0.7038809989215806,0.0005258192234143106,0.0003540694575258853,0.0,0.0,0.0,0.0,0.0,0.0,0.0,0.0,0.0,-0.0006824167075185648,-0.0010853393962989828,0.0022605082176322734,0.0,0.0,0.0,0.0,0.0,0.0,0.0,0.0,0.0,0.00982184803200146,-0.04812372868334393,9.811526426995465,0.0,0.0,0.0,0.0,0.0,0.0,0.0,0.0,0.0
2025/05/14 12:38:37.355394206,1747219117,351155184,mA1/imu,0.7103573372494594,0.7038409383865329,0.0004910257353281017,0.0003817862617828263,0.0,0.0,0.0,0.0,0.0,0.0,0.0,0.0,0.0,-0.0006825053600170152,-0.002207309064167401,0.0022439177516603978,0.0,0.0,0.0,0.0,0.0,0.0,0.0,0.0,0.0,0.009565760334680845,-0.05180110585562486,9.813470709422521,0.0,0.0,0.0,0.0,0.0,0.0,0.0,0.0,0.0
2025/05/14 12:38:37.403230593,1747219117,402039192,mA1/imu,0.7103987327627308,0.7037991775660066,0.0004313672916209924,0.0004148117388805408,0.0,0.0,0.0,0.0,0.0,0.0,0.0,0.0,0.0,0.00022202769981654366,-0.0025781986018718842,0.002633843481905449,0.0,0.0,0.0,0.0,0.0,0.0,0.0,0.0,0.0,-0.03800416125269341,0.02795957649963836,9.808078837052353,0.0,0.0,0.0,0.0,0.0,0.0,0.0,0.0,0.0
2025/05/14 12:38:37.454064976,1747219117,453107983,mA1/imu,0.7104516230574989,0.7037457950137269,0.000378296055993632,0.00045187117309035716,0.0,0.0,0.0,0.0,0.0,0.0,0.0,0.0,0.0,0.0009570329801602865,-0.002838123157411808,0.003036819426915962,0.0,0.0,0.0,0.0,0.0,0.0,0.0,0.0,0.0,0.010271866255706962,0.4181157372716604,9.81160098948184,0.0,0.0,0.0,0.0,0.0,0.0,0.0,0.0,0.0
2025/05/14 12:38:37.507740860,1747219117,506227220,mA1/imu,0.7105047648853785,0.7036921280615236,0.0003231567919195781,0.0005133703389924737,0.0,0.0,0.0,0.0,0.0,0.0,0.0,0.0,0.0,-0.0011470757841223719,-0.003588546933966011,0.003005555867497075,0.0,0.0,0.0,0.0,0.0,0.0,0.0,0.0,0.0,0.011484377884579192,0.5556720675645559,9.811828217714204,0.0,0.0,0.0,0.0,0.0,0.0,0.0,0.0,0.0
2025/05/14 12:38:37.561665491,1747219117,559083012,mA1/imu,0.7105572868469431,0.703639074316214,0.0002479040467311146,0.000577709023840764,0.0,0.0,0.0,0.0,0.0,0.0,0.0,0.0,0.0,0.00102131285813566,-0.004149047579873171,0.0029690503390261917,0.0,0.0,0.0,0.0,0.0,0.0,0.0,0.0,0.0,0.009600722985444513,-0.5466647604317829,9.809053175685227,0.0,0.0,0.0,0.0,0.0,0.0,0.0,0.0,0.0
2025/05/14 12:38:37.615472469,1747219117,609816328,mA1/imu,0.7106115717525833,0.7035842100166101,0.00017263913089962551,0.000650924232464697,0.0,0.0,0.0,0.0,0.0,0.0,0.0,0.0,0.0,0.0013637853355072966,-0.003956415185926199,0.0033892639881617634,0.0,0.0,0.0,0.0,0.0,0.0,0.0,0.0,0.0,-0.03461417126792406,-0.3970298262047291,9.809904924778463,0.0,0.0,0.0,0.0,0.0,0.0,0.0,0.0,0.0
2025/05/14 12:38:37.656072047,1747219117,652321439,mA1/imu,0.7106722505687825,0.7035228640624974,0.00010455265521550457,0.0007218597819449734,0.0,0.0,0.0,0.0,0.0,0.0,0.0,0.0,0.0,0.0007202540278250842,-0.003965595320523171,0.003453463899831945,0.0,0.0,0.0,0.0,0.0,0.0,0.0,0.0,0.0,0.010212141896748426,-0.5544534981690785,9.810388655969094,0.0,0.0,0.0,0.0,0.0,0.0,0.0,0.0,0.0
2025/05/14 12:38:37.704023525,1747219117,701776597,mA1/imu,0.7107329145420075,0.7034615044844563,3.9930541057970595e-05,0.0007964299344511518,0.0,0.0,0.0,0.0,0.0,0.0,0.0,0.0,0.0,0.0007697371745440078,-0.003903511683741177,0.0034470459951061595,0.0,0.0,0.0,0.0,0.0,0.0,0.0,0.0,0.0,0.010681824782366985,-0.5431494376864885,9.807740697868244,0.0,0.0,0.0,0.0,0.0,0.0,0.0,0.0,0.0
2025/05/14 12:38:37.759121541,1747219117,756199785,mA1/imu,0.7107934719724307,0.7034002380724048,-2.504003387996626e-05,0.0008629334031449115,0.0,0.0,0.0,0.0,0.0,0.0,0.0,0.0,0.0,0.0012858710609000793,-0.003580723990897462,0.0034413012268559194,0.0,0.0,0.0,0.0,0.0,0.0,0.0,0.0,0.0,0.008347833547245337,-0.4993259180389111,9.807183593315301,0.0,0.0,0.0,0.0,0.0,0.0,0.0,0.0,0.0
2025/05/14 12:38:37.808790546,1747219117,806989868,mA1/imu,0.7108564429387457,0.7033365166892566,-7.05743424864731e-05,0.000925658230099546,0.0,0.0,0.0,0.0,0.0,0.0,0.0,0.0,0.0,-0.0001405276587797644,-0.0026225730943499025,0.003733767250421599,0.0,0.0,0.0,0.0,0.0,0.0,0.0,0.0,0.0,-0.009161565563329668,0.03326175314831025,9.810510942529591,0.0,0.0,0.0,0.0,0.0,0.0,0.0,0.0,0.0
2025/05/14 12:38:37.859281206,1747219117,858280580,mA1/imu,0.7109221688160352,0.7032700190651868,-0.00010666114707103859,0.0009689134924834343,0.0,0.0,0.0,0.0,0.0,0.0,0.0,0.0,0.0,0.00029892270675074394,-0.0019733634537529876,0.0037423851576556056,0.0,0.0,0.0,0.0,0.0,0.0,0.0,0.0,0.0,0.008705435368866586,0.06835946542835937,9.809380848418181,0.0,0.0,0.0,0.0,0.0,0.0,0.0,0.0,0.0
2025/05/14 12:38:37.913128683,1747219117,909794674,mA1/imu,0.7109879189363517,0.703203488458364,-0.00012155535614445412,0.0010090445176950786,0.0,0.0,0.0,0.0,0.0,0.0,0.0,0.0,0.0,-5.7165043725596256e-05,-0.001288409188865548,0.0037267849652971663,0.0,0.0,0.0,0.0,0.0,0.0,0.0,0.0,0.0,0.012147628781567315,-0.15268452305989905,9.807518138516471,0.0,0.0,0.0,0.0,0.0,0.0,0.0,0.0,0.0
2025/05/14 12:38:37.952903166,1747219117,950710266,mA1/imu,0.7110528218740754,0.7031378232326908,-0.000126324505618979,0.0010344499151598175,0.0,0.0,0.0,0.0,0.0,0.0,0.0,0.0,0.0,-0.0008643131945104501,-0.0005494174525253744,0.003678814040880666,0.0,0.0,0.0,0.0,0.0,0.0,0.0,0.0,0.0,0.009288684250034308,-0.010266134802418857,9.808496432036165,0.0,0.0,0.0,0.0,0.0,0.0,0.0,0.0,0.0
2025/05/14 12:38:38.1612844,1747219118,579211,mA1/imu,0.7111175400950078,0.7030723586871332,-0.00011981322221457272,0.0010431989875594996,0.0,0.0,0.0,0.0,0.0,0.0,0.0,0.0,0.0,-0.0002984258898462432,0.0002524560268420327,0.0036855735634839554,0.0,0.0,0.0,0.0,0.0,0.0,0.0,0.0,0.0,0.009736875541056608,0.027930509316049273,9.809083369610557,0.0,0.0,0.0,0.0,0.0,0.0,0.0,0.0,0.0
2025/05/14 12:38:38.53641436,1747219118,51907633,mA1/imu,0.7111826816983841,0.7030064788708706,-9.631826845698117e-05,0.0010366487669029448,0.0,0.0,0.0,0.0,0.0,0.0,0.0,0.0,0.0,-0.0003252907688578818,0.001187858174848973,0.0037125130866605387,0.0,0.0,0.0,0.0,0.0,0.0,0.0,0.0,0.0,0.009545069013280536,0.16023585717198258,9.808610553441763,0.0,0.0,0.0,0.0,0.0,0.0,0.0,0.0,0.0
2025/05/14 12:38:38.103286226,1747219118,102568874,mA1/imu,0.7112479691705131,0.7029404561096301,-5.67393970060663e-05,0.0010189680303661047,0.0,0.0,0.0,0.0,0.0,0.0,0.0,0.0,0.0,-3.074692103229053e-06,0.001890492509249244,0.003717953736664892,0.0,0.0,0.0,0.0,0.0,0.0,0.0,0.0,0.0,0.009794207520308915,-0.2436055513205282,9.809040334890236,0.0,0.0,0.0,0.0,0.0,0.0,0.0,0.0,0.0
2025/05/14 12:38:38.155767149,1747219118,154247183,mA1/imu,0.7113133446058828,0.7028743546420856,-1.2286129928247981e-05,0.0009834740034793728,0.0,0.0,0.0,0.0,0.0,0.0,0.0,0.0,0.0,-0.0005958332393673303,0.0024860453436932246,0.0037222848694940416,0.0,0.0,0.0,0.0,0.0,0.0,0.0,0.0,0.0,0.010837814082187511,0.14954271942222924,9.810342147644922,0.0,0.0,0.0,0.0,0.0,0.0,0.0,0.0,0.0
2025/05/14 12:38:38.204874525,1747219118,203960401,mA1/imu,0.7113789013564684,0.7028080655105802,4.0834738056101866e-05,0.0009381314748831884,0.0,0.0,0.0,0.0,0.0,0.0,0.0,0.0,0.0,0.0005196247261433567,0.003021895407724432,0.0037467010747621893,0.0,0.0,0.0,0.0,0.0,0.0,0.0,0.0,0.0,0.002125940489089595,0.26549629345129616,9.80952912445957,0.0,0.0,0.0,0.0,0.0,0.0,0.0,0.0,0.0
2025/05/14 12:38:38.261495929,1747219118,257188828,mA1/imu,0.711444791311236,0.7027414235756869,0.00010468571105517847,0.0008885650404116714,0.0,0.0,0.0,0.0,0.0,0.0,0.0,0.0,0.0,0.00067363826807857,0.003281591710194197,0.003752885099817871,0.0,0.0,0.0,0.0,0.0,0.0,0.0,0.0,0.0,0.011839794417194896,0.17207877257078194,9.810895891692887,0.0,0.0,0.0,0.0,0.0,0.0,0.0,0.0,0.0
2025/05/14 12:38:38.306411977,1747219118,305799000,mA1/imu,0.7115109974262288,0.7026744337393923,0.0001752264414368915,0.0008426186869820852,0.0,0.0,0.0,0.0,0.0,0.0,0.0,0.0,0.0,-0.00037099162705218815,0.003242125665731154,0.003812366879639927,0.0,0.0,0.0,0.0,0.0,0.0,0.0,0.0,0.0,0.01652813046237109,-0.033144308946339296,9.813232733142687,0.0,0.0,0.0,0.0,0.0,0.0,0.0,0.0,0.0
2025/05/14 12:38:38.359994825,1747219118,356851401,mA1/imu,0.7115782112521732,0.70260641638243,0.00023044283506361117,0.0007872899699318135,0.0,0.0,0.0,0.0,0.0,0.0,0.0,0.0,0.0,-6.41635669354273e-05,0.003013145794760721,0.003830428005931423,0.0,0.0,0.0,0.0,0.0,0.0,0.0,0.0,0.0,0.016661420607743567,-0.6176154550984575,9.811488056586754,0.0,0.0,0.0,0.0,0.0,0.0,0.0,0.0,0.0
2025/05/14 12:38:38.410040420,1747219118,408791136,mA1/imu,0.7116454215942754,0.7025383800502705,0.00027701799071570507,0.0007360307608985429,0.0,0.0,0.0,0.0,0.0,0.0,0.0,0.0,0.0,0.0007622080607508972,0.0025728126452283897,0.0038247926510289144,0.0,0.0,0.0,0.0,0.0,0.0,0.0,0.0,0.0,0.017223831845644633,-0.565752073601069,9.810535634165166,0.0,0.0,0.0,0.0,0.0,0.0,0.0,0.0,0.0
2025/05/14 12:38:38.460669912,1747219118,459897060,mA1/imu,0.7117124954234398,0.7024704581516777,0.00031397458742680117,0.0006933269579008937,0.0,0.0,0.0,0.0,0.0,0.0,0.0,0.0,0.0,8.967403165028378e-05,0.002010897881484208,0.003816950493894945,0.0,0.0,0.0,0.0,0.0,0.0,0.0,0.0,0.0,0.017633561361110085,0.009131896403412776,9.813123593805178,0.0,0.0,0.0,0.0,0.0,0.0,0.0,0.0,0.0
2025/05/14 12:38:38.515850921,1747219118,509949152,mA1/imu,0.7117868376847285,0.7023951525417131,0.00034974305617716255,0.0006519696866057513,0.0,0.0,0.0,0.0,0.0,0.0,0.0,0.0,0.0,0.00025370211602611,0.0024792699018710137,0.004656862992732366,0.0,0.0,0.0,0.0,0.0,0.0,0.0,0.0,0.0,-0.028180864362512686,0.019543583012049396,9.815194801543806,0.0,0.0,0.0,0.0,0.0,0.0,0.0,0.0,0.0
2025/05/14 12:38:38.555819294,1747219118,553427870,mA1/imu,0.7118686112471069,0.7023123003452281,0.0003756682390049437,0.0006099002243928204,0.0,0.0,0.0,0.0,0.0,0.0,0.0,0.0,0.0,0.0007196401412403179,0.0015321146544439552,0.004658388047884956,0.0,0.0,0.0,0.0,0.0,0.0,0.0,0.0,0.0,0.021571782294756696,0.0369515801340278,9.810973922692494,0.0,0.0,0.0,0.0,0.0,0.0,0.0,0.0,0.0
2025/05/14 12:38:38.602738729,1747219118,600619938,mA1/imu,0.7119503345694204,0.7022294675454787,0.00038656621512371113,0.0005887137211814482,0.0,0.0,0.0,0.0,0.0,0.0,0.0,0.0,0.0,-0.0003646385547651657,0.0004707008454827224,0.0046521909016934955,0.0,0.0,0.0,0.0,0.0,0.0,0.0,0.0,0.0,0.023229013544134845,0.5861352376474119,9.812700927162487,0.0,0.0,0.0,0.0,0.0,0.0,0.0,0.0,0.0
2025/05/14 12:38:38.654727524,1747219118,651720293,mA1/imu,0.712031940291802,0.7021467365946721,0.0003726764073818431,0.0005808666278634933,0.0,0.0,0.0,0.0,0.0,0.0,0.0,0.0,0.0,0.0012890493901778102,-0.0006060490145812679,0.004645481234848612,0.0,0.0,0.0,0.0,0.0,0.0,0.0,0.0,0.0,0.02153639523845319,-0.5562143269937319,9.810547897561378,0.0,0.0,0.0,0.0,0.0,0.0,0.0,0.0,0.0
2025/05/14 12:38:38.704463492,1747219118,703568794,mA1/imu,0.7121142551090075,0.7020632535038475,0.0003470780581918076,0.0005960595249687176,0.0,0.0,0.0,0.0,0.0,0.0,0.0,0.0,0.0,-0.00016688290048708052,-0.0014114815042783808,0.0047948500485568545,0.0,0.0,0.0,0.0,0.0,0.0,0.0,0.0,0.0,0.0046883525403063914,0.43595522860804053,9.811421108288734,0.0,0.0,0.0,0.0,0.0,0.0,0.0,0.0,0.0
2025/05/14 12:38:38.760672521,1747219118,758140381,mA1/imu,0.712198985485476,0.7019772988894152,0.00030315906287386085,0.000620493321716223,0.0,0.0,0.0,0.0,0.0,0.0,0.0,0.0,0.0,0.0005256086582847994,-0.0022889368393209327,0.0048326993223890505,0.0,0.0,0.0,0.0,0.0,0.0,0.0,0.0,0.0,0.021006874800478543,0.02281459530332766,9.809235908378596,0.0,0.0,0.0,0.0,0.0,0.0,0.0,0.0,0.0
2025/05/14 12:38:38.810583107,1747219118,809652700,mA1/imu,0.712283923265146,0.7018911002603059,0.0002456074846364989,0.0006600835949495149,0.0,0.0,0.0,0.0,0.0,0.0,0.0,0.0,0.0,0.0011540032374239967,-0.003044156729363426,0.00484247022965367,0.0,0.0,0.0,0.0,0.0,0.0,0.0,0.0,0.0,0.020654762318986226,0.06590147968676563,9.810148736129397,0.0,0.0,0.0,0.0,0.0,0.0,0.0,0.0,0.0
2025/05/14 12:38:38.852521504,1747219118,850827535,mA1/imu,0.7123689997102108,0.7018047180294118,0.00018235583343983671,0.0007160655567479123,0.0,0.0,0.0,0.0,0.0,0.0,0.0,0.0,0.0,0.0012352672192855445,-0.003580801585499422,0.004851563012904275,0.0,0.0,0.0,0.0,0.0,0.0,0.0,0.0,0.0,0.01861077270968171,-0.5532741783712365,9.808234946572597,0.0,0.0,0.0,0.0,0.0,0.0,0.0,0.0,0.0
2025/05/14 12:38:38.902202138,1747219118,900837789,mA1/imu,0.7124543818533602,0.7017179910723913,0.00011363744800369473,0.0007758026837974515,0.0,0.0,0.0,0.0,0.0,0.0,0.0,0.0,0.0,-5.146548585458395e-05,-0.0036218156808987922,0.00488174681076768,0.0,0.0,0.0,0.0,0.0,0.0,0.0,0.0,0.0,0.00921248284071115,-0.010319170603353519,9.810351356763261,0.0,0.0,0.0,0.0,0.0,0.0,0.0,0.0,0.0
2025/05/14 12:38:38.954532274,1747219118,951808090,mA1/imu,0.7125401238049726,0.7016308615072603,4.648497032186551e-05,0.000839039761654863,0.0,0.0,0.0,0.0,0.0,0.0,0.0,0.0,0.0,-0.0018364258353835317,-0.0037035737578473417,0.004891337415458158,0.0,0.0,0.0,0.0,0.0,0.0,0.0,0.0,0.0,0.017360325586287865,0.5034870028790317,9.809939989127042,0.0,0.0,0.0,0.0,0.0,0.0,0.0,0.0,0.0
2025/05/14 12:38:39.4754044,1747219119,4119633,mA1/imu,0.7126260536223056,0.7015435140126994,-2.4419498992107316e-05,0.0008972452843557714,0.0,0.0,0.0,0.0,0.0,0.0,0.0,0.0,0.0,-0.0004082514794080305,-0.0035817132667842586,0.004903198436750344,0.0,0.0,0.0,0.0,0.0,0.0,0.0,0.0,0.0,0.01592465515804654,-0.017434708933216723,9.80720812804466,0.0,0.0,0.0,0.0,0.0,0.0,0.0,0.0,0.0
2025/05/14 12:38:39.58674820,1747219119,56460910,mA1/imu,0.7127121857061377,0.7014559325759576,-8.944097797382387e-05,0.0009523656258251774,0.0,0.0,0.0,0.0,0.0,0.0,0.0,0.0,0.0,0.0005154298055435007,-0.00324470943180408,0.00491607424435795,0.0,0.0,0.0,0.0,0.0,0.0,0.0,0.0,0.0,0.014624179228827626,0.3429412414838586,9.808295754262536,0.0,0.0,0.0,0.0,0.0,0.0,0.0,0.0,0.0
2025/05/14 12:38:39.108367208,1747219119,106928555,mA1/imu,0.7127984809638085,0.701368153205674,-0.00013558352356328506,0.0010103571929623684,0.0,0.0,0.0,0.0,0.0,0.0,0.0,0.0,0.0,-0.0007589138431580877,-0.0027249248201370716,0.004924232991923275,0.0,0.0,0.0,0.0,0.0,0.0,0.0,0.0,0.0,0.014944611019956049,-0.030186199600407602,9.807766983080294,0.0,0.0,0.0,0.0,0.0,0.0,0.0,0.0,0.0
2025/05/14 12:38:39.160668886,1747219119,157963697,mA1/imu,0.7128848237310694,0.7012803169142513,-0.00017270191265211153,0.0010561139232347777,0.0,0.0,0.0,0.0,0.0,0.0,0.0,0.0,0.0,-0.0013060366672559664,-0.0020722798301037073,0.00492591518728238,0.0,0.0,0.0,0.0,0.0,0.0,0.0,0.0,0.0,0.01522506946185322,-0.06553122624749219,9.808037193481587,0.0,0.0,0.0,0.0,0.0,0.0,0.0,0.0,0.0
2025/05/14 12:38:39.210401016,1747219119,209707562,mA1/imu,0.7129714020830797,0.7011922547248955,-0.00020786720447636415,0.0010763441502909359,0.0,0.0,0.0,0.0,0.0,0.0,0.0,0.0,0.0,8.997854264504359e-05,-0.0011395908963754988,0.004963052073466566,0.0,0.0,0.0,0.0,0.0,0.0,0.0,0.0,0.0,0.0031244466781762143,0.07944530832487062,9.810550109762506,0.0,0.0,0.0,0.0,0.0,0.0,0.0,0.0,0.0
2025/05/14 12:38:39.251386878,1747219119,250503130,mA1/imu,0.7130584514603693,0.7011037034088362,-0.0002119614623155426,0.001094047390716979,0.0,0.0,0.0,0.0,0.0,0.0,0.0,0.0,0.0,0.0008689843284962195,-0.00028396566492415893,0.004968155582768494,0.0,0.0,0.0,0.0,0.0,0.0,0.0,0.0,0.0,0.01369253619069673,0.09784316735773237,9.808844304208481,0.0,0.0,0.0,0.0,0.0,0.0,0.0,0.0,0.0
2025/05/14 12:38:39.302165425,1747219119,301088129,mA1/imu,0.7131446715616642,0.7010159905300903,-0.00019643340492354796,0.0011044719279931043,0.0,0.0,0.0,0.0,0.0,0.0,0.0,0.0,0.0,-0.0006348850312453532,0.0002840318315376327,0.00480641083767926,0.0,0.0,0.0,0.0,0.0,0.0,0.0,0.0,0.0,0.035041767021575,-0.02791849548386589,9.806230617691542,0.0,0.0,0.0,0.0,0.0,0.0,0.0,0.0,0.0
2025/05/14 12:38:39.353578651,1747219119,352050296,mA1/imu,0.7132265354927,0.7009327080557767,-0.00017627177762441287,0.0011030752178826926,0.0,0.0,0.0,0.0,0.0,0.0,0.0,0.0,0.0,-0.0006584830078719171,0.0009293076816491192,0.004653312293811368,0.0,0.0,0.0,0.0,0.0,0.0,0.0,0.0,0.0,0.013637071932518119,-0.6324508643738846,9.809735194409273,0.0,0.0,0.0,0.0,0.0,0.0,0.0,0.0,0.0
2025/05/14 12:38:39.404263015,1747219119,402560014,mA1/imu,0.7133059471734365,0.7008519251158142,-0.00014781269800843348,0.0010876303921057943,0.0,0.0,0.0,0.0,0.0,0.0,0.0,0.0,0.0,-0.0009550711423745076,0.0011439335741309426,0.004258378274458007,0.0,0.0,0.0,0.0,0.0,0.0,0.0,0.0,0.0,0.06065995964777024,-0.02041910839946361,9.81148711153338,0.0,0.0,0.0,0.0,0.0,0.0,0.0,0.0,0.0
2025/05/14 12:38:39.458500666,1747219119,457395555,mA1/imu,0.7133727716563103,0.7007839256024295,-0.0001261991609553832,0.0010781235615228524,0.0,0.0,0.0,0.0,0.0,0.0,0.0,0.0,0.0,-0.001339260002282736,0.0011024118827831276,0.0037376894058455943,0.0,0.0,0.0,0.0,0.0,0.0,0.0,0.0,0.0,0.014224165173902058,0.5834041242616623,9.811009390630904,0.0,0.0,0.0,0.0,0.0,0.0,0.0,0.0,0.0
2025/05/14 12:38:39.509659357,1747219119,507760514,mA1/imu,0.7134369090281659,0.700718666824406,-9.34871430915306e-05,0.0010573837134753507,0.0,0.0,0.0,0.0,0.0,0.0,0.0,0.0,0.0,-0.0008606598813594604,0.0018132715772715654,0.0035701897101341794,0.0,0.0,0.0,0.0,0.0,0.0,0.0,0.0,0.0,0.012369911488521679,0.6096724674826463,9.81159806760831,0.0,0.0,0.0,0.0,0.0,0.0,0.0,0.0,0.0
2025/05/14 12:38:39.561606683,1747219119,559562601,mA1/imu,0.713498822224352,0.7006556732752786,-4.480035559054551e-05,0.0010277084006446906,0.0,0.0,0.0,0.0,0.0,0.0,0.0,0.0,0.0,0.0007202361743981758,0.0024731544740982125,0.0035185382513281483,0.0,0.0,0.0,0.0,0.0,0.0,0.0,0.0,0.0,0.010941433495732398,-0.540448529995729,9.810078323265007,0.0,0.0,0.0,0.0,0.0,0.0,0.0,0.0,0.0
2025/05/14 12:38:39.611027484,1747219119,609715167,mA1/imu,0.7135628963092203,0.7005904831970903,1.896661149362449e-05,0.000983618184198893,0.0,0.0,0.0,0.0,0.0,0.0,0.0,0.0,0.0,0.0009017195519157375,0.0034574340120297926,0.003821994204055686,0.0,0.0,0.0,0.0,0.0,0.0,0.0,0.0,0.0,-0.007229535427355091,-0.5381941029496927,9.81054013231204,0.0,0.0,0.0,0.0,0.0,0.0,0.0,0.0,0.0
2025/05/14 12:38:39.652399874,1747219119,650577671,mA1/imu,0.7136295937679986,0.7005226226473372,8.673924011158118e-05,0.0009222440685088908,0.0,0.0,0.0,0.0,0.0,0.0,0.0,0.0,0.0,-0.00033021585196217824,0.0037432221087923424,0.003800095215797213,0.0,0.0,0.0,0.0,0.0,0.0,0.0,0.0,0.0,0.01417060258202012,0.34347321888031923,9.81280758533063,0.0,0.0,0.0,0.0,0.0,0.0,0.0,0.0,0.0
2025/05/14 12:38:39.707467490,1747219119,704781695,mA1/imu,0.7136959000770152,0.700455133620398,0.00016022819381058498,0.0008615828546554489,0.0,0.0,0.0,0.0,0.0,0.0,0.0,0.0,0.0,-0.0010407968474667442,0.0038034774688105706,0.0037793248480355933,0.0,0.0,0.0,0.0,0.0,0.0,0.0,0.0,0.0,0.01446171443471226,0.39276728617903994,9.81296962094303,0.0,0.0,0.0,0.0,0.0,0.0,0.0,0.0,0.0
2025/05/14 12:38:39.757860111,1747219119,756590592,mA1/imu,0.7137618471997135,0.7003879896485392,0.00022807370939521908,0.0007983861932230232,0.0,0.0,0.0,0.0,0.0,0.0,0.0,0.0,0.0,-0.0008532357653306525,0.0036155025541667325,0.003759094934036857,0.0,0.0,0.0,0.0,0.0,0.0,0.0,0.0,0.0,0.016126868633828804,-0.048063624753609896,9.812556000760765,0.0,0.0,0.0,0.0,0.0,0.0,0.0,0.0,0.0
2025/05/14 12:38:39.810806157,1747219119,808212289,mA1/imu,0.7138274666190109,0.7003211624547255,0.0002844591931493877,0.000732394234199892,0.0,0.0,0.0,0.0,0.0,0.0,0.0,0.0,0.0,-0.0007409046596642973,0.0034359593625249286,0.0037441398755294836,0.0,0.0,0.0,0.0,0.0,0.0,0.0,0.0,0.0,0.003198558920242959,0.5803930449158511,9.810448163488438,0.0,0.0,0.0,0.0,0.0,0.0,0.0,0.0,0.0
2025/05/14 12:38:39.864340436,1747219119,859505198,mA1/imu,0.7138932685381919,0.7002541249703568,0.00033515067622587834,0.0006702774659915636,0.0,0.0,0.0,0.0,0.0,0.0,0.0,0.0,0.0,0.0008399553813507294,0.0029472162820045203,0.0037542370945384106,0.0,0.0,0.0,0.0,0.0,0.0,0.0,0.0,0.0,0.016480927537961723,0.057193451527202434,9.810590571656935,0.0,0.0,0.0,0.0,0.0,0.0,0.0,0.0,0.0
2025/05/14 12:38:39.910623618,1747219119,909341677,mA1/imu,0.7139579592493734,0.7001881891956926,0.0003764727019186847,0.0006248228802998576,0.0,0.0,0.0,0.0,0.0,0.0,0.0,0.0,0.0,0.0009967012524977176,0.0019878731055158238,0.0035852461160267167,0.0,0.0,0.0,0.0,0.0,0.0,0.0,0.0,0.0,0.03399679791134641,0.056798109758373946,9.812830781050224,0.0,0.0,0.0,0.0,0.0,0.0,0.0,0.0,0.0
2025/05/14 12:38:39.956622622,1747219119,952345533,mA1/imu,0.7140198946363804,0.7001250410104098,0.00040098177153300834,0.0005968477553647961,0.0,0.0,0.0,0.0,0.0,0.0,0.0,0.0,0.0,0.0020971110564072548,0.001140363422705557,0.003521375636493548,0.0,0.0,0.0,0.0,0.0,0.0,0.0,0.0,0.0,0.01492226887931671,-0.4972281896977871,9.809051897593836,0.0,0.0,0.0,0.0,0.0,0.0,0.0,0.0,0.0
2025/05/14 12:38:40.4467640,1747219120,3371101,mA1/imu,0.7140797208467363,0.7000640336432679,0.00040790619962654135,0.000578521474898955,0.0,0.0,0.0,0.0,0.0,0.0,0.0,0.0,0.0,-0.0004319468494553833,0.0003830265618396776,0.003320070758843721,0.0,0.0,0.0,0.0,0.0,0.0,0.0,0.0,0.0,0.014715568447058621,-0.05549920300850171,9.811862700840711,0.0,0.0,0.0,0.0,0.0,0.0,0.0,0.0,0.0
2025/05/14 12:38:40.57775989,1747219120,54682533,mA1/imu,0.7141372138125669,0.7000053910859121,0.0004010574437883333,0.0005757183428464016,0.0,0.0,0.0,0.0,0.0,0.0,0.0,0.0,0.0,-0.0005105402542154191,-0.00045017569458005903,0.00326165104351144,0.0,0.0,0.0,0.0,0.0,0.0,0.0,0.0,0.0,0.014626378603631456,-0.056170583471396196,9.811218678758989,0.0,0.0,0.0,0.0,0.0,0.0,0.0,0.0,0.0
2025/05/14 12:38:40.108546158,1747219120,106788618,mA1/imu,0.7141944394116647,0.6999470111605175,0.00037881770787717044,0.0005837619897776035,0.0,0.0,0.0,0.0,0.0,0.0,0.0,0.0,0.0,-0.0014906752472212904,-0.00101781694568772,0.003344528939892871,0.0,0.0,0.0,0.0,0.0,0.0,0.0,0.0,0.0,-0.0021864234425262746,0.24323058411751164,9.809473742259081,0.0,0.0,0.0,0.0,0.0,0.0,0.0,0.0,0.0
2025/05/14 12:38:40.159416123,1747219120,158549766,mA1/imu,0.714253241014027,0.6998870164020558,0.0003406469478729251,0.0005966007405927907,0.0,0.0,0.0,0.0,0.0,0.0,0.0,0.0,0.0,-1.697568243905086e-05,-0.0017298716693392852,0.0033485897740978383,0.0,0.0,0.0,0.0,0.0,0.0,0.0,0.0,0.0,0.01434251305903698,-0.023563259520702942,9.807801399754457,0.0,0.0,0.0,0.0,0.0,0.0,0.0,0.0,0.0
2025/05/14 12:38:40.202541775,1747219120,201581162,mA1/imu,0.7143115004692958,0.6998275575200359,0.00029045472741664146,0.00062102245966408,0.0,0.0,0.0,0.0,0.0,0.0,0.0,0.0,0.0,0.001657478430532384,-0.002373917507925947,0.0033149394386633273,0.0,0.0,0.0,0.0,0.0,0.0,0.0,0.0,0.0,0.014214848705357958,-0.2950601186483099,9.807845775862303,0.0,0.0,0.0,0.0,0.0,0.0,0.0,0.0,0.0
2025/05/14 12:38:40.253252888,1747219120,252566424,mA1/imu,0.7143691740472908,0.6997686719097913,0.00023452867950787853,0.0006587722648523071,0.0,0.0,0.0,0.0,0.0,0.0,0.0,0.0,0.0,0.0004058717423225871,-0.002827881074663854,0.003282077970995694,0.0,0.0,0.0,0.0,0.0,0.0,0.0,0.0,0.0,0.012029984468653658,0.6396937689986063,9.808503639427245,0.0,0.0,0.0,0.0,0.0,0.0,0.0,0.0,0.0
