time,header_stamp_secs,header_stamp_nsecs,header_frame_id,orientation_x,orientation_y,orientation_z,orientation_w,orientation_covariance_0,orientation_covariance_1,orientation_covariance_2,orientation_covariance_3,orientation_covariance_4,orientation_covariance_5,orientation_covariance_6,orientation_covariance_7,orientation_covariance_8,angular_velocity_x,angular_velocity_y,angular_velocity_z,angular_velocity_covariance_0,angular_velocity_covariance_1,angular_velocity_covariance_2,angular_velocity_covariance_3,angular_velocity_covariance_4,angular_velocity_covariance_5,angular_velocity_covariance_6,angular_velocity_covariance_7,angular_velocity_covariance_8,linear_acceleration_x,linear_acceleration_y,linear_acceleration_z,linear_acceleration_covariance_0,linear_acceleration_covariance_1,linear_acceleration_covariance_2,linear_acceleration_covariance_3,linear_acceleration_covariance_4,linear_acceleration_covariance_5,linear_acceleration_covariance_6,linear_acceleration_covariance_7,linear_acceleration_covariance_8
2025/04/09 10:58:23.910502090,1744189103,655012302,mA1/imu,0.7077096441636161,0.7065028340445868,0.00027997646666281736,0.0008524423459771457,0.0,0.0,0.0,0.0,0.0,0.0,0.0,0.0,0.0,-0.0006068991431922995,-6.151095532794195e-07,-1.11014455769379e-05,0.0,0.0,0.0,0.0,0.0,0.0,0.0,0.0,0.0,0.00746217872295021,-0.06338078675174516,9.810603006909503,0.0,0.0,0.0,0.0,0.0,0.0,0.0,0.0,0.0
2025/04/09 10:58:23.910886232,1744189103,697325680,mA1/imu,0.7077094550247306,0.7065030316600378,0.00027475002566285415,0.0008473701657970544,0.0,0.0,0.0,0.0,0.0,0.0,0.0,0.0,0.0,0.0009842086778802555,-3.2142000295668917e-06,-1.102140526509852e-05,0.0,0.0,0.0,0.0,0.0,0.0,0.0,0.0,0.0,0.007775835646677568,-0.5851225550504084,9.809010009946487,0.0,0.0,0.0,0.0,0.0,0.0,0.0,0.0,0.0
2025/04/09 10:58:23.911139009,1744189103,748872109,mA1/imu,0.7077092660092997,0.7065032282053098,0.00027017726662751225,0.000842819256421131,0.0,0.0,0.0,0.0,0.0,0.0,0.0,0.0,0.0,0.0008367151999845746,-4.286680501307293e-06,-1.0984120544225965e-05,0.0,0.0,0.0,0.0,0.0,0.0,0.0,0.0,0.0,0.008278103539791998,0.032259982289089884,9.809928702658539,0.0,0.0,0.0,0.0,0.0,0.0,0.0,0.0,0.0
2025/04/09 10:58:23.911268269,1744189103,802395940,mA1/imu,0.7077090708787797,0.7065034217412117,0.00027153787881978916,0.0008439970582434834,0.0,0.0,0.0,0.0,0.0,0.0,0.0,0.0,0.0,-0.0007729820281478269,7.643673500821044e-06,-1.0954870261943643e-05,0.0,0.0,0.0,0.0,0.0,0.0,0.0,0.0,0.0,0.007961318905339103,0.5536070459346873,9.811120697728938,0.0,0.0,0.0,0.0,0.0,0.0,0.0,0.0,0.0
2025/04/09 10:58:23.911317033,1744189103,852048818,mA1/imu,0.7077088770946925,0.7065036143937038,0.0002727528497539948,0.0008448289088239902,0.0,0.0,0.0,0.0,0.0,0.0,0.0,0.0,0.0,-0.000645163482977227,1.77477247915765e-05,-1.0879132978851921e-05,0.0,0.0,0.0,0.0,0.0,0.0,0.0,0.0,0.0,0.007475460508830154,-0.06336073139438203,9.810347441182861,0.0,0.0,0.0,0.0,0.0,0.0,0.0,0.0,0.0
2025/04/09 10:58:23.911370847,1744189103,903294492,mA1/imu,0.7077086907631683,0.706503807971324,0.00026871509362270604,0.0008403169042764187,0.0,0.0,0.0,0.0,0.0,0.0,0.0,0.0,0.0,0.0009276291599253087,1.4095049209859518e-05,-1.0790493075958637e-05,0.0,0.0,0.0,0.0,0.0,0.0,0.0,0.0,0.0,0.007781746964823696,-0.5851274996501461,9.808723198006463,0.0,0.0,0.0,0.0,0.0,0.0,0.0,0.0,0.0
2025/04/09 10:58:23.958049946,1744189103,949007534,mA1/imu,0.7077085043488369,0.7065040002305564,0.00026559474071254015,0.0008366540432934209,0.0,0.0,0.0,0.0,0.0,0.0,0.0,0.0,0.0,0.0007645254903371082,1.0820701937520966e-05,-1.0747697049596466e-05,0.0,0.0,0.0,0.0,0.0,0.0,0.0,0.0,0.0,0.008284411033571838,0.0322508551289336,9.809625349223461,0.0,0.0,0.0,0.0,0.0,0.0,0.0,0.0,0.0
2025/04/09 10:58:24.2783769,1744189103,999984239,mA1/imu,0.7077083116631415,0.7065041893176448,0.0002685984409753063,0.0008390079860405852,0.0,0.0,0.0,0.0,0.0,0.0,0.0,0.0,0.0,-0.0008572312004403215,1.9559072667899886e-05,-1.071711985039853e-05,0.0,0.0,0.0,0.0,0.0,0.0,0.0,0.0,0.0,0.00797713511325259,0.5535973353391692,9.810830453344712,0.0,0.0,0.0,0.0,0.0,0.0,0.0,0.0,0.0
2025/04/09 10:58:24.55972547,1744189104,51135284,mA1/imu,0.7077081201201003,0.7065043773808685,0.00027156639299947134,0.000841254681545144,0.0,0.0,0.0,0.0,0.0,0.0,0.0,0.0,0.0,-0.0007377642778622931,2.591204386906667e-05,-1.0643591545569816e-05,0.0,0.0,0.0,0.0,0.0,0.0,0.0,0.0,0.0,0.007486522352673278,-0.06338213927243613,9.810072486732523,0.0,0.0,0.0,0.0,0.0,0.0,0.0,0.0,0.0
2025/04/09 10:58:24.109398740,1744189104,107652399,mA1/imu,0.7077079358422306,0.7065045663123775,0.00026931183207701894,0.0008383297833906161,0.0,0.0,0.0,0.0,0.0,0.0,0.0,0.0,0.0,0.0008310738774782646,1.785777218692639e-05,-1.0560677529202686e-05,0.0,0.0,0.0,0.0,0.0,0.0,0.0,0.0,0.0,0.007812753620221867,-0.5851017007914319,9.808504769467527,0.0,0.0,0.0,0.0,0.0,0.0,0.0,0.0,0.0
2025/04/09 10:58:24.146954266,1744189104,146039448,mA1/imu,0.7077077513525385,0.706504753979154,0.00026791456279459853,0.0008363624666308248,0.0,0.0,0.0,0.0,0.0,0.0,0.0,0.0,0.0,0.0006683278364927179,9.986114517383585e-06,-1.0527202833952765e-05,0.0,0.0,0.0,0.0,0.0,0.0,0.0,0.0,0.0,0.008297177097699074,0.032276655507396924,9.809466257458562,0.0,0.0,0.0,0.0,0.0,0.0,0.0,0.0,0.0
2025/04/09 10:58:24.212037361,1744189104,197410528,mA1/imu,0.7077075604918377,0.7065049385786626,0.00027251473639787206,0.0008404298724484587,0.0,0.0,0.0,0.0,0.0,0.0,0.0,0.0,0.0,-0.0009485531577867141,1.4743963060805048e-05,-1.0508801814507818e-05,0.0,0.0,0.0,0.0,0.0,0.0,0.0,0.0,0.0,0.007990201255477626,0.5535991875264398,9.810763512892343,0.0,0.0,0.0,0.0,0.0,0.0,0.0,0.0,0.0
2025/04/09 10:58:24.258272754,1744189104,251572874,mA1/imu,0.7077065087930269,0.7065059849005075,0.0002756100044998426,0.0008454294024774257,0.0,0.0,0.0,0.0,0.0,0.0,0.0,0.0,0.0,-0.0008045862073373539,-0.00020787737953599205,-0.00017270972377014747,0.0,0.0,0.0,0.0,0.0,0.0,0.0,0.0,0.0,0.02678987354719462,-0.06316428299236097,9.811160566516442,0.0,0.0,0.0,0.0,0.0,0.0,0.0,0.0,0.0
2025/04/09 10:58:24.306606690,1744189104,303419913,mA1/imu,0.7076993039537933,0.7065131953921735,0.000263805710871065,0.0008545914834978689,0.0,0.0,0.0,0.0,0.0,0.0,0.0,0.0,0.0,0.000761636369489973,-0.0008246691719361494,-0.0005640394767395861,0.0,0.0,0.0,0.0,0.0,0.0,0.0,0.0,0.0,0.027531424638373735,-0.5870682784750636,9.807448282412443,0.0,0.0,0.0,0.0,0.0,0.0,0.0,0.0,0.0
2025/04/09 10:58:24.354007733,1744189104,348914424,mA1/imu,0.7076853062329101,0.7065271997905974,0.0002431314737870788,0.0008741768561095346,0.0,0.0,0.0,0.0,0.0,0.0,0.0,0.0,0.0,0.0005985235258449451,-0.0013469832812295684,-0.0009433740067179942,0.0,0.0,0.0,0.0,0.0,0.0,0.0,0.0,0.0,0.027160505891800683,0.030208408552413562,9.80846436973915,0.0,0.0,0.0,0.0,0.0,0.0,0.0,0.0,0.0
2025/04/09 10:58:24.407444934,1744189104,401736228,mA1/imu,0.7076647115942717,0.7065477935141464,0.00022068928656344798,0.0009070505642253653,0.0,0.0,0.0,0.0,0.0,0.0,0.0,0.0,0.0,-0.0009949366136019985,-0.0017039311494396238,-0.0013125696540166277,0.0,0.0,0.0,0.0,0.0,0.0,0.0,0.0,0.0,0.023531627025348674,0.5544859208156832,9.81203954444219,0.0,0.0,0.0,0.0,0.0,0.0,0.0,0.0,0.0
2025/04/09 10:58:24.455013384,1744189104,452757026,mA1/imu,0.7076394083742089,0.7065730975164817,0.00019523863678866377,0.0009420528852285056,0.0,0.0,0.0,0.0,0.0,0.0,0.0,0.0,0.0,-0.0008421999898177908,-0.0014224882389493076,-0.0013527469064409786,0.0,0.0,0.0,0.0,0.0,0.0,0.0,0.0,0.0,-0.018112685511123966,-0.06114058128010631,9.811389962457403,0.0,0.0,0.0,0.0,0.0,0.0,0.0,0.0,0.0
2025/04/09 10:58:24.509443327,1744189104,504873990,mA1/imu,0.7076201373701815,0.7065923836909634,0.00018013468208153278,0.0009550128921640456,0.0,0.0,0.0,0.0,0.0,0.0,0.0,0.0,0.0,0.0007629408436741356,-0.00036162901239865836,-0.0009192717237616028,0.0,0.0,0.0,0.0,0.0,0.0,0.0,0.0,0.0,-0.014866828716517027,-0.5856463018572844,9.807710082002533,0.0,0.0,0.0,0.0,0.0,0.0,0.0,0.0,0.0
2025/04/09 10:58:24.554879759,1744189104,547699694,mA1/imu,0.7076072610066491,0.7066052834155925,0.000182188577261863,0.0009510137541402471,0.0,0.0,0.0,0.0,0.0,0.0,0.0,0.0,0.0,0.0006407660823082424,0.0003465293397609368,-0.0007072196516566735,0.0,0.0,0.0,0.0,0.0,0.0,0.0,0.0,0.0,0.012521182494362985,0.029466974591749826,9.80948784466187,0.0,0.0,0.0,0.0,0.0,0.0,0.0,0.0,0.0
2025/04/09 10:58:24.606095321,1744189104,601004003,mA1/imu,0.7075937098625031,0.7066188549834718,0.0001947677996641191,0.0009474230159796716,0.0,0.0,0.0,0.0,0.0,0.0,0.0,0.0,0.0,-0.0009486172841749651,0.0005225421798625759,-0.0008059314800310093,0.0,0.0,0.0,0.0,0.0,0.0,0.0,0.0,0.0,0.011731117221173752,0.5523878109227331,9.811553677171043,0.0,0.0,0.0,0.0,0.0,0.0,0.0,0.0,0.0
2025/04/09 10:58:24.656905211,1744189104,652190914,mA1/imu,0.7075784374603896,0.7066341531158639,0.00020939996148275602,0.0009405546212310659,0.0,0.0,0.0,0.0,0.0,0.0,0.0,0.0,0.0,-0.000793784866902465,0.0006697190753555836,-0.0009025661433129703,0.0,0.0,0.0,0.0,0.0,0.0,0.0,0.0,0.0,0.01119946135200103,-0.06446612839708397,9.810867898531948,0.0,0.0,0.0,0.0,0.0,0.0,0.0,0.0,0.0
2025/04/09 10:58:24.706685818,1744189104,703735494,mA1/imu,0.7075614880128821,0.7066511408179807,0.0002202747295732137,0.000925926933318699,0.0,0.0,0.0,0.0,0.0,0.0,0.0,0.0,0.0,0.0008043787969250777,0.0007583205518387563,-0.000996958415130085,0.0,0.0,0.0,0.0,0.0,0.0,0.0,0.0,0.0,0.01219049317566073,-0.5875084446078679,9.808653387689008,0.0,0.0,0.0,0.0,0.0,0.0,0.0,0.0,0.0
2025/04/09 10:58:24.755340285,1744189104,753577326,mA1/imu,0.707543406121465,0.7066692627193003,0.00023352653804779508,0.000909421328078023,0.0,0.0,0.0,0.0,0.0,0.0,0.0,0.0,0.0,0.0006847989803770989,0.0009640431365408803,-0.0009926453688005996,0.0,0.0,0.0,0.0,0.0,0.0,0.0,0.0,0.0,0.00018598896521672403,0.034162974333722965,9.809646362400713,0.0,0.0,0.0,0.0,0.0,0.0,0.0,0.0,0.0
2025/04/09 10:58:24.805635835,1744189104,804507137,mA1/imu,0.7075273949782674,0.7066853077787973,0.00025813375460226806,0.0008913427052872803,0.0,0.0,0.0,0.0,0.0,0.0,0.0,0.0,0.0,-0.0008621995716599147,0.0013514511186154964,-0.0008484007901379784,0.0,0.0,0.0,0.0,0.0,0.0,0.0,0.0,0.0,0.0003615922367246286,0.5562706957045146,9.811598698626955,0.0,0.0,0.0,0.0,0.0,0.0,0.0,0.0,0.0
2025/04/09 10:58:24.856139763,1744189104,854361148,mA1/imu,0.7075138839138249,0.7066988547654588,0.0002870245513546748,0.0008662328039904306,0.0,0.0,0.0,0.0,0.0,0.0,0.0,0.0,0.0,-0.0006634117069361854,0.0016385256691549726,-0.0007083292984311613,0.0,0.0,0.0,0.0,0.0,0.0,0.0,0.0,0.0,0.0003593633824327206,-0.0608331033467555,9.810906331418936,0.0,0.0,0.0,0.0,0.0,0.0,0.0,0.0,0.0
2025/04/09 10:58:24.907659846,1744189104,906227631,mA1/imu,0.7075028064663204,0.7067099759881397,0.00031306837374966317,0.000831065170054475,0.0,0.0,0.0,0.0,0.0,0.0,0.0,0.0,0.0,0.000970847458515075,0.0017843545751057813,-0.0005727148926145403,0.0,0.0,0.0,0.0,0.0,0.0,0.0,0.0,0.0,0.002278293215692604,-0.5835855054209164,9.808643405281874,0.0,0.0,0.0,0.0,0.0,0.0,0.0,0.0,0.0
2025/04/09 10:58:24.948960477,1744189104,946939174,mA1/imu,0.7074946729256073,0.7067181487749248,0.0003413157271595365,0.0007933962475679634,0.0,0.0,0.0,0.0,0.0,0.0,0.0,0.0,0.0,0.0008504230144339249,0.0019739830157037295,-0.00032847888745815866,0.0,0.0,0.0,0.0,0.0,0.0,0.0,0.0,0.0,-0.010381407165756492,0.03197406376485862,9.808793426312603,0.0,0.0,0.0,0.0,0.0,0.0,0.0,0.0,0.0
2025/04/09 10:58:24.999180376,1744189104,998167985,mA1/imu,0.7074930785964095,0.7067197669521902,0.00038091289202957766,0.000754746702640998,0.0,0.0,0.0,0.0,0.0,0.0,0.0,0.0,0.0,-0.000712880487885853,0.002341975083276231,6.95074275387921e-05,0.0,0.0,0.0,0.0,0.0,0.0,0.0,0.0,0.0,-0.011014607337963968,0.5557566204639242,9.812264329278571,0.0,0.0,0.0,0.0,0.0,0.0,0.0,0.0,0.0
2025/04/09 10:58:25.49822017,1744189105,48315891,mA1/imu,0.7074975923886742,0.7067152684822855,0.00042286403175569845,0.0007122108192348755,0.0,0.0,0.0,0.0,0.0,0.0,0.0,0.0,0.0,-0.0005631873490930302,0.002266241100358976,0.0003017134149714419,0.0,0.0,0.0,0.0,0.0,0.0,0.0,0.0,0.0,0.010675601919557486,-0.063067870279352,9.81041951438067,0.0,0.0,0.0,0.0,0.0,0.0,0.0,0.0,0.0
2025/04/09 10:58:25.100232000,1744189105,99198066,mA1/imu,0.7075028135560589,0.7067100631214972,0.00045071169026628593,0.0006725712171727824,0.0,0.0,0.0,0.0,0.0,0.0,0.0,0.0,0.0,0.001027749370088522,0.001660518331799864,0.00029278478129787853,0.0,0.0,0.0,0.0,0.0,0.0,0.0,0.0,0.0,0.011347711886783383,-0.585671436937988,9.808823746632113,0.0,0.0,0.0,0.0,0.0,0.0,0.0,0.0,0.0
2025/04/09 10:58:25.152901873,1744189105,151527756,mA1/imu,0.7075078797045931,0.7067050059252745,0.0004676656229990916,0.0006450154523857046,0.0,0.0,0.0,0.0,0.0,0.0,0.0,0.0,0.0,0.000877510569872896,0.00097754614352477,0.0002836439923843844,0.0,0.0,0.0,0.0,0.0,0.0,0.0,0.0,0.0,0.011674348242570892,0.03180371038564682,9.809740497053522,0.0,0.0,0.0,0.0,0.0,0.0,0.0,0.0,0.0
2025/04/09 10:58:25.203412487,1744189105,202533587,mA1/imu,0.7075127857171664,0.7067000957452565,0.00047804883373168467,0.0006357591470418908,0.0,0.0,0.0,0.0,0.0,0.0,0.0,0.0,0.0,-0.0007342168453331457,0.0002685897454895343,0.00027443273251896857,0.0,0.0,0.0,0.0,0.0,0.0,0.0,0.0,0.0,0.011161405915809375,0.5537823949714428,9.810993156260603,0.0,0.0,0.0,0.0,0.0,0.0,0.0,0.0,0.0
2025/04/09 10:58:25.254959688,1744189105,253003704,mA1/imu,0.7075175444722162,0.7066953302533546,0.0004756301153721142,0.0006389351306330833,0.0,0.0,0.0,0.0,0.0,0.0,0.0,0.0,0.0,-0.0006099667853186685,-0.00043471871290143147,0.00026591760811671303,0.0,0.0,0.0,0.0,0.0,0.0,0.0,0.0,0.0,0.010357167731113483,-0.06330018188124459,9.810265564487898,0.0,0.0,0.0,0.0,0.0,0.0,0.0,0.0,0.0
2025/04/09 10:58:25.305300074,1744189105,304180893,mA1/imu,0.7075221714172891,0.7066907017134296,0.0004559065943880741,0.000649009955063389,0.0,0.0,0.0,0.0,0.0,0.0,0.0,0.0,0.0,0.0009557060120483233,-0.0011023029474920153,0.0002578117780593794,0.0,0.0,0.0,0.0,0.0,0.0,0.0,0.0,0.0,0.010007505281912205,-0.5853215336985437,9.808670732610594,0.0,0.0,0.0,0.0,0.0,0.0,0.0,0.0,0.0
2025/04/09 10:58:25.354867871,1744189105,354012855,mA1/imu,0.7075266593590568,0.7066862064350604,0.0004263235079774373,0.0006709537263377128,0.0,0.0,0.0,0.0,0.0,0.0,0.0,0.0,0.0,0.0007838246623093152,-0.0016864018445407213,0.0002497189828780446,0.0,0.0,0.0,0.0,0.0,0.0,0.0,0.0,0.0,0.0101540837367445,0.031958306268293386,9.809613925761003,0.0,0.0,0.0,0.0,0.0,0.0,0.0,0.0,0.0
2025/04/09 10:58:25.407766290,1744189105,405576741,mA1/imu,0.7075310080400725,0.706681835117329,0.0003939732663158367,0.0007080692542025741,0.0,0.0,0.0,0.0,0.0,0.0,0.0,0.0,0.0,-0.0008450831003444725,-0.0021374459885543503,0.00024215416100790334,0.0,0.0,0.0,0.0,0.0,0.0,0.0,0.0,0.0,0.008825317257699559,0.5538742237295078,9.81089927988567,0.0,0.0,0.0,0.0,0.0,0.0,0.0,0.0,0.0
2025/04/09 10:58:25.446853385,1744189105,446076259,mA1/imu,0.7075352319539214,0.7066775814180406,0.0003549870083746016,0.000751963618062547,0.0,0.0,0.0,0.0,0.0,0.0,0.0,0.0,0.0,-0.000733059061459938,-0.0024578982835877874,0.00023529163714373523,0.0,0.0,0.0,0.0,0.0,0.0,0.0,0.0,0.0,0.008011662531864739,-0.06306325405480581,9.810198355484506,0.0,0.0,0.0,0.0,0.0,0.0,0.0,0.0,0.0
2025/04/09 10:58:25.498431979,1744189105,497049060,mA1/imu,0.7075393454745776,0.7066734383888122,0.00030682552279623137,0.0007949460599172867,0.0,0.0,0.0,0.0,0.0,0.0,0.0,0.0,0.0,0.000826255767629428,-0.0026334193611915187,0.00022903793678874667,0.0,0.0,0.0,0.0,0.0,0.0,0.0,0.0,0.0,0.007272519705981867,-0.5855450075617744,9.8086606814683,0.0,0.0,0.0,0.0,0.0,0.0,0.0,0.0,0.0
2025/04/09 10:58:25.551911631,1744189105,550305038,mA1/imu,0.7075433496568743,0.7066693961132682,0.00025834055096505106,0.0008403650390363783,0.0,0.0,0.0,0.0,0.0,0.0,0.0,0.0,0.0,0.0006543385413932745,-0.0026552289840479715,0.00022319115363535585,0.0,0.0,0.0,0.0,0.0,0.0,0.0,0.0,0.0,0.007542382558553347,0.03182945903316636,9.809628464654516,0.0,0.0,0.0,0.0,0.0,0.0,0.0,0.0,0.0
2025/04/09 10:58:25.603525152,1744189105,601531175,mA1/imu,0.7075472447917607,0.706665448549682,0.00021747347260873165,0.0008904599675995631,0.0,0.0,0.0,0.0,0.0,0.0,0.0,0.0,0.0,-0.0009687578513229833,-0.002501755390586282,0.0002177706163462624,0.0,0.0,0.0,0.0,0.0,0.0,0.0,0.0,0.0,0.0063297573076767,0.5539571268986611,9.810967777973518,0.0,0.0,0.0,0.0,0.0,0.0,0.0,0.0,0.0
2025/04/09 10:58:25.653915260,1744189105,652045010,mA1/imu,0.7075510438767184,0.7066615957313618,0.00018060824491344647,0.0009363802823564443,0.0,0.0,0.0,0.0,0.0,0.0,0.0,0.0,0.0,-0.0008453724298227523,-0.002211618130112978,0.0002127105249910916,0.0,0.0,0.0,0.0,0.0,0.0,0.0,0.0,0.0,0.005729787973154388,-0.06304772945065525,9.810297399050203,0.0,0.0,0.0,0.0,0.0,0.0,0.0,0.0,0.0
2025/04/09 10:58:25.705012199,1744189105,703373553,mA1/imu,0.7075547586779851,0.706657838295692,0.00014485170057294957,0.0009706005269587085,0.0,0.0,0.0,0.0,0.0,0.0,0.0,0.0,0.0,0.000730554622432632,-0.0018062939950677793,0.0002078512625720086,0.0,0.0,0.0,0.0,0.0,0.0,0.0,0.0,0.0,0.005507277276833889,-0.5853953116701919,9.808788265082887,0.0,0.0,0.0,0.0,0.0,0.0,0.0,0.0,0.0
2025/04/09 10:58:25.754603747,1744189105,753856103,mA1/imu,0.7075583849044413,0.7066541752910612,0.00011809927961529704,0.0009972701181602667,0.0,0.0,0.0,0.0,0.0,0.0,0.0,0.0,0.0,0.0005790748381216871,-0.0013083310235016612,0.00020307953112954182,0.0,0.0,0.0,0.0,0.0,0.0,0.0,0.0,0.0,0.0060505513123008964,0.03204626493017999,9.809772883912512,0.0,0.0,0.0,0.0,0.0,0.0,0.0,0.0,0.0
2025/04/09 10:58:25.806322085,1744189105,805075311,mA1/imu,0.7075619200589494,0.7066506049128388,0.00010676511856020054,0.0010200294218620034,0.0,0.0,0.0,0.0,0.0,0.0,0.0,0.0,0.0,-0.0010202638206878167,-0.0007330646869659528,0.00019865708848119712,0.0,0.0,0.0,0.0,0.0,0.0,0.0,0.0,0.0,0.005688013170270583,0.5536677172323342,9.81111340367658,0.0,0.0,0.0,0.0,0.0,0.0,0.0,0.0,0.0
2025/04/09 10:58:25.857187704,1744189105,855240311,mA1/imu,0.7075653815261487,0.7066471219656458,0.00010528778764782578,0.0010318904530442978,0.0,0.0,0.0,0.0,0.0,0.0,0.0,0.0,0.0,-0.0008716732206808605,-0.00013342126883209886,0.00019483415171692576,0.0,0.0,0.0,0.0,0.0,0.0,0.0,0.0,0.0,0.00534295372542496,-0.06325008539888191,9.810417228013414,0.0,0.0,0.0,0.0,0.0,0.0,0.0,0.0,0.0
2025/04/09 10:58:25.901154475,1744189105,898358813,mA1/imu,0.7075687810687372,0.7066437238298072,0.00010850429885512602,0.001027548374338898,0.0,0.0,0.0,0.0,0.0,0.0,0.0,0.0,0.0,0.0007309669852298261,0.0004451389289688017,0.00019080501773917382,0.0,0.0,0.0,0.0,0.0,0.0,0.0,0.0,0.0,0.006053340674484734,-0.5853511557574523,9.808900020635113,0.0,0.0,0.0,0.0,0.0,0.0,0.0,0.0,0.0
2025/04/09 10:58:25.949506206,1744189105,948772466,mA1/imu,0.7075721054288346,0.7066404131665098,0.00012191690321962595,0.0010135260919233269,0.0,0.0,0.0,0.0,0.0,0.0,0.0,0.0,0.0,0.0006060214919919331,0.0009836810481420202,0.0001866083485359532,0.0,0.0,0.0,0.0,0.0,0.0,0.0,0.0,0.0,0.0068196426170596645,0.03195405145058522,9.809884217188037,0.0,0.0,0.0,0.0,0.0,0.0,0.0,0.0,0.0
2025/04/09 10:58:26.516654,1744189105,999768553,mA1/imu,0.7075753471570021,0.7066371868941094,0.00014951694899779672,0.0009959109947912119,0.0,0.0,0.0,0.0,0.0,0.0,0.0,0.0,0.0,-0.0009681398053585296,0.0014600863624701494,0.00018250655447447738,0.0,0.0,0.0,0.0,0.0,0.0,0.0,0.0,0.0,0.007227200994787636,0.5540303527026083,9.811192181337319,0.0,0.0,0.0,0.0,0.0,0.0,0.0,0.0,0.0
2025/04/09 10:58:26.52518774,1744189106,50527937,mA1/imu,0.7075785163336374,0.7066340415261984,0.00018352264544755335,0.0009699994214574272,0.0,0.0,0.0,0.0,0.0,0.0,0.0,0.0,0.0,-0.0007964623470431829,0.0018418542126914651,0.0001785002317213979,0.0,0.0,0.0,0.0,0.0,0.0,0.0,0.0,0.0,0.0070041244025275465,-0.06292466117747927,9.810498136313521,0.0,0.0,0.0,0.0,0.0,0.0,0.0,0.0,0.0
2025/04/09 10:58:26.102362712,1744189106,101391908,mA1/imu,0.7075816204741939,0.7066309741661041,0.00021677679917485359,0.0009325899398658314,0.0,0.0,0.0,0.0,0.0,0.0,0.0,0.0,0.0,0.0008251471302834728,0.002090256356415504,0.00017452897128605486,0.0,0.0,0.0,0.0,0.0,0.0,0.0,0.0,0.0,0.008185461273898312,-0.585528928732147,9.808946856013742,0.0,0.0,0.0,0.0,0.0,0.0,0.0,0.0,0.0
2025/04/09 10:58:26.153174009,1744189106,152301544,mA1/imu,0.707584650829554,0.7066279800921582,0.00025320346993266713,0.0008919357025581993,0.0,0.0,0.0,0.0,0.0,0.0,0.0,0.0,0.0,0.0007148228501318144,0.0022173983949057906,0.00017050781775924828,0.0,0.0,0.0,0.0,0.0,0.0,0.0,0.0,0.0,0.00889181984408736,0.03183606378353951,9.809875765829327,0.0,0.0,0.0,0.0,0.0,0.0,0.0,0.0,0.0
2025/04/09 10:58:26.204227344,1744189106,203291511,mA1/imu,0.7075876005421868,0.706625054990865,0.0002956359649272269,0.0008554633151766787,0.0,0.0,0.0,0.0,0.0,0.0,0.0,0.0,0.0,-0.0008505063518323618,0.002219663078063531,0.00016640103649405425,0.0,0.0,0.0,0.0,0.0,0.0,0.0,0.0,0.0,0.00940488807998603,0.5540763446099882,9.811120324732059,0.0,0.0,0.0,0.0,0.0,0.0,0.0,0.0,0.0
2025/04/09 10:58:26.256641568,1744189106,254555906,mA1/imu,0.7075904768267708,0.7066221997285026,0.00033560579750113414,0.0008193434345178212,0.0,0.0,0.0,0.0,0.0,0.0,0.0,0.0,0.0,-0.0006750625366533173,0.002094891058690764,0.00016220892848332462,0.0,0.0,0.0,0.0,0.0,0.0,0.0,0.0,0.0,0.009050993133492755,-0.06290356576160552,9.810396354294674,0.0,0.0,0.0,0.0,0.0,0.0,0.0,0.0,0.0
2025/04/09 10:58:26.306968998,1744189106,305488453,mA1/imu,0.7075932845475169,0.706619416866504,0.00036576890720106924,0.000780758352673288,0.0,0.0,0.0,0.0,0.0,0.0,0.0,0.0,0.0,0.0009445285413813032,0.001832766520482035,0.00015789561757366145,0.0,0.0,0.0,0.0,0.0,0.0,0.0,0.0,0.0,0.009942090142279897,-0.5855258400539067,9.808837099294292,0.0,0.0,0.0,0.0,0.0,0.0,0.0,0.0,0.0
2025/04/09 10:58:26.349834977,1744189106,347438048,mA1/imu,0.7075960155797374,0.7066167042563255,0.00039054970664534886,0.0007479789671949503,0.0,0.0,0.0,0.0,0.0,0.0,0.0,0.0,0.0,0.0008205663741667464,0.001474052646012867,0.0001534520447424753,0.0,0.0,0.0,0.0,0.0,0.0,0.0,0.0,0.0,0.010439880757542538,0.03144868741892798,9.809734833575257,0.0,0.0,0.0,0.0,0.0,0.0,0.0,0.0,0.0
2025/04/09 10:58:26.399751320,1744189106,398402624,mA1/imu,0.7075986646929237,0.7066140598553666,0.00041338415952771866,0.0007274977967335677,0.0,0.0,0.0,0.0,0.0,0.0,0.0,0.0,0.0,-0.0007532002096678314,0.001046891041208059,0.00014890186205391355,0.0,0.0,0.0,0.0,0.0,0.0,0.0,0.0,0.0,0.010380383319669572,0.5537342206210039,9.810985618287729,0.0,0.0,0.0,0.0,0.0,0.0,0.0,0.0,0.0
2025/04/09 10:58:26.456679603,1744189106,448222553,mA1/imu,0.7076012391441805,0.7066114869974498,0.00042717237468678374,0.0007143728967603147,0.0,0.0,0.0,0.0,0.0,0.0,0.0,0.0,0.0,-0.0005920895670589863,0.0005704657725297143,0.0001443789990710832,0.0,0.0,0.0,0.0,0.0,0.0,0.0,0.0,0.0,0.009765282001430866,-0.06318637636876324,9.81027269027341,0.0,0.0,0.0,0.0,0.0,0.0,0.0,0.0,0.0
2025/04/09 10:58:26.500355655,1744189106,499155600,mA1/imu,0.7076037470420926,0.7066089862924603,0.0004263147021584181,0.0007042148158055307,0.0,0.0,0.0,0.0,0.0,0.0,0.0,0.0,0.0,0.0010091375218863826,6.0933994435659084e-05,0.0001401419963147163,0.0,0.0,0.0,0.0,0.0,0.0,0.0,0.0,0.0,0.009886238028486944,-0.5852638549663064,9.80867123509182,0.0,0.0,0.0,0.0,0.0,0.0,0.0,0.0,0.0
2025/04/09 10:58:26.550270296,1744189106,549009318,mA1/imu,0.7076061883004074,0.7066065480387259,0.0004170216896195308,0.0007033069561726261,0.0,0.0,0.0,0.0,0.0,0.0,0.0,0.0,0.0,0.0008702635740915309,-0.0004386366339735966,0.00013625779599507653,0.0,0.0,0.0,0.0,0.0,0.0,0.0,0.0,0.0,0.010227822943000252,0.03221826188299664,9.809595294602858,0.0,0.0,0.0,0.0,0.0,0.0,0.0,0.0,0.0
2025/04/09 10:58:26.602181626,1744189106,600120643,mA1/imu,0.7076085596662233,0.7066041671049558,0.00040507018714694713,0.0007164043188227045,0.0,0.0,0.0,0.0,0.0,0.0,0.0,0.0,0.0,-0.0007313068375507351,-0.0008853183171293171,0.0001322654212895154,0.0,0.0,0.0,0.0,0.0,0.0,0.0,0.0,0.0,0.009404391166325533,0.5537073903749126,9.810892544081796,0.0,0.0,0.0,0.0,0.0,0.0,0.0,0.0,0.0
2025/04/09 10:58:26.652079527,1744189106,649933050,mA1/imu,0.7076108662383014,0.7066018475917659,0.0003853683088467058,0.000736513849285885,0.0,0.0,0.0,0.0,0.0,0.0,0.0,0.0,0.0,-0.0005968308558036848,-0.0012716987629478864,0.0001284160220942369,0.0,0.0,0.0,0.0,0.0,0.0,0.0,0.0,0.0,0.008680310016218194,-0.06317886637361318,9.810214501610375,0.0,0.0,0.0,0.0,0.0,0.0,0.0,0.0,0.0
2025/04/09 10:58:26.702099193,1744189106,701188495,mA1/imu,0.7076131155798634,0.7065995893507141,0.0003542428397606726,0.0007572983372351302,0.0,0.0,0.0,0.0,0.0,0.0,0.0,0.0,0.0,0.000978573713822312,-0.0015830658802988278,0.0001248652139944234,0.0,0.0,0.0,0.0,0.0,0.0,0.0,0.0,0.0,0.008316609399890667,-0.585414802762482,9.808673503015667,0.0,0.0,0.0,0.0,0.0,0.0,0.0,0.0,0.0
2025/04/09 10:58:26.753485366,1744189106,751202132,mA1/imu,0.7076153044417071,0.7065973855031673,0.0003195832476764977,0.0007833176279506284,0.0,0.0,0.0,0.0,0.0,0.0,0.0,0.0,0.0,0.0008154299319622215,-0.001796315856580751,0.00012152098502814687,0.0,0.0,0.0,0.0,0.0,0.0,0.0,0.0,0.0,0.008583762006282735,0.03192400925512812,9.809626194996694,0.0,0.0,0.0,0.0,0.0,0.0,0.0,0.0,0.0
2025/04/09 10:58:26.803430530,1744189106,802281863,mA1/imu,0.7076174306310765,0.7065952304706334,0.0002885604216259849,0.0008178484634420774,0.0,0.0,0.0,0.0,0.0,0.0,0.0,0.0,0.0,-0.0008071519207426667,-0.0018817776163307142,0.0001184630554479718,0.0,0.0,0.0,0.0,0.0,0.0,0.0,0.0,0.0,0.007501453562111328,0.5538816923457669,9.810952453992556,0.0,0.0,0.0,0.0,0.0,0.0,0.0,0.0,0.0
2025/04/09 10:58:26.852974858,1744189106,852195412,mA1/imu,0.7076195048781356,0.7065931240433738,0.00025703758897859674,0.0008528202188737918,0.0,0.0,0.0,0.0,0.0,0.0,0.0,0.0,0.0,-0.0006900591472514967,-0.0018602098796932694,0.00011573402550817093,0.0,0.0,0.0,0.0,0.0,0.0,0.0,0.0,0.0,0.006856450495643836,-0.06307745563374433,9.810304649473181,0.0,0.0,0.0,0.0,0.0,0.0,0.0,0.0,0.0
2025/04/09 10:58:26.907222548,1744189106,904568316,mA1/imu,0.7076215374358039,0.7065910656078785,0.00022187041279881882,0.0008812114567897204,0.0,0.0,0.0,0.0,0.0,0.0,0.0,0.0,0.0,0.0008728598604181257,-0.0017384590638348356,0.00011326636244047468,0.0,0.0,0.0,0.0,0.0,0.0,0.0,0.0,0.0,0.006571374665543402,-0.5854363376631803,9.808795303305306,0.0,0.0,0.0,0.0,0.0,0.0,0.0,0.0,0.0
2025/04/09 10:58:26.956800369,1744189106,954417056,mA1/imu,0.7076235243778382,0.7065890517027407,0.0001910144686825338,0.0009073446874991657,0.0,0.0,0.0,0.0,0.0,0.0,0.0,0.0,0.0,0.0007020222009333627,-0.0015202725708717707,0.00011093347237734979,0.0,0.0,0.0,0.0,0.0,0.0,0.0,0.0,0.0,0.006999939430139764,0.03195582191234754,9.809756757047309,0.0,0.0,0.0,0.0,0.0,0.0,0.0,0.0,0.0
2025/04/09 10:58:27.7806764,1744189107,5381198,mA1/imu,0.7076254622624547,0.7065870803807552,0.00017124939820238448,0.0009347034242110845,0.0,0.0,0.0,0.0,0.0,0.0,0.0,0.0,0.0,-0.0009227944319531254,-0.0012019665721358667,0.00010878512850358089,0.0,0.0,0.0,0.0,0.0,0.0,0.0,0.0,0.0,0.00633407241025112,0.5537841434250762,9.811116625720045,0.0,0.0,0.0,0.0,0.0,0.0,0.0,0.0,0.0
2025/04/09 10:58:27.56182844,1744189107,55250462,mA1/imu,0.7076273624820721,0.7065851522595432,0.00015763343211447274,0.0009558371854318105,0.0,0.0,0.0,0.0,0.0,0.0,0.0,0.0,0.0,-0.0008030401073277349,-0.0008248419718480406,0.0001068715245700802,0.0,0.0,0.0,0.0,0.0,0.0,0.0,0.0,0.0,0.005885248885919292,-0.06324076807759434,9.810447467510452,0.0,0.0,0.0,0.0,0.0,0.0,0.0,0.0,0.0
2025/04/09 10:58:27.107314028,1744189107,106230437,mA1/imu,0.7076292359985509,0.7065832664038458,0.00014581673164645132,0.000964746422467432,0.0,0.0,0.0,0.0,0.0,0.0,0.0,0.0,0.0,0.0007679193310754819,-0.0004201301504249978,0.00010518009867076482,0.0,0.0,0.0,0.0,0.0,0.0,0.0,0.0,0.0,0.006164056996491804,-0.5851296823960509,9.808927204887555,0.0,0.0,0.0,0.0,0.0,0.0,0.0,0.0,0.0
2025/04/09 10:58:27.149036004,1744189107,147078246,mA1/imu,0.7076310792876234,0.7065814179489679,0.00014228715854859114,0.0009670521307767847,0.0,0.0,0.0,0.0,0.0,0.0,0.0,0.0,0.0,0.0006097038529637691,6.05890936359126e-07,0.00010371931098124874,0.0,0.0,0.0,0.0,0.0,0.0,0.0,0.0,0.0,0.0067557411967068045,0.03216702548459331,9.809873144947623,0.0,0.0,0.0,0.0,0.0,0.0,0.0,0.0,0.0
2025/04/09 10:58:27.199619836,1744189107,198013800,mA1/imu,0.7076343425908479,0.7065781476304697,0.00015200596959534935,0.0009671459548123058,0.0,0.0,0.0,0.0,0.0,0.0,0.0,0.0,0.0,-0.0009649929375916145,0.00044143142063643106,0.0002389842849553773,0.0,0.0,0.0,0.0,0.0,0.0,0.0,0.0,0.0,0.006013259737634941,0.5578130260062025,9.811411350315897,0.0,0.0,0.0,0.0,0.0,0.0,0.0,0.0,0.0
2025/04/09 10:58:27.251417784,1744189107,250435802,mA1/imu,0.7076393703990626,0.7065731193006948,0.00016806178368905875,0.0009593217089956588,0.0,0.0,0.0,0.0,0.0,0.0,0.0,0.0,0.0,-0.0008152863331406995,0.0008264228218273269,0.0002598326806781884,0.0,0.0,0.0,0.0,0.0,0.0,0.0,0.0,0.0,0.006796664637677236,-0.06703835939568478,9.810704636611828,0.0,0.0,0.0,0.0,0.0,0.0,0.0,0.0,0.0
2025/04/09 10:58:27.304036506,1744189107,301760249,mA1/imu,0.7076424248637625,0.7065700811326526,0.00018468126863061132,0.0009406773940950508,0.0,0.0,0.0,0.0,0.0,0.0,0.0,0.0,0.0,0.0007390800815172579,0.0011109185680039674,0.00011578207816133568,0.0,0.0,0.0,0.0,0.0,0.0,0.0,0.0,0.0,0.008260161586784748,-0.5895870828393847,9.808654221044991,0.0,0.0,0.0,0.0,0.0,0.0,0.0,0.0,0.0
2025/04/09 10:58:27.352915242,1744189107,351615104,mA1/imu,0.7076432618563193,0.7065692660936486,0.0002069605874768094,0.000918329214996503,0.0,0.0,0.0,0.0,0.0,0.0,0.0,0.0,0.0,0.0005836621901171769,0.00135443000672905,3.068945012349121e-05,0.0,0.0,0.0,0.0,0.0,0.0,0.0,0.0,0.0,0.00788031071691159,0.03228113628264481,9.80983015023599,0.0,0.0,0.0,0.0,0.0,0.0,0.0,0.0,0.0
2025/04/09 10:58:27.405792789,1744189107,404401618,mA1/imu,0.7076437835727425,0.7065687598924005,0.000238503156078822,0.0008979037884665787,0.0,0.0,0.0,0.0,0.0,0.0,0.0,0.0,0.0,-0.0010054953079437253,0.0015310209691530516,3.0191884122551354e-05,0.0,0.0,0.0,0.0,0.0,0.0,0.0,0.0,0.0,0.00817703111537249,0.5541303567124518,9.811086626300334,0.0,0.0,0.0,0.0,0.0,0.0,0.0,0.0,0.0
2025/04/09 10:58:27.455664665,1744189107,454319780,mA1/imu,0.7076442947342952,0.7065682652165887,0.00027138158726493857,0.0008746832893855732,0.0,0.0,0.0,0.0,0.0,0.0,0.0,0.0,0.0,-0.0008453590333062495,0.0016162066001234512,2.95820225042997e-05,0.0,0.0,0.0,0.0,0.0,0.0,0.0,0.0,0.0,0.007845985500339157,-0.0628997615532477,9.81037503769147,0.0,0.0,0.0,0.0,0.0,0.0,0.0,0.0,0.0
2025/04/09 10:58:27.508185411,1744189107,505592703,mA1/imu,0.7076447994946597,0.706567784528551,0.00029865924758510184,0.0008452320579614122,0.0,0.0,0.0,0.0,0.0,0.0,0.0,0.0,0.0,0.0007549041486490723,0.00158799178621332,2.8834229546177204e-05,0.0,0.0,0.0,0.0,0.0,0.0,0.0,0.0,0.0,0.008757519428336196,-0.5804524106142225,9.808784442247681,0.0,0.0,0.0,0.0,0.0,0.0,0.0,0.0,0.0
2025/04/09 10:58:27.556986328,1744189107,555510417,mA1/imu,0.7076452883635903,0.7065673162492805,0.0003247674939071764,0.0008173072709667452,0.0,0.0,0.0,0.0,0.0,0.0,0.0,0.0,0.0,0.0006473151178359322,0.0014713951797960274,2.7928458757951736e-05,0.0,0.0,0.0,0.0,0.0,0.0,0.0,0.0,0.0,0.009343162687943923,0.031593752152614465,9.809701853601416,0.0,0.0,0.0,0.0,0.0,0.0,0.0,0.0,0.0
2025/04/09 10:58:27.598721152,1744189107,597669595,mA1/imu,0.7076457545672983,0.7065668585882595,0.00035305854422462495,0.0007973313375509066,0.0,0.0,0.0,0.0,0.0,0.0,0.0,0.0,0.0,-0.000917007948419727,0.001280377669949339,2.6892725756424907e-05,0.0,0.0,0.0,0.0,0.0,0.0,0.0,0.0,0.0,0.00943575213226321,0.5538139865788595,9.81097151484084,0.0,0.0,0.0,0.0,0.0,0.0,0.0,0.0,0.0
2025/04/09 10:58:27.654368659,1744189107,648002719,mA1/imu,0.7076463151120966,0.7065663051826525,0.0003763024394293029,0.0007794134206961916,0.0,0.0,0.0,0.0,0.0,0.0,0.0,0.0,0.0,-0.0006824718998617497,0.001146802785178071,4.66325903239039e-05,0.0,0.0,0.0,0.0,0.0,0.0,0.0,0.0,0.0,-0.0005826476643755723,-0.05525425938444325,9.810475303537435,0.0,0.0,0.0,0.0,0.0,0.0,0.0,0.0,0.0
2025/04/09 10:58:27.699694456,1744189107,699016988,mA1/imu,0.7076477019205896,0.7065649349031674,0.0003910522508876213,0.0007548575549405558,0.0,0.0,0.0,0.0,0.0,0.0,0.0,0.0,0.0,0.001016118279291933,0.0010845147863591121,9.988503382701489e-05,0.0,0.0,0.0,0.0,0.0,0.0,0.0,0.0,0.0,0.0009524090853375569,-0.5785056279178813,9.808421103713679,0.0,0.0,0.0,0.0,0.0,0.0,0.0,0.0,0.0
2025/04/09 10:58:27.749665069,1744189107,748774222,mA1/imu,0.7076500043437416,0.7065626484046051,0.0004022445996905105,0.0007303636455144219,0.0,0.0,0.0,0.0,0.0,0.0,0.0,0.0,0.0,0.0010275723964312316,0.0009363288086379225,0.00015042546452513367,0.0,0.0,0.0,0.0,0.0,0.0,0.0,0.0,0.0,0.0024856960970760554,0.0479270960031727,9.809410588595329,0.0,0.0,0.0,0.0,0.0,0.0,0.0,0.0,0.0
2025/04/09 10:58:27.803176584,1744189107,802083429,mA1/imu,0.7076531601962641,0.7065595008991268,0.00041260047287785216,0.00071155763452336,0.0,0.0,0.0,0.0,0.0,0.0,0.0,0.0,0.0,-0.0003849973430675662,0.0007347060155687432,0.00019784833080930696,0.0,0.0,0.0,0.0,0.0,0.0,0.0,0.0,0.0,0.0024109463282215387,0.5700368738888156,9.811269113951825,0.0,0.0,0.0,0.0,0.0,0.0,0.0,0.0,0.0
2025/04/09 10:58:27.854001116,1744189107,852038685,mA1/imu,0.707657168402155,0.7065555036793124,0.00041483399643545897,0.0006929229919755956,0.0,0.0,0.0,0.0,0.0,0.0,0.0,0.0,0.0,-1.2080783513743409e-05,0.0005006111982192656,0.00024654549127534655,0.0,0.0,0.0,0.0,0.0,0.0,0.0,0.0,0.0,0.001108672813025746,-0.035607675077385305,9.810511218975716,0.0,0.0,0.0,0.0,0.0,0.0,0.0,0.0,0.0
2025/04/09 10:58:27.904648654,1744189107,903061390,mA1/imu,0.7076620880416558,0.7065506067070044,0.0004025569522564138,0.0006687737945064454,0.0,0.0,0.0,0.0,0.0,0.0,0.0,0.0,0.0,0.0018178598624642552,0.0002273744682854507,0.00029819997090054645,0.0,0.0,0.0,0.0,0.0,0.0,0.0,0.0,0.0,0.001921124481875181,-0.5593630878711368,9.808286492836888,0.0,0.0,0.0,0.0,0.0,0.0,0.0,0.0,0.0
2025/04/09 10:58:27.955336078,1744189107,952972580,mA1/imu,0.707667874200897,0.7065448429836313,0.00038251268182307673,0.0006468085244866485,0.0,0.0,0.0,0.0,0.0,0.0,0.0,0.0,0.0,0.0008738659133877645,-7.669792051985327e-05,0.00034233574521029536,0.0,0.0,0.0,0.0,0.0,0.0,0.0,0.0,0.0,0.0045378354147549696,0.577854753092144,9.810812714573524,0.0,0.0,0.0,0.0,0.0,0.0,0.0,0.0,0.0
2025/04/09 10:58:28.4770583,1744189108,3938616,mA1/imu,0.7076742625948962,0.706538480144566,0.00035121724012565094,0.000625125768853934,0.0,0.0,0.0,0.0,0.0,0.0,0.0,0.0,0.0,0.001627437759767502,-0.0003899428663019519,0.00037363156914444666,0.0,0.0,0.0,0.0,0.0,0.0,0.0,0.0,0.0,0.0029702341856868222,0.031273725942169206,9.81098277301492,0.0,0.0,0.0,0.0,0.0,0.0,0.0,0.0,0.0
2025/04/09 10:58:28.55100243,1744189108,54043335,mA1/imu,0.7076814668804644,0.7065313080635749,0.0003055174239757842,0.0005990150177369521,0.0,0.0,0.0,0.0,0.0,0.0,0.0,0.0,0.0,0.002987657299312599,-0.0006547192882752576,0.00042722123095590705,0.0,0.0,0.0,0.0,0.0,0.0,0.0,0.0,0.0,0.0016496831448263322,0.11749346276102238,9.81203692165797,0.0,0.0,0.0,0.0,0.0,0.0,0.0,0.0,0.0
2025/04/09 10:58:28.106395865,1744189108,105037109,mA1/imu,0.707689314883657,0.7065234784744873,0.0002624556425570218,0.0005823064885100032,0.0,0.0,0.0,0.0,0.0,0.0,0.0,0.0,0.0,0.0019503257909860832,-0.0008184496575303495,0.0004547131849781016,0.0,0.0,0.0,0.0,0.0,0.0,0.0,0.0,0.0,-0.0002825098751228078,0.5375957827198068,9.809853340585182,0.0,0.0,0.0,0.0,0.0,0.0,0.0,0.0,0.0
2025/04/09 10:58:28.155600778,1744189108,150330413,mA1/imu,0.7076975593091605,0.7065152517413604,0.0002123204036830075,0.0005643799657714325,0.0,0.0,0.0,0.0,0.0,0.0,0.0,0.0,0.0,0.0009668865168752181,-0.0009778848302792315,0.00047191998104340554,0.0,0.0,0.0,0.0,0.0,0.0,0.0,0.0,0.0,0.002413369775642018,0.5902411171547148,9.809477234432617,0.0,0.0,0.0,0.0,0.0,0.0,0.0,0.0,0.0
2025/04/09 10:58:28.205521156,1744189108,202340110,mA1/imu,0.7077060849172632,0.7065067514627225,0.00014516095569336483,0.0005351980640738999,0.0,0.0,0.0,0.0,0.0,0.0,0.0,0.0,0.0,0.0037975040046865894,-0.0011170747111742456,0.0004870023549250759,0.0,0.0,0.0,0.0,0.0,0.0,0.0,0.0,0.0,0.0030944712331617014,-0.48389033490020944,9.809915788972003,0.0,0.0,0.0,0.0,0.0,0.0,0.0,0.0,0.0
2025/04/09 10:58:28.253498263,1744189108,252748129,mA1/imu,0.7077149970634903,0.7064978502704667,8.148820630382334e-05,0.0005136675048399138,0.0,0.0,0.0,0.0,0.0,0.0,0.0,0.0,0.0,0.0037166509629108007,-0.0012406597215849702,0.0005171531540812636,0.0,0.0,0.0,0.0,0.0,0.0,0.0,0.0,0.0,0.003075484224222242,-0.4111630097765029,9.80883566851128,0.0,0.0,0.0,0.0,0.0,0.0,0.0,0.0,0.0
2025/04/09 10:58:28.307466238,1744189108,303910245,mA1/imu,0.7077244952471766,0.7064883548113656,1.7940567540236793e-05,0.0004929717994995381,0.0,0.0,0.0,0.0,0.0,0.0,0.0,0.0,0.0,0.0026482544355799402,-0.0012127254387877958,0.0005543285216162504,0.0,0.0,0.0,0.0,0.0,0.0,0.0,0.0,0.0,0.0019517346029300012,0.06596428080404389,9.811710029904779,0.0,0.0,0.0,0.0,0.0,0.0,0.0,0.0,0.0
2025/04/09 10:58:28.358053691,1744189108,355776698,mA1/imu,0.7077348844706869,0.7064779592269699,-4.243139706150485e-05,0.0004739507735786339,0.0,0.0,0.0,0.0,0.0,0.0,0.0,0.0,0.0,0.001982646435858921,-0.0011183022607765781,0.0006074088005673907,0.0,0.0,0.0,0.0,0.0,0.0,0.0,0.0,0.0,0.0007715286423454169,0.08960433324627522,9.810755128229433,0.0,0.0,0.0,0.0,0.0,0.0,0.0,0.0,0.0
2025/04/09 10:58:28.400325777,1744189108,397645819,mA1/imu,0.7077462996989597,0.7064665312152139,-9.93371216447149e-05,0.0004535055786605575,0.0,0.0,0.0,0.0,0.0,0.0,0.0,0.0,0.0,0.001933479843989411,-0.0009713427711198924,0.0006655754045626029,0.0,0.0,0.0,0.0,0.0,0.0,0.0,0.0,0.0,0.0013389082893947761,-0.1996154526407045,9.810152778738496,0.0,0.0,0.0,0.0,0.0,0.0,0.0,0.0,0.0
2025/04/09 10:58:28.454047778,1744189108,451407269,mA1/imu,0.7077584408462457,0.7064543735278958,-0.00015343830442274167,0.00042894158907176333,0.0,0.0,0.0,0.0,0.0,0.0,0.0,0.0,0.0,0.0020406041444941485,-0.0007552979641564072,0.0007009970334166739,0.0,0.0,0.0,0.0,0.0,0.0,0.0,0.0,0.0,0.0018104084754576848,0.20338512762521455,9.810432169052696,0.0,0.0,0.0,0.0,0.0,0.0,0.0,0.0,0.0
2025/04/09 10:58:28.503996851,1744189108,502980787,mA1/imu,0.7077712350961843,0.7064415559552981,-0.00019120375398638584,0.00041259060073576984,0.0,0.0,0.0,0.0,0.0,0.0,0.0,0.0,0.0,0.0003731005732040559,-0.0005022810263145899,0.0007374834449259744,0.0,0.0,0.0,0.0,0.0,0.0,0.0,0.0,0.0,0.0024479149917406816,0.5448741427985803,9.811266628150415,0.0,0.0,0.0,0.0,0.0,0.0,0.0,0.0,0.0
2025/04/09 10:58:28.553432966,1744189108,552197761,mA1/imu,0.70778467593966,0.706428091225166,-0.00022291263891942938,0.00039337375908138144,0.0,0.0,0.0,0.0,0.0,0.0,0.0,0.0,0.0,0.0017244033287700012,-0.00025920223325076483,0.0007743508199871535,0.0,0.0,0.0,0.0,0.0,0.0,0.0,0.0,0.0,0.0022367063735103544,-0.5146896542839019,9.809808484961414,0.0,0.0,0.0,0.0,0.0,0.0,0.0,0.0,0.0
2025/04/09 10:58:28.604213446,1744189108,603181923,mA1/imu,0.7077985977882016,0.7064141462570185,-0.00025223543750173966,0.00036785093077994544,0.0,0.0,0.0,0.0,0.0,0.0,0.0,0.0,0.0,0.002818549551558362,-9.580658510347308e-06,0.000794607053295954,0.0,0.0,0.0,0.0,0.0,0.0,0.0,0.0,0.0,0.0021629563079288436,-0.39544011419825337,9.809158448291091,0.0,0.0,0.0,0.0,0.0,0.0,0.0,0.0,0.0
2025/04/09 10:58:28.654343704,1744189108,652976799,mA1/imu,0.7078127844696248,0.7063999351422737,-0.0002631395080222123,0.000352888009584826,0.0,0.0,0.0,0.0,0.0,0.0,0.0,0.0,0.0,0.0004271597878992539,0.0001808785673561348,0.0008080087720701498,0.0,0.0,0.0,0.0,0.0,0.0,0.0,0.0,0.0,0.0048398181163400575,0.7023836427543952,9.810793153980438,0.0,0.0,0.0,0.0,0.0,0.0,0.0,0.0,0.0
2025/04/09 10:58:28.705418567,1744189108,703974246,mA1/imu,0.7078271359798934,0.7063855600151278,-0.0002692880323816679,0.00033712990279018753,0.0,0.0,0.0,0.0,0.0,0.0,0.0,0.0,0.0,-0.00020196106075205048,0.00032993302469599885,0.000814761824887709,0.0,0.0,0.0,0.0,0.0,0.0,0.0,0.0,0.0,0.004264343269389631,0.24741180729390225,9.810229696442926,0.0,0.0,0.0,0.0,0.0,0.0,0.0,0.0,0.0
2025/04/09 10:58:28.754852575,1744189108,754111337,mA1/imu,0.7078416591230492,0.7063710146868913,-0.0002763546232907899,0.0003144014356204369,0.0,0.0,0.0,0.0,0.0,0.0,0.0,0.0,0.0,0.0005120339124595702,0.0005254592931935125,0.0008302345249138848,0.0,0.0,0.0,0.0,0.0,0.0,0.0,0.0,0.0,0.002342929647236175,0.10357384435882881,9.807498230722638,0.0,0.0,0.0,0.0,0.0,0.0,0.0,0.0,0.0
2025/04/09 10:58:28.806416699,1744189108,805120363,mA1/imu,0.7078563643678487,0.7063562878104528,-0.00027475087690504964,0.0002942898637407323,0.0,0.0,0.0,0.0,0.0,0.0,0.0,0.0,0.0,0.001075937828944957,0.0006557784154046889,0.0008377026808136015,0.0,0.0,0.0,0.0,0.0,0.0,0.0,0.0,0.0,0.0031317843012511892,-0.48258993055297805,9.807517181557895,0.0,0.0,0.0,0.0,0.0,0.0,0.0,0.0,0.0
2025/04/09 10:58:28.860636143,1744189108,857890673,mA1/imu,-0.707871429208322,-0.7063412010164397,0.0002733899304753811,-0.0002696574998734652,0.0,0.0,0.0,0.0,0.0,0.0,0.0,0.0,0.0,-0.0007711953326402413,0.0008226945564501505,0.0008635362098617566,0.0,0.0,0.0,0.0,0.0,0.0,0.0,0.0,0.0,0.0009782737424215123,0.658859483718836,9.810955881695564,0.0,0.0,0.0,0.0,0.0,0.0,0.0,0.0,0.0
2025/04/09 10:58:28.902737010,1744189108,898863269,mA1/imu,-0.7078868702953753,-0.706325737710167,0.00026461686642022237,-0.0002471629440495583,0.0,0.0,0.0,0.0,0.0,0.0,0.0,0.0,0.0,0.00038864385449866745,0.0009460385533168717,0.0008833825369816325,0.0,0.0,0.0,0.0,0.0,0.0,0.0,0.0,0.0,0.0010879376860864877,0.15502242664022597,9.812311040067904,0.0,0.0,0.0,0.0,0.0,0.0,0.0,0.0,0.0
2025/04/09 10:58:28.955334149,1744189108,951320881,mA1/imu,-0.70790273787196,-0.7063098469133171,0.00024927668413835197,-0.0002274374732487566,0.0,0.0,0.0,0.0,0.0,0.0,0.0,0.0,0.0,-3.106082473813008e-05,0.0010014591127427384,0.0009022245269893304,0.0,0.0,0.0,0.0,0.0,0.0,0.0,0.0,0.0,0.002535515084943798,0.09961014198535033,9.811710978998153,0.0,0.0,0.0,0.0,0.0,0.0,0.0,0.0,0.0
2025/04/09 10:58:29.5697766,1744189109,4373267,mA1/imu,-0.7079187421590248,-0.7062938175192274,0.00022636714187953129,-0.00021585184184876055,0.0,0.0,0.0,0.0,0.0,0.0,0.0,0.0,0.0,-0.0007341597576807759,0.000941376204585021,0.0009014337105842813,0.0,0.0,0.0,0.0,0.0,0.0,0.0,0.0,0.0,0.0034580487170836516,-0.06573272430095486,9.812924292186105,0.0,0.0,0.0,0.0,0.0,0.0,0.0,0.0,0.0
2025/04/09 10:58:29.56447325,1744189109,54988689,mA1/imu,-0.7079344628047142,-0.706278069907074,0.000215873715635114,-0.00019426857186605022,0.0,0.0,0.0,0.0,0.0,0.0,0.0,0.0,0.0,-3.323270236368859e-05,0.0009197792625424527,0.0008865506815590944,0.0,0.0,0.0,0.0,0.0,0.0,0.0,0.0,0.0,0.0008248275442581162,0.12875455852666423,9.804911815651758,0.0,0.0,0.0,0.0,0.0,0.0,0.0,0.0,0.0
2025/04/09 10:58:29.107809946,1744189109,105971487,mA1/imu,0.7079500511951131,0.7062624525931985,-0.00018312720103586533,0.00019883235429964891,0.0,0.0,0.0,0.0,0.0,0.0,0.0,0.0,0.0,-5.427533407338985e-05,0.0006943021485306926,0.0008793437030913233,0.0,0.0,0.0,0.0,0.0,0.0,0.0,0.0,0.0,0.004565554181590263,-0.4870138907788692,9.80718034983505,0.0,0.0,0.0,0.0,0.0,0.0,0.0,0.0,0.0
2025/04/09 10:58:29.148613708,1744189109,146742184,mA1/imu,0.7079655112881079,0.7062469607483749,-0.00015881720661535298,0.00020009334374986208,0.0,0.0,0.0,0.0,0.0,0.0,0.0,0.0,0.0,-0.0023582497510502265,0.0006106862438395399,0.0008743119115151312,0.0,0.0,0.0,0.0,0.0,0.0,0.0,0.0,0.0,0.004240226716966914,0.03423018283828383,9.810947604040317,0.0,0.0,0.0,0.0,0.0,0.0,0.0,0.0,0.0
2025/04/09 10:58:29.200364304,1744189109,197813880,mA1/imu,0.7079810080786869,0.7062314290910983,-0.00013555486022871966,0.00020588518883605888,0.0,0.0,0.0,0.0,0.0,0.0,0.0,0.0,0.0,-0.0017377389509448153,0.0004396655898415632,0.0008789809696067206,0.0,0.0,0.0,0.0,0.0,0.0,0.0,0.0,0.0,0.004281489374076434,0.04838408175062536,9.809826408287346,0.0,0.0,0.0,0.0,0.0,0.0,0.0,0.0,0.0
2025/04/09 10:58:29.249541562,1744189109,247635202,mA1/imu,0.707996386881278,0.7062160110701957,-0.00011410768597047694,0.00022102170268418066,0.0,0.0,0.0,0.0,0.0,0.0,0.0,0.0,0.0,-0.001933433730099675,-2.5593235850250066e-05,0.0008602580393607468,0.0,0.0,0.0,0.0,0.0,0.0,0.0,0.0,0.0,0.013406282285999209,0.04966038007090187,9.808236979026873,0.0,0.0,0.0,0.0,0.0,0.0,0.0,0.0,0.0
2025/04/09 10:58:29.299889284,1744189109,298548533,mA1/imu,0.7080112820170524,0.7062010722010862,-0.00010371690264845001,0.0002437240452130427,0.0,0.0,0.0,0.0,0.0,0.0,0.0,0.0,0.0,-0.0020114359757160204,-0.0005426282907074004,0.0008331311676820148,0.0,0.0,0.0,0.0,0.0,0.0,0.0,0.0,0.0,0.013371487044220753,0.6746661026820413,9.809693340883628,0.0,0.0,0.0,0.0,0.0,0.0,0.0,0.0,0.0
2025/04/09 10:58:29.349246549,1744189109,348404617,mA1/imu,0.7080256808991885,0.7061866235414986,-9.680739499772612e-05,0.0002802617102939655,0.0,0.0,0.0,0.0,0.0,0.0,0.0,0.0,0.0,-0.0009024021532735524,-0.001022086162785665,0.0008045461925109016,0.0,0.0,0.0,0.0,0.0,0.0,0.0,0.0,0.0,0.012786887627800732,0.12397659879769904,9.810467535474144,0.0,0.0,0.0,0.0,0.0,0.0,0.0,0.0,0.0
2025/04/09 10:58:29.401872232,1744189109,400732332,mA1/imu,0.7080395664978456,0.7061726837574926,-0.00010187459211321746,0.00032032772411281075,0.0,0.0,0.0,0.0,0.0,0.0,0.0,0.0,0.0,-5.768042276816698e-05,-0.0014287176911163737,0.0007756878359649017,0.0,0.0,0.0,0.0,0.0,0.0,0.0,0.0,0.0,0.011557292623861699,0.33300809579095036,9.810678194598646,0.0,0.0,0.0,0.0,0.0,0.0,0.0,0.0,0.0
2025/04/09 10:58:29.452823695,1744189109,450566156,mA1/imu,0.7080529615948965,0.7061592261448634,-0.0001059589048303501,0.00037373773409064696,0.0,0.0,0.0,0.0,0.0,0.0,0.0,0.0,0.0,0.0005859570503191202,-0.0017640739315676018,0.0007499316089662647,0.0,0.0,0.0,0.0,0.0,0.0,0.0,0.0,0.0,0.012335960399686523,-0.410896326695154,9.808982338541991,0.0,0.0,0.0,0.0,0.0,0.0,0.0,0.0,0.0
2025/04/09 10:58:29.503961478,1744189109,501635614,mA1/imu,0.7080659278407941,0.7061461906551425,-0.0001144917761319718,0.000431446195548767,0.0,0.0,0.0,0.0,0.0,0.0,0.0,0.0,0.0,-0.00037465880250285837,-0.0019516231843261331,0.000726105625446099,0.0,0.0,0.0,0.0,0.0,0.0,0.0,0.0,0.0,0.011188021898536276,-0.4828661992854135,9.81033150276099,0.0,0.0,0.0,0.0,0.0,0.0,0.0,0.0,0.0
2025/04/09 10:58:29.553202697,1744189109,551780608,mA1/imu,0.708078488030326,0.7061335580561461,-0.0001319130375490992,0.00048536028397098247,0.0,0.0,0.0,0.0,0.0,0.0,0.0,0.0,0.0,-0.0010967116294794941,-0.0020441797630684068,0.0007036725044244254,0.0,0.0,0.0,0.0,0.0,0.0,0.0,0.0,0.0,0.011390294769575104,0.3377948057580331,9.81151375312608,0.0,0.0,0.0,0.0,0.0,0.0,0.0,0.0,0.0
2025/04/09 10:58:29.605026010,1744189109,602516202,mA1/imu,0.7080906704583944,0.706121299665296,-0.0001502870283953708,0.0005385003099167803,0.0,0.0,0.0,0.0,0.0,0.0,0.0,0.0,0.0,-0.0008592691147025014,-0.0019864339971837437,0.0006830247362008371,0.0,0.0,0.0,0.0,0.0,0.0,0.0,0.0,0.0,0.010068146379811427,0.09166453179850768,9.810033616852444,0.0,0.0,0.0,0.0,0.0,0.0,0.0,0.0,0.0
2025/04/09 10:58:29.657974332,1744189109,653522118,mA1/imu,0.7081026973882628,0.7061091965660127,-0.00017056226092214017,0.0005859905131088666,0.0,0.0,0.0,0.0,0.0,0.0,0.0,0.0,0.0,-0.0007553046057352737,-0.001870449706886202,0.0007048152527828968,0.0,0.0,0.0,0.0,0.0,0.0,0.0,0.0,0.0,0.012702296057372317,0.08781566187067869,9.809849889211618,0.0,0.0,0.0,0.0,0.0,0.0,0.0,0.0,0.0
2025/04/09 10:58:29.706190000,1744189109,705159287,mA1/imu,0.7081157737407714,0.7060960417515739,-0.00019185615919606832,0.0006276890012853676,0.0,0.0,0.0,0.0,0.0,0.0,0.0,0.0,0.0,-0.0005027992860782454,-0.0017046918562653713,0.0007436991728143709,0.0,0.0,0.0,0.0,0.0,0.0,0.0,0.0,0.0,0.012361669654066473,0.1602183754868392,9.810494588610897,0.0,0.0,0.0,0.0,0.0,0.0,0.0,0.0,0.0
2025/04/09 10:58:29.756558996,1744189109,754978183,mA1/imu,0.7081288133263752,0.7060829271132508,-0.0002125343099906259,0.0006622728518959821,0.0,0.0,0.0,0.0,0.0,0.0,0.0,0.0,0.0,0.0004258007675352495,-0.0014643907673434038,0.0007365995611766244,0.0,0.0,0.0,0.0,0.0,0.0,0.0,0.0,0.0,0.012391717979082333,-0.3588698085629123,9.810490743337192,0.0,0.0,0.0,0.0,0.0,0.0,0.0,0.0,0.0
2025/04/09 10:58:29.800039596,1744189109,798512385,mA1/imu,0.708141720793167,0.7060699523672612,-0.0002326560690897502,0.0006866639206048713,0.0,0.0,0.0,0.0,0.0,0.0,0.0,0.0,0.0,0.0009562714510792273,-0.0011191570627528736,0.0007282778396284144,0.0,0.0,0.0,0.0,0.0,0.0,0.0,0.0,0.0,0.011316515323695911,-0.07682764616407893,9.809816248608566,0.0,0.0,0.0,0.0,0.0,0.0,0.0,0.0,0.0
2025/04/09 10:58:29.849937932,1744189109,848353484,mA1/imu,0.7081542274580749,0.7060573871415287,-0.00024509053556317947,0.0007043626652866627,0.0,0.0,0.0,0.0,0.0,0.0,0.0,0.0,0.0,0.00032297251840317356,-0.0006348854587054432,0.0006677285934594894,0.0,0.0,0.0,0.0,0.0,0.0,0.0,0.0,0.0,0.007173975020600455,0.0932618668218177,9.809877454464452,0.0,0.0,0.0,0.0,0.0,0.0,0.0,0.0,0.0
2025/04/09 10:58:29.901556540,1744189109,900618275,mA1/imu,0.7081649408664723,0.7060466366787903,-0.00025283874463228473,0.0007067069570332635,0.0,0.0,0.0,0.0,0.0,0.0,0.0,0.0,0.0,0.000667867083544908,-5.269229593541377e-05,0.0005936012391331717,0.0,0.0,0.0,0.0,0.0,0.0,0.0,0.0,0.0,0.008091074229931546,0.11427988943932275,9.810485684804815,0.0,0.0,0.0,0.0,0.0,0.0,0.0,0.0,0.0
2025/04/09 10:58:29.952403782,1744189109,950522403,mA1/imu,0.7081752267076473,0.7060363272209815,-0.0002486581317883486,0.000700778861612772,0.0,0.0,0.0,0.0,0.0,0.0,0.0,0.0,0.0,-0.0008610362917474225,0.0005109652335625836,0.0005754732116483129,0.0,0.0,0.0,0.0,0.0,0.0,0.0,0.0,0.0,0.008649819376426546,0.6259567470813033,9.811618250279187,0.0,0.0,0.0,0.0,0.0,0.0,0.0,0.0,0.0
2025/04/09 10:58:30.5220378,1744189110,2218493,mA1/imu,0.7081852166949182,0.7060263296126377,-0.00024014830130961984,0.0006804978120869977,0.0,0.0,0.0,0.0,0.0,0.0,0.0,0.0,0.0,0.0008626561281558525,0.0010157670591863007,0.0005584393719797483,0.0,0.0,0.0,0.0,0.0,0.0,0.0,0.0,0.0,0.009029811726017838,-0.5235088322873734,9.81002607215587,0.0,0.0,0.0,0.0,0.0,0.0,0.0,0.0,0.0
2025/04/09 10:58:30.55061713,1744189110,52866173,mA1/imu,0.7081949138562837,0.7060166381692592,-0.00022798904063420035,0.0006470218431348955,0.0,0.0,0.0,0.0,0.0,0.0,0.0,0.0,0.0,0.001979907441313957,0.0014476975857451908,0.0005419583694857456,0.0,0.0,0.0,0.0,0.0,0.0,0.0,0.0,0.0,0.009577750571688706,-0.45462699552863095,9.809333703394827,0.0,0.0,0.0,0.0,0.0,0.0,0.0,0.0,0.0
2025/04/09 10:58:30.108929124,1744189110,103937616,mA1/imu,0.7082043042034792,0.7060072573858464,-0.00020302243902174585,0.0006122157059481136,0.0,0.0,0.0,0.0,0.0,0.0,0.0,0.0,0.0,5.1026448231379824e-05,0.0018187454333725038,0.0005238617338880643,0.0,0.0,0.0,0.0,0.0,0.0,0.0,0.0,0.0,0.009906398542950853,0.04002520337326933,9.809132935958033,0.0,0.0,0.0,0.0,0.0,0.0,0.0,0.0,0.0
2025/04/09 10:58:30.158517565,1744189110,154288720,mA1/imu,0.7082133818403296,0.7059981965143045,-0.0001795583264648616,0.0005657381376174733,0.0,0.0,0.0,0.0,0.0,0.0,0.0,0.0,0.0,0.00035251610577989036,0.0020668873251804168,0.0005057467201442204,0.0,0.0,0.0,0.0,0.0,0.0,0.0,0.0,0.0,0.009887524627767205,-0.09275356550934469,9.810293537459087,0.0,0.0,0.0,0.0,0.0,0.0,0.0,0.0,0.0
2025/04/09 10:58:30.207380895,1744189110,205906359,mA1/imu,0.7082221253898303,0.7059894684060558,-0.00015063543068708185,0.0005185720904567005,0.0,0.0,0.0,0.0,0.0,0.0,0.0,0.0,0.0,0.00048610657694595123,0.0021923427392796092,0.0004868651587300542,0.0,0.0,0.0,0.0,0.0,0.0,0.0,0.0,0.0,0.010622207918279926,0.07033499597302792,9.808739741294447,0.0,0.0,0.0,0.0,0.0,0.0,0.0,0.0,0.0
2025/04/09 10:58:30.247811275,1744189110,246015325,mA1/imu,0.7082305232947421,0.7059810819122259,-0.00011813872943805895,0.00047317960607148424,0.0,0.0,0.0,0.0,0.0,0.0,0.0,0.0,0.0,0.0002984565765022789,0.00219087522618792,0.0004672320987932825,0.0,0.0,0.0,0.0,0.0,0.0,0.0,0.0,0.0,0.010830279918982933,0.06046013709293289,9.808279483009999,0.0,0.0,0.0,0.0,0.0,0.0,0.0,0.0,0.0
2025/04/09 10:58:30.299733113,1744189110,296985396,mA1/imu,0.7082385759106168,0.705973037875696,-9.065415560256969e-05,0.00042563656644216874,0.0,0.0,0.0,0.0,0.0,0.0,0.0,0.0,0.0,0.0006479572234128125,0.002062674585084986,0.00044801017983978476,0.0,0.0,0.0,0.0,0.0,0.0,0.0,0.0,0.0,0.011255692763335327,0.08969014490303197,9.810444777013023,0.0,0.0,0.0,0.0,0.0,0.0,0.0,0.0,0.0
2025/04/09 10:58:30.349244385,1744189110,347136787,mA1/imu,0.7082462906043008,0.7059653230977985,-5.9820592195893e-05,0.0003883943436043222,0.0,0.0,0.0,0.0,0.0,0.0,0.0,0.0,0.0,0.0016870575285640509,0.0018162573866421102,0.0004293534063937766,0.0,0.0,0.0,0.0,0.0,0.0,0.0,0.0,0.0,0.011066415540931455,-0.45919311735244894,9.807860010395949,0.0,0.0,0.0,0.0,0.0,0.0,0.0,0.0,0.0
2025/04/09 10:58:30.399286863,1744189110,398088081,mA1/imu,0.7082536695006756,0.705957937732395,-3.15518014737559e-05,0.0003588815062233498,0.0,0.0,0.0,0.0,0.0,0.0,0.0,0.0,0.0,0.00019884011615817877,0.0014877407738907588,0.00041064711278476844,0.0,0.0,0.0,0.0,0.0,0.0,0.0,0.0,0.0,0.01187766678004084,0.08576005356192129,9.809148352706266,0.0,0.0,0.0,0.0,0.0,0.0,0.0,0.0,0.0
2025/04/09 10:58:30.449367298,1744189110,448130507,mA1/imu,0.7082607210243145,0.705950874173099,-8.922848891117333e-06,0.00033797742259583684,0.0,0.0,0.0,0.0,0.0,0.0,0.0,0.0,0.0,-0.00031744000666069207,0.0010557730309166068,0.00039237705545621434,0.0,0.0,0.0,0.0,0.0,0.0,0.0,0.0,0.0,0.011715019813473407,0.05028778052983688,9.808113541618475,0.0,0.0,0.0,0.0,0.0,0.0,0.0,0.0,0.0
2025/04/09 10:58:30.500429646,1744189110,499689399,mA1/imu,0.7082674603159214,0.7059441172539314,8.746700065073525e-06,0.0003284748055576613,0.0,0.0,0.0,0.0,0.0,0.0,0.0,0.0,0.0,-0.00016134561629549702,0.0005758380224510106,0.0003751019173080502,0.0,0.0,0.0,0.0,0.0,0.0,0.0,0.0,0.0,0.012082576147345599,-0.04224924948782011,9.810119941749328,0.0,0.0,0.0,0.0,0.0,0.0,0.0,0.0,0.0
2025/04/09 10:58:30.554721009,1744189110,552027839,mA1/imu,0.7082739028102848,0.7059376526452776,1.9606757008806824e-05,0.00032983501570209945,0.0,0.0,0.0,0.0,0.0,0.0,0.0,0.0,0.0,1.3253276111526667e-05,6.692670449157593e-05,0.0003586986358601472,0.0,0.0,0.0,0.0,0.0,0.0,0.0,0.0,0.0,0.011475084527875455,-0.30764388501311246,9.808904794447514,0.0,0.0,0.0,0.0,0.0,0.0,0.0,0.0,0.0
2025/04/09 10:58:30.606698819,1744189110,602987692,mA1/imu,0.7082800603549627,0.7059314679424827,2.500399470385095e-05,0.0003435796011878375,0.0,0.0,0.0,0.0,0.0,0.0,0.0,0.0,0.0,-0.0009884177746435486,-0.00044137040834762233,0.00034278550295435803,0.0,0.0,0.0,0.0,0.0,0.0,0.0,0.0,0.0,0.011900097635382387,0.029708992524942114,9.81017879363924,0.0,0.0,0.0,0.0,0.0,0.0,0.0,0.0,0.0
2025/04/09 10:58:30.653707284,1744189110,652834291,mA1/imu,0.708285948439515,0.7059255460071179,2.6934403001550476e-05,0.0003714999693585902,0.0,0.0,0.0,0.0,0.0,0.0,0.0,0.0,0.0,-0.0012427158551482176,-0.0009178878301220483,0.000328461692329061,0.0,0.0,0.0,0.0,0.0,0.0,0.0,0.0,0.0,0.011368414738284354,0.022034682585646656,9.809477032009855,0.0,0.0,0.0,0.0,0.0,0.0,0.0,0.0,0.0
2025/04/09 10:58:30.704899295,1744189110,704015255,mA1/imu,0.7082916009488337,0.7059198573473546,1.7327196761462733e-05,0.00040339533541282563,0.0,0.0,0.0,0.0,0.0,0.0,0.0,0.0,0.0,-0.001642130885638688,-0.0013304358501097884,0.0003158373958763274,0.0,0.0,0.0,0.0,0.0,0.0,0.0,0.0,0.0,0.01135059761065461,-0.0014761668861961565,9.810192059146706,0.0,0.0,0.0,0.0,0.0,0.0,0.0,0.0,0.0
2025/04/09 10:58:30.754860812,1744189110,753880732,mA1/imu,0.7082970381349091,0.7059143737364775,9.561695362782056e-06,0.0004501445613876647,0.0,0.0,0.0,0.0,0.0,0.0,0.0,0.0,0.0,-0.001505562455132964,-0.0016724835450868385,0.0003041165007019039,0.0,0.0,0.0,0.0,0.0,0.0,0.0,0.0,0.0,0.01110525552699615,-0.05797997402500242,9.810885841616626,0.0,0.0,0.0,0.0,0.0,0.0,0.0,0.0,0.0
2025/04/09 10:58:30.806749740,1744189110,804616153,mA1/imu,0.7083022833363397,0.7059090834857125,-1.3800994871643817e-05,0.0004910014478590999,0.0,0.0,0.0,0.0,0.0,0.0,0.0,0.0,0.0,-0.0007744710267829835,-0.0018868017362024402,0.0002933614832348704,0.0,0.0,0.0,0.0,0.0,0.0,0.0,0.0,0.0,0.00968848107207542,0.06719582825086251,9.809739914908791,0.0,0.0,0.0,0.0,0.0,0.0,0.0,0.0,0.0
2025/04/09 10:58:30.856059185,1744189110,855039486,mA1/imu,0.7083073320253498,0.7059039785110558,-3.106449308442732e-05,0.000543650982873475,0.0,0.0,0.0,0.0,0.0,0.0,0.0,0.0,0.0,-0.0009233821651983004,-0.0020109684063091965,0.00028278267852672437,0.0,0.0,0.0,0.0,0.0,0.0,0.0,0.0,0.0,0.009792509498960171,0.6853231653167496,9.811447554040022,0.0,0.0,0.0,0.0,0.0,0.0,0.0,0.0,0.0
2025/04/09 10:58:30.906707325,1744189110,905968952,mA1/imu,0.7083122131496358,0.705899034574173,-4.6041475900294245e-05,0.0005996419748360809,0.0,0.0,0.0,0.0,0.0,0.0,0.0,0.0,0.0,-0.0008917242802745358,-0.0019903843148200554,0.00027426336582001394,0.0,0.0,0.0,0.0,0.0,0.0,0.0,0.0,0.0,0.008924497210828643,-0.24381833652869206,9.810567424595245,0.0,0.0,0.0,0.0,0.0,0.0,0.0,0.0,0.0
2025/04/09 10:58:30.947633575,1744189110,946615948,mA1/imu,0.7083169577745706,0.7058942280422436,-6.369448451974571e-05,0.0006496834883592782,0.0,0.0,0.0,0.0,0.0,0.0,0.0,0.0,0.0,-0.0009184392129393747,-0.0018543655695865548,0.0002669980975019626,0.0,0.0,0.0,0.0,0.0,0.0,0.0,0.0,0.0,0.009074804699163233,0.0476917815725174,9.811166849621408,0.0,0.0,0.0,0.0,0.0,0.0,0.0,0.0,0.0
2025/04/09 10:58:31.287438,1744189110,998059380,mA1/imu,0.7083215912868824,0.7058895334337013,-7.838610842957771e-05,0.0006955294302133995,0.0,0.0,0.0,0.0,0.0,0.0,0.0,0.0,0.0,-0.0012389243083667538,-0.001603541648572579,0.00026127051309916474,0.0,0.0,0.0,0.0,0.0,0.0,0.0,0.0,0.0,0.008134992290245023,0.02040281184108218,9.810679612204932,0.0,0.0,0.0,0.0,0.0,0.0,0.0,0.0,0.0
2025/04/09 10:58:31.48703737,1744189111,47366928,mA1/imu,0.7083261259691435,0.705884938610856,-8.50689227312376e-05,0.0007385629096448984,0.0,0.0,0.0,0.0,0.0,0.0,0.0,0.0,0.0,-0.0007957397630509792,-0.0012697932443144517,0.000256452105482862,0.0,0.0,0.0,0.0,0.0,0.0,0.0,0.0,0.0,0.007840332548931692,-0.5844782190261119,9.81024525537112,0.0,0.0,0.0,0.0,0.0,0.0,0.0,0.0,0.0
2025/04/09 10:58:31.99254959,1744189111,98361927,mA1/imu,0.7083306014554424,0.7058804142011046,-9.046050170182104e-05,0.0007692242495655648,0.0,0.0,0.0,0.0,0.0,0.0,0.0,0.0,0.0,-0.0019145357453447817,-0.0008494231702070633,0.00025371606667890927,0.0,0.0,0.0,0.0,0.0,0.0,0.0,0.0,0.0,0.008368210149823087,-0.045921332712616385,9.810168774686574,0.0,0.0,0.0,0.0,0.0,0.0,0.0,0.0,0.0
2025/04/09 10:58:31.151012745,1744189111,148683226,mA1/imu,0.7083350595442212,0.705875924117777,-9.693397792422261e-05,0.0007834380403287674,0.0,0.0,0.0,0.0,0.0,0.0,0.0,0.0,0.0,-0.0011353377423163535,-0.0003846818344845159,0.0002519871193579482,0.0,0.0,0.0,0.0,0.0,0.0,0.0,0.0,0.0,0.006932640335711451,2.3447554459097783e-05,9.810301813563429,0.0,0.0,0.0,0.0,0.0,0.0,0.0,0.0,0.0
2025/04/09 10:58:31.202695362,1744189111,199740087,mA1/imu,0.7083394927621799,0.7058714696408562,-9.521083783105272e-05,0.0007888443267792459,0.0,0.0,0.0,0.0,0.0,0.0,0.0,0.0,0.0,0.000526813861955768,8.72250156316239e-05,0.0002510272999069041,0.0,0.0,0.0,0.0,0.0,0.0,0.0,0.0,0.0,0.007434503763149528,-0.5295721590668547,9.80888586865913,0.0,0.0,0.0,0.0,0.0,0.0,0.0,0.0,0.0
2025/04/09 10:58:31.252208368,1744189111,249521586,mA1/imu,0.7083439091586274,0.7058670447640111,-8.736713527377691e-05,0.0007834800439637751,0.0,0.0,0.0,0.0,0.0,0.0,0.0,0.0,0.0,2.1453290266841765e-05,0.0005648391984564783,0.00024966589754058823,0.0,0.0,0.0,0.0,0.0,0.0,0.0,0.0,0.0,0.007610162037423547,0.20064609688661939,9.810502802685791,0.0,0.0,0.0,0.0,0.0,0.0,0.0,0.0,0.0
2025/04/09 10:58:31.301326933,1744189111,300541899,mA1/imu,0.7083483012934383,0.705862651476925,-6.905368392996737e-05,0.000772357594648874,0.0,0.0,0.0,0.0,0.0,0.0,0.0,0.0,0.0,-0.0014980642474490763,0.0010047243825184703,0.0002483435977277184,0.0,0.0,0.0,0.0,0.0,0.0,0.0,0.0,0.0,0.00836448359571983,0.564444518682068,9.810682797678233,0.0,0.0,0.0,0.0,0.0,0.0,0.0,0.0,0.0
2025/04/09 10:58:31.354466399,1744189111,351471906,mA1/imu,0.7083526785084204,0.7058582891971606,-5.303323271564896e-05,0.0007453918970058058,0.0,0.0,0.0,0.0,0.0,0.0,0.0,0.0,0.0,0.0008221133338924728,0.0013577864103071183,0.00024691789961970987,0.0,0.0,0.0,0.0,0.0,0.0,0.0,0.0,0.0,0.007646845580905611,0.00991336098749322,9.810330856820263,0.0,0.0,0.0,0.0,0.0,0.0,0.0,0.0,0.0
2025/04/09 10:58:31.403422553,1744189111,402417797,mA1/imu,0.7083570255494425,0.7058539588857619,-2.7901474436413973e-05,0.0007157524371231153,0.0,0.0,0.0,0.0,0.0,0.0,0.0,0.0,0.0,0.0008417359854993326,0.001650791833454886,0.0002451410361685146,0.0,0.0,0.0,0.0,0.0,0.0,0.0,0.0,0.0,0.008851922491990346,-0.5104220586103405,9.809926353763332,0.0,0.0,0.0,0.0,0.0,0.0,0.0,0.0,0.0
2025/04/09 10:58:31.455851704,1744189111,452244644,mA1/imu,0.7083613316906325,0.7058496779628806,-5.96859190976081e-06,0.0006751663108763122,0.0,0.0,0.0,0.0,0.0,0.0,0.0,0.0,0.0,0.0011061303089974419,0.0018274879775472001,0.00024270845249091812,0.0,0.0,0.0,0.0,0.0,0.0,0.0,0.0,0.0,0.009305311110542884,0.08538730375959071,9.809323443690127,0.0,0.0,0.0,0.0,0.0,0.0,0.0,0.0,0.0
2025/04/09 10:58:31.506533635,1744189111,504590958,mA1/imu,0.7083655813862865,0.7058454506976658,1.9552824330116203e-05,0.0006343929102291918,0.0,0.0,0.0,0.0,0.0,0.0,0.0,0.0,0.0,0.0022790066223540824,0.0018815616282906792,0.00023900023562262087,0.0,0.0,0.0,0.0,0.0,0.0,0.0,0.0,0.0,0.008759120947623636,-0.34920055536804623,9.80869657375684,0.0,0.0,0.0,0.0,0.0,0.0,0.0,0.0,0.0
2025/04/09 10:58:31.556374255,1744189111,554361367,mA1/imu,0.7083697643079239,0.705841287869596,4.437924916952029e-05,0.0005927760191648332,0.0,0.0,0.0,0.0,0.0,0.0,0.0,0.0,0.0,0.0012142456421481713,0.0018464607327932487,0.0002347906428122511,0.0,0.0,0.0,0.0,0.0,0.0,0.0,0.0,0.0,0.010142546483357657,0.08513233474229179,9.81074636741459,0.0,0.0,0.0,0.0,0.0,0.0,0.0,0.0,0.0
2025/04/09 10:58:31.609311899,1744189111,605298175,mA1/imu,0.7083738609060839,0.7058372047482385,6.987884021465246e-05,0.0005556034099623507,0.0,0.0,0.0,0.0,0.0,0.0,0.0,0.0,0.0,-0.0003201553162280628,0.0017040054924821546,0.00023006646863362598,0.0,0.0,0.0,0.0,0.0,0.0,0.0,0.0,0.0,0.010292245349224051,0.6089182431529212,9.809779715160055,0.0,0.0,0.0,0.0,0.0,0.0,0.0,0.0,0.0
2025/04/09 10:58:31.657368791,1744189111,655297382,mA1/imu,0.7083778547160597,0.7058332198081313,9.149045051587651e-05,0.0005219124990816688,0.0,0.0,0.0,0.0,0.0,0.0,0.0,0.0,0.0,-0.00027136879295523643,0.001460739187928384,0.0002231428372410065,0.0,0.0,0.0,0.0,0.0,0.0,0.0,0.0,0.0,0.010185133898340084,-0.014860029654346485,9.808816195101098,0.0,0.0,0.0,0.0,0.0,0.0,0.0,0.0,0.0
2025/04/09 10:58:31.707523177,1744189111,706224462,mA1/imu,0.708381702078887,0.7058293833439271,9.960734013976391e-05,0.0004856403281778591,0.0,0.0,0.0,0.0,0.0,0.0,0.0,0.0,0.0,0.0016797017760397685,0.0011150369190404458,0.00021409371180668057,0.0,0.0,0.0,0.0,0.0,0.0,0.0,0.0,0.0,0.010764235889804923,-0.510019227234924,9.809028458381327,0.0,0.0,0.0,0.0,0.0,0.0,0.0,0.0,0.0
2025/04/09 10:58:31.754622225,1744189111,747981230,mA1/imu,0.7083854024362549,0.7058256825630175,0.00010923041598312683,0.0004642395842567031,0.0,0.0,0.0,0.0,0.0,0.0,0.0,0.0,0.0,0.0005532902174669033,0.0007160652936907001,0.00020732865732260951,0.0,0.0,0.0,0.0,0.0,0.0,0.0,0.0,0.0,0.010669235567259603,0.030653425545847122,9.80980922460809,0.0,0.0,0.0,0.0,0.0,0.0,0.0,0.0,0.0
2025/04/09 10:58:31.800292795,1744189111,799084774,mA1/imu,0.7083890077007094,0.7058220712413725,0.00011377965022110355,0.000452295848259872,0.0,0.0,0.0,0.0,0.0,0.0,0.0,0.0,0.0,-0.0003456930495892235,0.00029097778962154533,0.0002022564994552978,0.0,0.0,0.0,0.0,0.0,0.0,0.0,0.0,0.0,0.011160210409085396,-0.0116228228332477,9.810325540548265,0.0,0.0,0.0,0.0,0.0,0.0,0.0,0.0,0.0
2025/04/09 10:58:31.850331137,1744189111,848862852,mA1/imu,0.708392528092668,0.705818544150806,0.00010687387617713823,0.0004443571645872142,0.0,0.0,0.0,0.0,0.0,0.0,0.0,0.0,0.0,0.0010266355802954386,-0.00015344037958620345,0.00019715040673080696,0.0,0.0,0.0,0.0,0.0,0.0,0.0,0.0,0.0,0.010725139646248737,-0.5390156684225963,9.809681435811827,0.0,0.0,0.0,0.0,0.0,0.0,0.0,0.0,0.0
2025/04/09 10:58:31.904407093,1744189111,899866418,mA1/imu,0.7083959601953219,0.7058150992788664,9.564955574010127e-05,0.00044728075578548713,0.0,0.0,0.0,0.0,0.0,0.0,0.0,0.0,0.0,0.0007628191881732361,-0.0005683021278487869,0.00019235270633914661,0.0,0.0,0.0,0.0,0.0,0.0,0.0,0.0,0.0,0.009915453015620268,0.08161687525525421,9.809003409631687,0.0,0.0,0.0,0.0,0.0,0.0,0.0,0.0,0.0
2025/04/09 10:58:31.951386910,1744189111,949713549,mA1/imu,0.7083993037650561,0.705811734231522,8.396837346214266e-05,0.00046389178418242686,0.0,0.0,0.0,0.0,0.0,0.0,0.0,0.0,0.0,-0.0009862178033206877,-0.000939993704372347,0.00018768475194825852,0.0,0.0,0.0,0.0,0.0,0.0,0.0,0.0,0.0,0.01006929222269012,0.5987536328120172,9.809885158121542,0.0,0.0,0.0,0.0,0.0,0.0,0.0,0.0,0.0
2025/04/09 10:58:32.2366069,1744189112,888202,mA1/imu,0.7084025626042459,0.7058084468542134,7.01231166633527e-05,0.000490640121627201,0.0,0.0,0.0,0.0,0.0,0.0,0.0,0.0,0.0,-0.002082690864389482,-0.001264876021329129,0.00018315595546349161,0.0,0.0,0.0,0.0,0.0,0.0,0.0,0.0,0.0,0.010311369746126035,0.5306932837417575,9.810861823142764,0.0,0.0,0.0,0.0,0.0,0.0,0.0,0.0,0.0
2025/04/09 10:58:32.53054712,1744189112,50770112,mA1/imu,0.7084057591335488,0.7058052226193563,4.5241701666037375e-05,0.0005158515773711293,0.0,0.0,0.0,0.0,0.0,0.0,0.0,0.0,0.0,-0.0008028671424606149,-0.0014916541598827071,0.0001797785158173869,0.0,0.0,0.0,0.0,0.0,0.0,0.0,0.0,0.0,0.00884791318110415,0.0027618564018233645,9.80828585997263,0.0,0.0,0.0,0.0,0.0,0.0,0.0,0.0,0.0
2025/04/09 10:58:32.103089035,1744189112,101780775,mA1/imu,0.708408890041198,0.7058020573219251,2.066758044842477e-05,0.0005476893162370486,0.0,0.0,0.0,0.0,0.0,0.0,0.0,0.0,0.0,-0.0005529194627662926,-0.0016370867903634392,0.00017627414306282995,0.0,0.0,0.0,0.0,0.0,0.0,0.0,0.0,0.0,0.008435158178826665,0.6538414977915827,9.809990602457184,0.0,0.0,0.0,0.0,0.0,0.0,0.0,0.0,0.0
2025/04/09 10:58:32.153644933,1744189112,151588319,mA1/imu,0.7084119729637042,0.7057989323012411,2.006069540950073e-07,0.0005862798478053676,0.0,0.0,0.0,0.0,0.0,0.0,0.0,0.0,0.0,-9.622956946904171e-05,-0.0016792000101125218,0.0001746610547247729,0.0,0.0,0.0,0.0,0.0,0.0,0.0,0.0,0.0,0.008358835929653056,0.06163739248247767,9.810702174388195,0.0,0.0,0.0,0.0,0.0,0.0,0.0,0.0,0.0
2025/04/09 10:58:32.204729235,1744189112,202547387,mA1/imu,0.7084150274503249,0.7057958321274013,-1.861950098849764e-05,0.0006260091524797127,0.0,0.0,0.0,0.0,0.0,0.0,0.0,0.0,0.0,0.0014946529865735533,-0.0016304149553489499,0.00017319233564795482,0.0,0.0,0.0,0.0,0.0,0.0,0.0,0.0,0.0,0.007257902826024858,-0.4529648787829646,9.810332585614384,0.0,0.0,0.0,0.0,0.0,0.0,0.0,0.0,0.0
2025/04/09 10:58:32.253285387,1744189112,252475279,mA1/imu,0.7084180509273222,0.7057927513802887,-2.295273419958315e-05,0.0006757903135158794,0.0,0.0,0.0,0.0,0.0,0.0,0.0,0.0,0.0,-0.0014629446516949576,-0.001476254860044427,0.00017258606380646222,0.0,0.0,0.0,0.0,0.0,0.0,0.0,0.0,0.0,0.008414886084846293,-0.6537672796220714,9.81053975906751,0.0,0.0,0.0,0.0,0.0,0.0,0.0,0.0,0.0
2025/04/09 10:58:32.306785653,1744189112,303433234,mA1/imu,0.7084210783254982,0.7057896807930512,-3.839286763612879e-05,0.0007076695336187969,0.0,0.0,0.0,0.0,0.0,0.0,0.0,0.0,0.0,-0.0015901170472188083,-0.0012277455038218659,0.00017178416697830363,0.0,0.0,0.0,0.0,0.0,0.0,0.0,0.0,0.0,0.008160027505022746,-0.10428759353267504,9.810739192777888,0.0,0.0,0.0,0.0,0.0,0.0,0.0,0.0,0.0
2025/04/09 10:58:32.355132034,1744189112,353292194,mA1/imu,0.7084240782332307,0.7057866455450059,-5.303618994416425e-05,0.0007304360944742937,0.0,0.0,0.0,0.0,0.0,0.0,0.0,0.0,0.0,-0.0005017815120201167,-0.0009273877124383986,0.00016804304648646896,0.0,0.0,0.0,0.0,0.0,0.0,0.0,0.0,0.0,0.007715208537351942,0.08849663926833626,9.808563351949525,0.0,0.0,0.0,0.0,0.0,0.0,0.0,0.0,0.0
2025/04/09 10:58:32.406244747,1744189112,404315436,mA1/imu,0.7084269673187099,0.705783719163033,-5.384520597616983e-05,0.00075554000973732,0.0,0.0,0.0,0.0,0.0,0.0,0.0,0.0,0.0,-0.0005874817942985936,-0.0005903664206930119,0.00016194540735292093,0.0,0.0,0.0,0.0,0.0,0.0,0.0,0.0,0.0,0.007201663492818514,0.6640966883186543,9.810788558469751,0.0,0.0,0.0,0.0,0.0,0.0,0.0,0.0,0.0
2025/04/09 10:58:32.455359479,1744189112,454150650,mA1/imu,0.7084297333164724,0.7057809196520456,-4.484415947632206e-05,0.000777429910465972,0.0,0.0,0.0,0.0,0.0,0.0,0.0,0.0,0.0,-0.000335492797658727,-0.00021459726808643542,0.00015564439684772545,0.0,0.0,0.0,0.0,0.0,0.0,0.0,0.0,0.0,0.0073856132157388635,-0.04953962207887176,9.810968681608157,0.0,0.0,0.0,0.0,0.0,0.0,0.0,0.0,0.0
2025/04/09 10:58:32.506483865,1744189112,505206998,mA1/imu,0.7084324047012904,0.7057782246357797,-3.117646797613815e-05,0.0007903335634980339,0.0,0.0,0.0,0.0,0.0,0.0,0.0,0.0,0.0,0.000187998947787706,0.00017187221915523072,0.0001499427036181966,0.0,0.0,0.0,0.0,0.0,0.0,0.0,0.0,0.0,0.007685783782911476,-0.5504494566987692,9.809476168010127,0.0,0.0,0.0,0.0,0.0,0.0,0.0,0.0,0.0
2025/04/09 10:58:32.557025755,1744189112,555593344,mA1/imu,0.7084349659127513,0.705775648151454,-1.1558908281937943e-05,0.0007958737246406837,0.0,0.0,0.0,0.0,0.0,0.0,0.0,0.0,0.0,-7.384433505147777e-05,0.0005311111112818758,0.0001434286428010455,0.0,0.0,0.0,0.0,0.0,0.0,0.0,0.0,0.0,0.008264282145119057,-0.5741074082546958,9.809741906318905,0.0,0.0,0.0,0.0,0.0,0.0,0.0,0.0,0.0
2025/04/09 10:58:32.607064264,1744189112,606029430,mA1/imu,0.7084374149152658,0.7057731941736172,1.1204400500248752e-05,0.0007920912866333682,0.0,0.0,0.0,0.0,0.0,0.0,0.0,0.0,0.0,-0.002358633001376427,0.000881534132647197,0.00013640845683758528,0.0,0.0,0.0,0.0,0.0,0.0,0.0,0.0,0.0,0.009385045911410164,0.11630412114734132,9.811489987260307,0.0,0.0,0.0,0.0,0.0,0.0,0.0,0.0,0.0
2025/04/09 10:58:32.646949143,1744189112,645876426,mA1/imu,0.7084397567530797,0.7057708627088749,2.9948402596778308e-05,0.0007742776639526951,0.0,0.0,0.0,0.0,0.0,0.0,0.0,0.0,0.0,4.681621762329597e-05,0.0011485616123037099,0.00013106908621541799,0.0,0.0,0.0,0.0,0.0,0.0,0.0,0.0,0.0,0.007710430116560243,0.04758332883717182,9.812051270383336,0.0,0.0,0.0,0.0,0.0,0.0,0.0,0.0,0.0
2025/04/09 10:58:32.698714894,1744189112,696929495,mA1/imu,0.7084420211352219,0.7057686095991803,5.5811123102321805e-05,0.0007545060636990936,0.0,0.0,0.0,0.0,0.0,0.0,0.0,0.0,0.0,-0.0007344062889560914,0.0013744954446117902,0.00012678906017945689,0.0,0.0,0.0,0.0,0.0,0.0,0.0,0.0,0.0,0.00857277079481146,0.2661720906124104,9.811523426509966,0.0,0.0,0.0,0.0,0.0,0.0,0.0,0.0,0.0
2025/04/09 10:58:32.747493681,1744189112,746909008,mA1/imu,0.7084442091237358,0.7057664399606669,7.995668402479373e-05,0.0007269052341091154,0.0,0.0,0.0,0.0,0.0,0.0,0.0,0.0,0.0,-0.00021227211045937177,0.001523044148975738,0.0001221645311840452,0.0,0.0,0.0,0.0,0.0,0.0,0.0,0.0,0.0,0.00822777942995995,0.41411198203252586,9.809296520220059,0.0,0.0,0.0,0.0,0.0,0.0,0.0,0.0,0.0
2025/04/09 10:58:32.798977627,1744189112,797994202,mA1/imu,0.7084463160572354,0.7057643495146093,0.00010712856909025556,0.0006991012956614174,0.0,0.0,0.0,0.0,0.0,0.0,0.0,0.0,0.0,-0.00014997474655601954,0.0015757343037408305,0.00011810692444060104,0.0,0.0,0.0,0.0,0.0,0.0,0.0,0.0,0.0,0.008751458953784945,0.6349235476255035,9.81004777319343,0.0,0.0,0.0,0.0,0.0,0.0,0.0,0.0,0.0
2025/04/09 10:58:32.850258631,1744189112,848638397,mA1/imu,0.7084483565489732,0.7057623239283493,0.0001343754159959134,0.0006709467656581204,0.0,0.0,0.0,0.0,0.0,0.0,0.0,0.0,0.0,0.00044328522251275233,0.0015430242372119298,0.00011490003539539611,0.0,0.0,0.0,0.0,0.0,0.0,0.0,0.0,0.0,0.009020172128664235,0.036990252899799146,9.810577089852178,0.0,0.0,0.0,0.0,0.0,0.0,0.0,0.0,0.0
2025/04/09 10:58:32.904488579,1744189112,902417867,mA1/imu,0.7084503491621447,0.7057603433595736,0.00015962705199702888,0.0006442299406033192,0.0,0.0,0.0,0.0,0.0,0.0,0.0,0.0,0.0,8.745613017751525e-05,0.0014040668728716318,0.00011212847387464083,0.0,0.0,0.0,0.0,0.0,0.0,0.0,0.0,0.0,0.009890586659832324,-0.11335601710453275,9.80969339893108,0.0,0.0,0.0,0.0,0.0,0.0,0.0,0.0,0.0
2025/04/09 10:58:32.953232927,1744189112,952323077,mA1/imu,0.7084522977643367,0.7057584117754296,0.00017393075095601537,0.0006129834814202342,0.0,0.0,0.0,0.0,0.0,0.0,0.0,0.0,0.0,0.0006492271914903117,0.0011929207524471396,0.00010877651220913694,0.0,0.0,0.0,0.0,0.0,0.0,0.0,0.0,0.0,0.009602171681824147,-0.5914754175408126,9.809665092611779,0.0,0.0,0.0,0.0,0.0,0.0,0.0,0.0,0.0
2025/04/09 10:58:33.4588842,1744189113,3271886,mA1/imu,0.7084541946467642,0.7057565339740024,0.0001779900899434012,0.0005806547471903378,0.0,0.0,0.0,0.0,0.0,0.0,0.0,0.0,0.0,0.0020668750314238476,0.0009074218366582503,0.00010604542955778666,0.0,0.0,0.0,0.0,0.0,0.0,0.0,0.0,0.0,0.00954571880216038,-0.4981045137490066,9.808721573147649,0.0,0.0,0.0,0.0,0.0,0.0,0.0,0.0,0.0
2025/04/09 10:58:33.55267660,1744189113,53107685,mA1/imu,0.7084560367111151,0.7057546999223548,0.0001829488400907715,0.000560459461519806,0.0,0.0,0.0,0.0,0.0,0.0,0.0,0.0,0.0,0.00031843274991894547,0.0005733412206112925,0.00010299049631823505,0.0,0.0,0.0,0.0,0.0,0.0,0.0,0.0,0.0,0.01047712162401657,0.6345778917005944,9.810958206920217,0.0,0.0,0.0,0.0,0.0,0.0,0.0,0.0,0.0
2025/04/09 10:58:33.105451479,1744189113,104111546,mA1/imu,0.7084578171864533,0.7057529196880828,0.0001855829868438797,0.0005506161161249515,0.0,0.0,0.0,0.0,0.0,0.0,0.0,0.0,0.0,-0.000766992486424601,0.00020399214151049344,9.926305391355586e-05,0.0,0.0,0.0,0.0,0.0,0.0,0.0,0.0,0.0,0.010465995765566113,0.39355140159699376,9.810268237051476,0.0,0.0,0.0,0.0,0.0,0.0,0.0,0.0,0.0
2025/04/09 10:58:33.146745360,1744189113,145969059,mA1/imu,0.7084595292899614,0.7057512077643135,0.0001785240038768905,0.0005442670659669897,0.0,0.0,0.0,0.0,0.0,0.0,0.0,0.0,0.0,0.0004190552557556511,-0.00017333401613217964,9.500096361916103e-05,0.0,0.0,0.0,0.0,0.0,0.0,0.0,0.0,0.0,0.009733398347579383,-0.6110529975212974,9.808917564524718,0.0,0.0,0.0,0.0,0.0,0.0,0.0,0.0,0.0
2025/04/09 10:58:33.199831379,1744189113,198567694,mA1/imu,0.708461167413352,0.7057495731717444,0.00015847157181019702,0.0005377006341130322,0.0,0.0,0.0,0.0,0.0,0.0,0.0,0.0,0.0,0.00011567457151620494,-0.0005169543835191882,9.017856728039946e-05,0.0,0.0,0.0,0.0,0.0,0.0,0.0,0.0,0.0,0.01001599847873031,-0.0043569898534647905,9.809147947523643,0.0,0.0,0.0,0.0,0.0,0.0,0.0,0.0,0.0
2025/04/09 10:58:33.250420337,1744189113,248378272,mA1/imu,0.7084627103117829,0.7057480277512026,0.0001348987423909799,0.0005396529440582793,0.0,0.0,0.0,0.0,0.0,0.0,0.0,0.0,0.0,0.0010480324001578046,-0.0008609525408625799,8.444709632113146e-05,0.0,0.0,0.0,0.0,0.0,0.0,0.0,0.0,0.0,0.010215348227873766,0.06235999629419863,9.810285143658271,0.0,0.0,0.0,0.0,0.0,0.0,0.0,0.0,0.0
2025/04/09 10:58:33.302117785,1744189113,299418425,mA1/imu,0.7084641429533749,0.7057465773129108,0.00011838298614014485,0.0005592369088953219,0.0,0.0,0.0,0.0,0.0,0.0,0.0,0.0,0.0,-1.3453205243523387e-05,-0.001130258386656547,7.872113033945611e-05,0.0,0.0,0.0,0.0,0.0,0.0,0.0,0.0,0.0,0.009393442650318494,-0.0032863361241912067,9.809741866732312,0.0,0.0,0.0,0.0,0.0,0.0,0.0,0.0,0.0
2025/04/09 10:58:33.350746108,1744189113,349216561,mA1/imu,0.7084654966833721,0.7057452115537785,8.836573484328878e-05,0.0005732099026074149,0.0,0.0,0.0,0.0,0.0,0.0,0.0,0.0,0.0,0.00029605097829272793,-0.001314251455266579,7.484172883998398e-05,0.0,0.0,0.0,0.0,0.0,0.0,0.0,0.0,0.0,0.008621362197124829,-0.6031379102190092,9.809379520437025,0.0,0.0,0.0,0.0,0.0,0.0,0.0,0.0,0.0
2025/04/09 10:58:33.402173269,1744189113,400111902,mA1/imu,0.7084668041286385,0.7057438880467732,5.6532161551474e-05,0.0005905391532279884,0.0,0.0,0.0,0.0,0.0,0.0,0.0,0.0,0.0,0.0016368398243269192,-0.0014329697977759617,7.295286540234613e-05,0.0,0.0,0.0,0.0,0.0,0.0,0.0,0.0,0.0,0.00799445678293266,-0.5047966583123468,9.80882988389853,0.0,0.0,0.0,0.0,0.0,0.0,0.0,0.0,0.0
2025/04/09 10:58:33.454657558,1744189113,452774885,mA1/imu,0.7084680810181261,0.7057425858612109,3.062369231377615e-05,0.0006162325980859651,0.0,0.0,0.0,0.0,0.0,0.0,0.0,0.0,0.0,0.00010297981996106846,-0.0014658545231546348,7.193665880130496e-05,0.0,0.0,0.0,0.0,0.0,0.0,0.0,0.0,0.0,0.008654666492743896,0.5173045421895226,9.811154602967909,0.0,0.0,0.0,0.0,0.0,0.0,0.0,0.0,0.0
2025/04/09 10:58:33.506492239,1744189113,504465789,mA1/imu,0.7084693330831058,0.705741300465903,1.2337015924840291e-05,0.000648648805884784,0.0,0.0,0.0,0.0,0.0,0.0,0.0,0.0,0.0,-0.0018422036298421727,-0.0014004947728395722,7.114931409319106e-05,0.0,0.0,0.0,0.0,0.0,0.0,0.0,0.0,0.0,0.008260927135661667,0.5280744745988312,9.810810259461217,0.0,0.0,0.0,0.0,0.0,0.0,0.0,0.0,0.0
2025/04/09 10:58:33.557361680,1744189113,554350599,mA1/imu,0.7084705927380889,0.7057400125962998,-9.63227658603617e-06,0.000673612006425892,0.0,0.0,0.0,0.0,0.0,0.0,0.0,0.0,0.0,0.00018955411353725326,-0.0012673845609039941,7.134059742119044e-05,0.0,0.0,0.0,0.0,0.0,0.0,0.0,0.0,0.0,0.00723291222371707,-0.5799596916552845,9.809343351357448,0.0,0.0,0.0,0.0,0.0,0.0,0.0,0.0,0.0
2025/04/09 10:58:33.606150299,1744189113,605278015,mA1/imu,0.7084718605236637,0.7057387197968578,-2.9697631291990604e-05,0.0006937893638851729,0.0,0.0,0.0,0.0,0.0,0.0,0.0,0.0,0.0,-6.561148942129969e-05,-0.0010403225062431013,7.219058747547064e-05,0.0,0.0,0.0,0.0,0.0,0.0,0.0,0.0,0.0,0.006818949219560551,0.3400754871540071,9.811016761659566,0.0,0.0,0.0,0.0,0.0,0.0,0.0,0.0,0.0
2025/04/09 10:58:33.656473456,1744189113,655341099,mA1/imu,0.708473127188533,0.7057374233922817,-3.6503464976916304e-05,0.0007182915987446907,0.0,0.0,0.0,0.0,0.0,0.0,0.0,0.0,0.0,2.2217834417203712e-05,-0.000770339028443481,7.246296173788262e-05,0.0,0.0,0.0,0.0,0.0,0.0,0.0,0.0,0.0,0.006808927212440844,0.05090386539920776,9.808826255056879,0.0,0.0,0.0,0.0,0.0,0.0,0.0,0.0,0.0
2025/04/09 10:58:33.708625404,1744189113,706287542,mA1/imu,0.7084744149026394,0.7057361132788053,-4.0369145045320216e-05,0.0007349917141932726,0.0,0.0,0.0,0.0,0.0,0.0,0.0,0.0,0.0,0.0007905523636113178,-0.0004541568022956518,7.368094579562602e-05,0.0,0.0,0.0,0.0,0.0,0.0,0.0,0.0,0.0,0.006385107444945295,-0.14195435073192716,9.809209592744557,0.0,0.0,0.0,0.0,0.0,0.0,0.0,0.0,0.0
2025/04/09 10:58:33.748421397,1744189113,746806614,mA1/imu,0.7084756925837208,0.7057348076342375,-2.68793090041016e-05,0.0007573565778063133,0.0,0.0,0.0,0.0,0.0,0.0,0.0,0.0,0.0,-0.00037210587678383766,-0.00012908772319043178,7.269828301520672e-05,0.0,0.0,0.0,0.0,0.0,0.0,0.0,0.0,0.0,0.007270935402021074,-0.5978683101488745,9.811049229182592,0.0,0.0,0.0,0.0,0.0,0.0,0.0,0.0,0.0
2025/04/09 10:58:33.798779763,1744189113,797749709,mA1/imu,0.708476978957865,0.7057335078491402,-1.5714513338973494e-05,0.000765466353478774,0.0,0.0,0.0,0.0,0.0,0.0,0.0,0.0,0.0,-0.0021047000862073084,0.0002322069791566433,7.3701302615046e-05,0.0,0.0,0.0,0.0,0.0,0.0,0.0,0.0,0.0,0.007604831034085643,0.5411028058852603,9.811885911621342,0.0,0.0,0.0,0.0,0.0,0.0,0.0,0.0,0.0
2025/04/09 10:58:33.851670244,1744189113,848489464,mA1/imu,0.7084782770538318,0.7057322063462645,-1.6569050424190455e-06,0.0007641110666465192,0.0,0.0,0.0,0.0,0.0,0.0,0.0,0.0,0.0,-0.0007332462712203654,0.0005854564061673001,7.393924154641201e-05,0.0,0.0,0.0,0.0,0.0,0.0,0.0,0.0,0.0,0.00636651058726915,0.009182388206283207,9.808783009842095,0.0,0.0,0.0,0.0,0.0,0.0,0.0,0.0,0.0
2025/04/09 10:58:33.903072264,1744189113,901995931,mA1/imu,0.7084795702762511,0.7057309113066546,2.192152242450708e-05,0.0007608198895165157,0.0,0.0,0.0,0.0,0.0,0.0,0.0,0.0,0.0,-0.0008089516864401179,0.0008836419465789066,7.396483881554845e-05,0.0,0.0,0.0,0.0,0.0,0.0,0.0,0.0,0.0,0.007207547478730446,0.6285699140599968,9.810340670787516,0.0,0.0,0.0,0.0,0.0,0.0,0.0,0.0,0.0
2025/04/09 10:58:33.954722775,1744189113,952723686,mA1/imu,0.7084808588062663,0.7057296260721858,4.957045290113844e-05,0.0007517525645242232,0.0,0.0,0.0,0.0,0.0,0.0,0.0,0.0,0.0,0.0009625742354988107,0.0011251062868025791,7.362961612106286e-05,0.0,0.0,0.0,0.0,0.0,0.0,0.0,0.0,0.0,0.0073031489559984356,-0.5109494830055915,9.809669119858128,0.0,0.0,0.0,0.0,0.0,0.0,0.0,0.0,0.0
2025/04/09 10:58:34.4525812,1744189114,3694371,mA1/imu,0.7084821330953468,0.7057283554962533,8.273535508230147e-05,0.0007405998124406543,0.0,0.0,0.0,0.0,0.0,0.0,0.0,0.0,0.0,-0.0011154575195313596,0.0013210765355915054,7.245193679241145e-05,0.0,0.0,0.0,0.0,0.0,0.0,0.0,0.0,0.0,0.008125179057515596,0.5978127342901929,9.810750998367038,0.0,0.0,0.0,0.0,0.0,0.0,0.0,0.0,0.0
2025/04/09 10:58:34.54581651,1744189114,53566879,mA1/imu,0.7084833940696373,0.70572710821348,0.00011018589211124192,0.0007189709838370485,0.0,0.0,0.0,0.0,0.0,0.0,0.0,0.0,0.0,0.0009219469172509474,0.0014109121568102892,7.118682682795593e-05,0.0,0.0,0.0,0.0,0.0,0.0,0.0,0.0,0.0,0.008203577356731037,-0.46144629339833354,9.810030443448172,0.0,0.0,0.0,0.0,0.0,0.0,0.0,0.0,0.0
2025/04/09 10:58:34.106428346,1744189114,104502098,mA1/imu,0.7084846109055235,0.7057258948725409,0.0001460022778245155,0.000704343478059847,0.0,0.0,0.0,0.0,0.0,0.0,0.0,0.0,0.0,-0.0010369398924832077,0.0014115230820883461,6.890394558390581e-05,0.0,0.0,0.0,0.0,0.0,0.0,0.0,0.0,0.0,0.009071424719694424,0.3179660899713981,9.810035452162712,0.0,0.0,0.0,0.0,0.0,0.0,0.0,0.0,0.0
2025/04/09 10:58:34.147110141,1744189114,145958864,mA1/imu,0.708485799230119,0.7057247196209258,0.00017108274642764623,0.0006805409019308592,0.0,0.0,0.0,0.0,0.0,0.0,0.0,0.0,0.0,0.000604633069496147,0.0013569821473708144,6.678047772063678e-05,0.0,0.0,0.0,0.0,0.0,0.0,0.0,0.0,0.0,0.008076420242950643,-0.5400811143572813,9.808850201881976,0.0,0.0,0.0,0.0,0.0,0.0,0.0,0.0,0.0
2025/04/09 10:58:34.198679726,1744189114,197631310,mA1/imu,0.7084869407773599,0.7057235834002833,0.00019858006465878236,0.0006626813404380856,0.0,0.0,0.0,0.0,0.0,0.0,0.0,0.0,0.0,-0.000885776513472051,0.0012225099579074637,6.434578811453194e-05,0.0,0.0,0.0,0.0,0.0,0.0,0.0,0.0,0.0,0.009557127348747613,0.500692866623376,9.810638166738764,0.0,0.0,0.0,0.0,0.0,0.0,0.0,0.0,0.0
2025/04/09 10:58:34.251588150,1744189114,247466936,mA1/imu,0.7084882721881852,0.7057222654347549,0.0002125217863348995,0.0006380250212451324,0.0,0.0,0.0,0.0,0.0,0.0,0.0,0.0,0.0,0.0009687099970232159,0.000979722124974789,0.0001067278229035998,0.0,0.0,0.0,0.0,0.0,0.0,0.0,0.0,0.0,0.010752440714298057,-0.31583968408195257,9.810242677904759,0.0,0.0,0.0,0.0,0.0,0.0,0.0,0.0,0.0
2025/04/09 10:58:34.299365862,1744189114,298426437,mA1/imu,0.7084911633803149,0.7057193726668507,0.0002244536231575031,0.0006229568892732686,0.0,0.0,0.0,0.0,0.0,0.0,0.0,0.0,0.0,-0.00048018138738291973,0.0006033103755342427,0.00017703976974132478,0.0,0.0,0.0,0.0,0.0,0.0,0.0,0.0,0.0,0.012550441977277595,0.5284175995043118,9.809691316770358,0.0,0.0,0.0,0.0,0.0,0.0,0.0,0.0,0.0
2025/04/09 10:58:34.349883795,1744189114,348234411,mA1/imu,0.7084941936492422,0.705716339177167,0.00022618596831887246,0.0006123917013709333,0.0,0.0,0.0,0.0,0.0,0.0,0.0,0.0,0.0,0.0010518437505688198,0.0001910482741689624,0.00013428846962337067,0.0,0.0,0.0,0.0,0.0,0.0,0.0,0.0,0.0,0.009881495455503583,-0.21606381240997688,9.810374927460362,0.0,0.0,0.0,0.0,0.0,0.0,0.0,0.0,0.0
2025/04/09 10:58:34.402811485,1744189114,399242378,mA1/imu,0.7084953910621816,0.7057151410406207,0.00022309657376174004,0.0006089150859344337,0.0,0.0,0.0,0.0,0.0,0.0,0.0,0.0,0.0,0.0007252269648100597,-0.00012307835817840565,5.933881072314581e-05,0.0,0.0,0.0,0.0,0.0,0.0,0.0,0.0,0.0,0.009179170846670266,0.042102774523894604,9.808822282404313,0.0,0.0,0.0,0.0,0.0,0.0,0.0,0.0,0.0
2025/04/09 10:58:34.450855572,1744189114,449064284,mA1/imu,0.7084964202924686,0.7057141108513527,0.00021261540032375378,0.0006090753104827397,0.0,0.0,0.0,0.0,0.0,0.0,0.0,0.0,0.0,-0.0001518221158875056,-0.00042041751344713504,5.7193321440324044e-05,0.0,0.0,0.0,0.0,0.0,0.0,0.0,0.0,0.0,0.009207465732977146,-0.021696837507219655,9.809103876637685,0.0,0.0,0.0,0.0,0.0,0.0,0.0,0.0,0.0
2025/04/09 10:58:34.502116336,1744189114,500029886,mA1/imu,0.7084974100233761,0.7057131155774277,0.00019828189233643195,0.0006157730584163762,0.0,0.0,0.0,0.0,0.0,0.0,0.0,0.0,0.0,-0.0016583121218375235,-0.0007013136220542682,5.496440641839431e-05,0.0,0.0,0.0,0.0,0.0,0.0,0.0,0.0,0.0,0.009877159072136977,0.49691196237962226,9.810344231764322,0.0,0.0,0.0,0.0,0.0,0.0,0.0,0.0,0.0
2025/04/09 10:58:34.552678301,1744189114,549984728,mA1/imu,0.7084983631753438,0.7057121616845554,0.00017222893439420285,0.0006201335058445697,0.0,0.0,0.0,0.0,0.0,0.0,0.0,0.0,0.0,-6.885773719212738e-05,-0.0009485695117094858,5.074987367987543e-05,0.0,0.0,0.0,0.0,0.0,0.0,0.0,0.0,0.0,0.008907707178797391,-0.021696769419644893,9.810228662131607,0.0,0.0,0.0,0.0,0.0,0.0,0.0,0.0,0.0
2025/04/09 10:58:34.602500078,1744189114,601474828,mA1/imu,0.7084992043093292,0.7057113197087554,0.00013929855271615184,0.0006255588601852407,0.0,0.0,0.0,0.0,0.0,0.0,0.0,0.0,0.0,0.001098190765184532,-0.001161473570053013,4.3698078025093704e-05,0.0,0.0,0.0,0.0,0.0,0.0,0.0,0.0,0.0,0.008676106773936468,0.05692314501141957,9.809875667959064,0.0,0.0,0.0,0.0,0.0,0.0,0.0,0.0,0.0
2025/04/09 10:58:34.654862463,1744189114,651535084,mA1/imu,0.7084999292194926,0.705710583854342,0.00011011088496949787,0.0006403183041931501,0.0,0.0,0.0,0.0,0.0,0.0,0.0,0.0,0.0,0.0001454310306989106,-0.0012792049023741246,3.947157985926149e-05,0.0,0.0,0.0,0.0,0.0,0.0,0.0,0.0,0.0,0.00833855321916088,0.49478442809201933,9.810854170187081,0.0,0.0,0.0,0.0,0.0,0.0,0.0,0.0,0.0
2025/04/09 10:58:34.703016896,1744189114,702409713,mA1/imu,0.7085006138375096,0.7057098852136265,8.030108563606499e-05,0.0006570048536582546,0.0,0.0,0.0,0.0,0.0,0.0,0.0,0.0,0.0,0.001584351546989727,-0.0013315032950216414,3.7890504705479644e-05,0.0,0.0,0.0,0.0,0.0,0.0,0.0,0.0,0.0,0.007649607707259633,-0.5345331376082892,9.810243990249552,0.0,0.0,0.0,0.0,0.0,0.0,0.0,0.0,0.0
2025/04/09 10:58:34.754773491,1744189114,752449999,mA1/imu,0.7085012832970669,0.7057091987320496,5.193001875982621e-05,0.0006750515913544698,0.0,0.0,0.0,0.0,0.0,0.0,0.0,0.0,0.0,0.0008976501122620262,-0.0013004800173379634,3.814518024354623e-05,0.0,0.0,0.0,0.0,0.0,0.0,0.0,0.0,0.0,0.008339106964163692,0.04980850057331987,9.808998197723882,0.0,0.0,0.0,0.0,0.0,0.0,0.0,0.0,0.0
2025/04/09 10:58:34.808219695,1744189114,803496966,mA1/imu,0.7085019438240374,0.7057085195726284,2.6281128671117233e-05,0.0006930436291851279,0.0,0.0,0.0,0.0,0.0,0.0,0.0,0.0,0.0,0.0008014855284181891,-0.0011877569972618255,3.61251681378998e-05,0.0,0.0,0.0,0.0,0.0,0.0,0.0,0.0,0.0,0.00692336250391104,0.05205460071551268,9.809719256565508,0.0,0.0,0.0,0.0,0.0,0.0,0.0,0.0,0.0
2025/04/09 10:58:34.854685724,1744189114,853350115,mA1/imu,0.7085025774903805,0.7057078695495075,3.1438923115030006e-06,0.0007074853346063934,0.0,0.0,0.0,0.0,0.0,0.0,0.0,0.0,0.0,0.0008900750683395142,-0.0009865320659650121,3.5227826823544865e-05,0.0,0.0,0.0,0.0,0.0,0.0,0.0,0.0,0.0,0.007342675190855316,-0.33102379439000995,9.81086128355963,0.0,0.0,0.0,0.0,0.0,0.0,0.0,0.0,0.0
2025/04/09 10:58:34.905548884,1744189114,904496637,mA1/imu,0.7085031944425401,0.7057072378269368,-1.4033565237217321e-05,0.0007195460030941599,0.0,0.0,0.0,0.0,0.0,0.0,0.0,0.0,0.0,0.0011013090816641095,-0.0007253313880073185,3.548294106617679e-05,0.0,0.0,0.0,0.0,0.0,0.0,0.0,0.0,0.0,0.00679163579674439,-0.5462653205503468,9.808964609808468,0.0,0.0,0.0,0.0,0.0,0.0,0.0,0.0,0.0
2025/04/09 10:58:34.963815423,1744189114,956768480,mA1/imu,0.7085038377840851,0.7057065828246242,-2.5108015120745995e-05,0.0007281296603144875,0.0,0.0,0.0,0.0,0.0,0.0,0.0,0.0,0.0,-0.00033584303262118055,-0.00043346727199704835,3.6801418234266354e-05,0.0,0.0,0.0,0.0,0.0,0.0,0.0,0.0,0.0,0.007254852289176521,0.6196037055693415,9.8112997467167,0.0,0.0,0.0,0.0,0.0,0.0,0.0,0.0,0.0
2025/04/09 10:58:34.998594373,1744189114,997670894,mA1/imu,0.7085045007563794,0.7057059116158857,-2.868974270215063e-05,0.0007334134193753715,0.0,0.0,0.0,0.0,0.0,0.0,0.0,0.0,0.0,-0.0007226065054911185,-0.00011765903758457801,3.806385459758557e-05,0.0,0.0,0.0,0.0,0.0,0.0,0.0,0.0,0.0,0.006816412590211554,0.5989866363832245,9.811590375015475,0.0,0.0,0.0,0.0,0.0,0.0,0.0,0.0,0.0
2025/04/09 10:58:35.49479198,1744189115,47519781,mA1/imu,0.7085051851760872,0.7057052215546825,-2.3164440910058406e-05,0.0007364186739017584,0.0,0.0,0.0,0.0,0.0,0.0,0.0,0.0,0.0,0.0010391117906737204,0.00018851574377299734,3.971045217412217e-05,0.0,0.0,0.0,0.0,0.0,0.0,0.0,0.0,0.0,0.006745686659534247,-0.5316822912184067,9.809115552181545,0.0,0.0,0.0,0.0,0.0,0.0,0.0,0.0,0.0
2025/04/09 10:58:35.100497977,1744189115,98466724,mA1/imu,0.7085058858834922,0.7057045191043744,-1.0269246610000412e-05,0.0007357164224513464,0.0,0.0,0.0,0.0,0.0,0.0,0.0,0.0,0.0,0.0010201975641239678,0.0004964141036141815,4.076744305897059e-05,0.0,0.0,0.0,0.0,0.0,0.0,0.0,0.0,0.0,0.006867719711045105,-0.528217056669155,9.808495020961198,0.0,0.0,0.0,0.0,0.0,0.0,0.0,0.0,0.0
2025/04/09 10:58:35.150598259,1744189115,148657107,mA1/imu,0.7085066154855733,0.7057037957157978,4.658271844642115e-06,0.0007269826642142415,0.0,0.0,0.0,0.0,0.0,0.0,0.0,0.0,0.0,-3.348023861751616e-05,0.0007722014315874368,4.215546177266542e-05,0.0,0.0,0.0,0.0,0.0,0.0,0.0,0.0,0.0,0.007579841912895518,0.03078891154647074,9.809935635346006,0.0,0.0,0.0,0.0,0.0,0.0,0.0,0.0,0.0
2025/04/09 10:58:35.201518973,1744189115,199672630,mA1/imu,0.7085073674441361,0.7057030490998828,2.8011749726196693e-05,0.0007183201585414991,0.0,0.0,0.0,0.0,0.0,0.0,0.0,0.0,0.0,-0.00030522999405956775,0.0009818661310211938,4.3555778191587076e-05,0.0,0.0,0.0,0.0,0.0,0.0,0.0,0.0,0.0,0.007773604535868799,-0.19356873264908936,9.809564433035444,0.0,0.0,0.0,0.0,0.0,0.0,0.0,0.0,0.0
2025/04/09 10:58:35.250457510,1744189115,249513051,mA1/imu,0.7085081228254599,0.7057023038252154,5.209359961184294e-05,0.0007039548163960464,0.0,0.0,0.0,0.0,0.0,0.0,0.0,0.0,0.0,0.00030434355555872445,0.0011598062103225651,4.2682330948705976e-05,0.0,0.0,0.0,0.0,0.0,0.0,0.0,0.0,0.0,0.006851629653312647,-0.5049674831750092,9.808834370243336,0.0,0.0,0.0,0.0,0.0,0.0,0.0,0.0,0.0
2025/04/09 10:58:35.302005936,1744189115,300993845,mA1/imu,0.7085088532745808,0.7057015793017748,8.370171182751999e-05,0.0006919512575128924,0.0,0.0,0.0,0.0,0.0,0.0,0.0,0.0,0.0,-0.000764454489021942,0.001268266499696743,4.1509554805687217e-05,0.0,0.0,0.0,0.0,0.0,0.0,0.0,0.0,0.0,0.008446366559666876,0.04107516458665374,9.81038226216864,0.0,0.0,0.0,0.0,0.0,0.0,0.0,0.0,0.0
2025/04/09 10:58:35.352119624,1744189115,350856727,mA1/imu,0.7085095684210713,0.7057008743922161,0.0001113348607469912,0.0006744941791597418,0.0,0.0,0.0,0.0,0.0,0.0,0.0,0.0,0.0,0.00025797971029643726,0.0012685523495084856,4.0913126157912926e-05,0.0,0.0,0.0,0.0,0.0,0.0,0.0,0.0,0.0,0.008172957523977089,-0.5295239228821835,9.809114776874795,0.0,0.0,0.0,0.0,0.0,0.0,0.0,0.0,0.0
2025/04/09 10:58:35.403853127,1744189115,401953525,mA1/imu,0.7085102745361543,0.7057001732002445,0.0001411335168828706,0.0006606838719058034,0.0,0.0,0.0,0.0,0.0,0.0,0.0,0.0,0.0,-0.0004077242678337695,0.0011980892834121736,4.045594021164479e-05,0.0,0.0,0.0,0.0,0.0,0.0,0.0,0.0,0.0,0.008465009144772988,0.41533054773418,9.810543306760563,0.0,0.0,0.0,0.0,0.0,0.0,0.0,0.0,0.0
2025/04/09 10:58:35.453846736,1744189115,451784560,mA1/imu,0.7085109605019257,0.7056994923097152,0.0001668774732888412,0.0006461844611019275,0.0,0.0,0.0,0.0,0.0,0.0,0.0,0.0,0.0,0.000495989672287468,0.0010909893321846159,3.86799857769419e-05,0.0,0.0,0.0,0.0,0.0,0.0,0.0,0.0,0.0,0.007919582981067982,-0.5558015682666917,9.80873901315831,0.0,0.0,0.0,0.0,0.0,0.0,0.0,0.0,0.0
2025/04/09 10:58:35.503627111,1744189115,502740545,mA1/imu,0.7085116028264623,0.7056988486976079,0.00019324626582219352,0.000637387659676227,0.0,0.0,0.0,0.0,0.0,0.0,0.0,0.0,0.0,-0.0008610928919029357,0.0009195624650166784,3.59454377915347e-05,0.0,0.0,0.0,0.0,0.0,0.0,0.0,0.0,0.0,0.009282476949383178,0.3566664087081537,9.810145152048495,0.0,0.0,0.0,0.0,0.0,0.0,0.0,0.0,0.0
2025/04/09 10:58:35.553487538,1744189115,552557373,mA1/imu,0.7085122084536515,0.7056982449278355,0.00021066072547362905,0.0006270565850083834,0.0,0.0,0.0,0.0,0.0,0.0,0.0,0.0,0.0,1.3682953252606239e-05,0.0006785176519808252,3.4700897352058426e-05,0.0,0.0,0.0,0.0,0.0,0.0,0.0,0.0,0.0,0.009603686351408727,0.026106109668633894,9.809033826887413,0.0,0.0,0.0,0.0,0.0,0.0,0.0,0.0,0.0
2025/04/09 10:58:35.604507604,1744189115,603488984,mA1/imu,0.7085127990530722,0.7056976571977496,0.00021959408319146818,0.0006180469457074038,0.0,0.0,0.0,0.0,0.0,0.0,0.0,0.0,0.0,0.00025704430018063203,0.0003888678588847143,3.2355277831938165e-05,0.0,0.0,0.0,0.0,0.0,0.0,0.0,0.0,0.0,0.009077580217403661,0.039380616601052944,9.80929313459155,0.0,0.0,0.0,0.0,0.0,0.0,0.0,0.0,0.0
2025/04/09 10:58:35.656868552,1744189115,654776658,mA1/imu,0.7085133236020899,0.7056971217126271,0.00023213216574625493,0.000623537883052737,0.0,0.0,0.0,0.0,0.0,0.0,0.0,0.0,0.0,-0.0016803221448589672,8.803881376882832e-05,2.88892149278386e-05,0.0,0.0,0.0,0.0,0.0,0.0,0.0,0.0,0.0,0.008870779361423851,0.44760939058382065,9.810186291836153,0.0,0.0,0.0,0.0,0.0,0.0,0.0,0.0,0.0
2025/04/09 10:58:35.709655210,1744189115,705707305,mA1/imu,0.7085138263279308,0.705696621550717,0.00022525735726439244,0.0006208809724816944,0.0,0.0,0.0,0.0,0.0,0.0,0.0,0.0,0.0,-0.0005779402939101231,-0.00023513755724705778,2.6817516644104394e-05,0.0,0.0,0.0,0.0,0.0,0.0,0.0,0.0,0.0,0.009631189609165921,-0.010131159259098856,9.811132213929413,0.0,0.0,0.0,0.0,0.0,0.0,0.0,0.0,0.0
2025/04/09 10:58:35.747092676,1744189115,746477573,mA1/imu,0.7085142801760409,0.7056961659581436,0.00021395912999463184,0.0006247880388817972,0.0,0.0,0.0,0.0,0.0,0.0,0.0,0.0,0.0,0.00104363136696197,-0.0005551591030343799,2.452438081973145e-05,0.0,0.0,0.0,0.0,0.0,0.0,0.0,0.0,0.0,0.009446720403761495,0.07632962541118163,9.811949213179314,0.0,0.0,0.0,0.0,0.0,0.0,0.0,0.0,0.0
2025/04/09 10:58:35.799632305,1744189115,798022837,mA1/imu,0.7085146848295784,0.7056957536751132,0.00020046062974667708,0.0006359569900776722,0.0,0.0,0.0,0.0,0.0,0.0,0.0,0.0,0.0,0.0005422849935446347,-0.0007968048077046507,2.1401678282331533e-05,0.0,0.0,0.0,0.0,0.0,0.0,0.0,0.0,0.0,0.008513611722659825,0.037969135045382685,9.809400339018541,0.0,0.0,0.0,0.0,0.0,0.0,0.0,0.0,0.0
2025/04/09 10:58:35.850328390,1744189115,847853176,mA1/imu,0.7085147449145429,0.7056956840636185,0.00018227254130775687,0.0006515438453832862,0.0,0.0,0.0,0.0,0.0,0.0,0.0,0.0,0.0,7.706407040673723e-06,-0.001080677823934087,-3.802395360451154e-05,0.0,0.0,0.0,0.0,0.0,0.0,0.0,0.0,0.0,0.013572350396686198,0.025595794263355922,9.808982775376764,0.0,0.0,0.0,0.0,0.0,0.0,0.0,0.0,0.0
2025/04/09 10:58:35.901296085,1744189115,900172139,mA1/imu,0.7085132008161796,0.7056972286851607,0.00015367392251406785,0.0006648906838995145,0.0,0.0,0.0,0.0,0.0,0.0,0.0,0.0,0.0,0.0016372847985013737,-0.0011736092766352348,-7.576110205089285e-05,0.0,0.0,0.0,0.0,0.0,0.0,0.0,0.0,0.0,0.0016228956434506973,-0.4678023625527105,9.810850897500933,0.0,0.0,0.0,0.0,0.0,0.0,0.0,0.0,0.0
2025/04/09 10:58:35.950977338,1744189115,949999388,mA1/imu,0.7085124422342862,0.7056979790002498,0.00013154656018124364,0.0006814173997385835,0.0,0.0,0.0,0.0,0.0,0.0,0.0,0.0,0.0,0.0010964560758247876,-0.0010564618082473964,-9.324794582887506e-06,0.0,0.0,0.0,0.0,0.0,0.0,0.0,0.0,0.0,0.0019326905512846854,-0.3391658183756267,9.809634720355833,0.0,0.0,0.0,0.0,0.0,0.0,0.0,0.0,0.0
2025/04/09 10:58:36.1921412,1744189116,1180341,mA1/imu,0.7085126846735137,0.7056977216892103,0.00011345823823478621,0.0006988466327146744,0.0,0.0,0.0,0.0,0.0,0.0,0.0,0.0,0.0,0.00032942614218723276,-0.0010506447237107976,-5.792185167085526e-06,0.0,0.0,0.0,0.0,0.0,0.0,0.0,0.0,0.0,0.012975764618851042,-0.618767482584779,9.809004068451062,0.0,0.0,0.0,0.0,0.0,0.0,0.0,0.0,0.0
2025/04/09 10:58:36.52639808,1744189116,50991161,mA1/imu,0.7085119749363634,0.7056984300494671,8.33438361482935e-05,0.0007072844520057371,0.0,0.0,0.0,0.0,0.0,0.0,0.0,0.0,0.0,0.0012561808819615955,-0.0010826329756486557,-4.9761877819719176e-05,0.0,0.0,0.0,0.0,0.0,0.0,0.0,0.0,0.0,0.007814949057062188,-0.5555685201388403,9.810482090158438,0.0,0.0,0.0,0.0,0.0,0.0,0.0,0.0,0.0
2025/04/09 10:58:36.104664864,1744189116,102040753,mA1/imu,0.7085111104572167,0.7056992878182861,6.030170136605851e-05,0.0007196493246749309,0.0,0.0,0.0,0.0,0.0,0.0,0.0,0.0,0.0,0.0003161670749756496,-0.0009517860494303265,-4.886048150239663e-05,0.0,0.0,0.0,0.0,0.0,0.0,0.0,0.0,0.0,0.007351908760382381,0.009029068453121843,9.81023592454244,0.0,0.0,0.0,0.0,0.0,0.0,0.0,0.0,0.0
2025/04/09 10:58:36.153290894,1744189116,151857002,mA1/imu,0.7085102661192608,0.7057001261238629,4.0848726238820396e-05,0.0007301532439460813,0.0,0.0,0.0,0.0,0.0,0.0,0.0,0.0,0.0,-0.0008762420126877503,-0.0007620980812162235,-4.797285247372875e-05,0.0,0.0,0.0,0.0,0.0,0.0,0.0,0.0,0.0,0.007123639901634699,0.4410767099862645,9.809734536546781,0.0,0.0,0.0,0.0,0.0,0.0,0.0,0.0,0.0
2025/04/09 10:58:36.205027847,1744189116,202865066,mA1/imu,0.7085094287245784,0.7057009620634189,2.3084558518590302e-05,0.0007355394207886176,0.0,0.0,0.0,0.0,0.0,0.0,0.0,0.0,0.0,-1.5302010140525308e-05,-0.0005652301267067223,-4.7806904560516195e-05,0.0,0.0,0.0,0.0,0.0,0.0,0.0,0.0,0.0,0.007364411354571803,-0.012018817552417897,9.811305055207466,0.0,0.0,0.0,0.0,0.0,0.0,0.0,0.0,0.0
2025/04/09 10:58:36.253401361,1744189116,252770339,mA1/imu,0.7085085983583294,0.705701798178958,6.137436376254981e-06,0.0007335268452748093,0.0,0.0,0.0,0.0,0.0,0.0,0.0,0.0,0.0,0.0017012563732935041,-0.0003414447687322416,-4.726279484904878e-05,0.0,0.0,0.0,0.0,0.0,0.0,0.0,0.0,0.0,0.007744484279630557,-0.3912471028598567,9.810002771010513,0.0,0.0,0.0,0.0,0.0,0.0,0.0,0.0,0.0
2025/04/09 10:58:36.304792711,1744189116,303712212,mA1/imu,0.7085077830501557,0.7057026179747855,-9.494875575501399e-07,0.0007323523646243187,0.0,0.0,0.0,0.0,0.0,0.0,0.0,0.0,0.0,-1.3620817375420457e-05,-6.117644605136827e-05,-4.5645749910888e-05,0.0,0.0,0.0,0.0,0.0,0.0,0.0,0.0,0.0,0.00663968258448644,0.6251082864308619,9.810221914229528,0.0,0.0,0.0,0.0,0.0,0.0,0.0,0.0,0.0
2025/04/09 10:58:36.354660262,1744189116,353587591,mA1/imu,0.7085069938832946,0.7057034101154306,2.5285643938766458e-06,0.0007325049595128834,0.0,0.0,0.0,0.0,0.0,0.0,0.0,0.0,0.0,-0.001240630625719281,0.00021045399064603914,-4.416404359609797e-05,0.0,0.0,0.0,0.0,0.0,0.0,0.0,0.0,0.0,0.006607622190323168,0.5470220517408985,9.809699324737958,0.0,0.0,0.0,0.0,0.0,0.0,0.0,0.0,0.0
2025/04/09 10:58:36.405538833,1744189116,404556784,mA1/imu,0.7085062281203177,0.7057041868288733,6.95365029219745e-06,0.0007248162288727021,0.0,0.0,0.0,0.0,0.0,0.0,0.0,0.0,0.0,0.00013019025959933636,0.00043596057611850034,-4.295156474910633e-05,0.0,0.0,0.0,0.0,0.0,0.0,0.0,0.0,0.0,0.008102691102367818,-0.6166393296868107,9.80979457846912,0.0,0.0,0.0,0.0,0.0,0.0,0.0,0.0,0.0
2025/04/09 10:58:36.455746059,1744189116,454422842,mA1/imu,0.708505491053834,0.7057049416829053,1.2110224515679449e-05,0.0007101297311421191,0.0,0.0,0.0,0.0,0.0,0.0,0.0,0.0,0.0,0.0015134442660177272,0.0006262103193729203,-4.128204760289627e-05,0.0,0.0,0.0,0.0,0.0,0.0,0.0,0.0,0.0,0.008255171152307932,-0.516837486784074,9.809236522690242,0.0,0.0,0.0,0.0,0.0,0.0,0.0,0.0,0.0
2025/04/09 10:58:36.507503738,1744189116,505395804,mA1/imu,0.7085047665848111,0.7057056801822075,2.708655184445295e-05,0.0006985352454380728,0.0,0.0,0.0,0.0,0.0,0.0,0.0,0.0,0.0,-0.00023558468167926889,0.000816972748188639,-4.0635147528059355e-05,0.0,0.0,0.0,0.0,0.0,0.0,0.0,0.0,0.0,0.0072295997922079604,0.6301923404976677,9.810476697870522,0.0,0.0,0.0,0.0,0.0,0.0,0.0,0.0,0.0
2025/04/09 10:58:36.556966072,1744189116,555219747,mA1/imu,0.7085040513268552,0.7057064056585468,5.0260073731491395e-05,0.0006897389740038856,0.0,0.0,0.0,0.0,0.0,0.0,0.0,0.0,0.0,-0.0015641634154315257,0.0009633437601172111,-3.994383835815865e-05,0.0,0.0,0.0,0.0,0.0,0.0,0.0,0.0,0.0,0.007353222865411683,0.3567738146102281,9.810096117264369,0.0,0.0,0.0,0.0,0.0,0.0,0.0,0.0,0.0
2025/04/09 10:58:36.607250416,1744189116,606196080,mA1/imu,0.7085033570344524,0.7057071169422756,6.899441183931272e-05,0.0006733555552014947,0.0,0.0,0.0,0.0,0.0,0.0,0.0,0.0,0.0,-1.6079291914916867e-05,0.0010167296686155569,-3.897279164446679e-05,0.0,0.0,0.0,0.0,0.0,0.0,0.0,0.0,0.0,0.00885068514669529,-0.6073098330676058,9.80956656840111,0.0,0.0,0.0,0.0,0.0,0.0,0.0,0.0,0.0
2025/04/09 10:58:36.650206661,1744189116,647708531,mA1/imu,0.7085026704884421,0.7057078200912901,8.822806435182263e-05,0.0006563448438746168,0.0,0.0,0.0,0.0,0.0,0.0,0.0,0.0,0.0,-0.0007842180660931231,0.0010282971108380881,-3.868190862484354e-05,0.0,0.0,0.0,0.0,0.0,0.0,0.0,0.0,0.0,0.008985216323013119,0.6003729118617948,9.810822422550702,0.0,0.0,0.0,0.0,0.0,0.0,0.0,0.0,0.0
2025/04/09 10:58:36.699525089,1744189116,698710468,mA1/imu,0.708501987743738,0.7057085159188654,0.00010885251246079742,0.0006419298211110345,0.0,0.0,0.0,0.0,0.0,0.0,0.0,0.0,0.0,-0.00020191464785419933,0.0009650721852818134,-3.8280485542347566e-05,0.0,0.0,0.0,0.0,0.0,0.0,0.0,0.0,0.0,0.008525905500891162,0.07915718815094208,9.809128590568825,0.0,0.0,0.0,0.0,0.0,0.0,0.0,0.0,0.0
2025/04/09 10:58:36.749477690,1744189116,748478713,mA1/imu,0.7085012874075248,0.7057092203324901,0.00013412370048343703,0.0006356810693419004,0.0,0.0,0.0,0.0,0.0,0.0,0.0,0.0,0.0,-0.0012980322797500154,0.0008454958293549158,-3.963593000891981e-05,0.0,0.0,0.0,0.0,0.0,0.0,0.0,0.0,0.0,0.008745183052274853,0.43161742174683626,9.809704374448915,0.0,0.0,0.0,0.0,0.0,0.0,0.0,0.0,0.0
2025/04/09 10:58:36.800311484,1744189116,799658618,mA1/imu,0.7085005684420855,0.7057099428101637,0.0001549406974442185,0.0006301821144430503,0.0,0.0,0.0,0.0,0.0,0.0,0.0,0.0,0.0,-0.0020595811905961105,0.0006855682962632891,-4.091404340705666e-05,0.0,0.0,0.0,0.0,0.0,0.0,0.0,0.0,0.0,0.009565137205075378,0.5185930571613435,9.811927220786513,0.0,0.0,0.0,0.0,0.0,0.0,0.0,0.0,0.0
2025/04/09 10:58:36.851434656,1744189116,849494355,mA1/imu,0.7084998374841043,0.7057106848801873,0.0001636641752761253,0.0006186638608136798,0.0,0.0,0.0,0.0,0.0,0.0,0.0,0.0,0.0,-0.0006791816412301585,0.0005022984004269016,-4.165534484059137e-05,0.0,0.0,0.0,0.0,0.0,0.0,0.0,0.0,0.0,0.00905588566974156,0.5680038647953359,9.809552189069752,0.0,0.0,0.0,0.0,0.0,0.0,0.0,0.0,0.0
2025/04/09 10:58:36.903676208,1744189116,900462074,mA1/imu,0.7084990870209183,0.7057114349576643,0.00017649661136279204,0.0006189583714197533,0.0,0.0,0.0,0.0,0.0,0.0,0.0,0.0,0.0,0.001175553722407213,0.00025320824621372697,-4.292094901335395e-05,0.0,0.0,0.0,0.0,0.0,0.0,0.0,0.0,0.0,0.00860184898251805,-0.5162993142104868,9.808589198086912,0.0,0.0,0.0,0.0,0.0,0.0,0.0,0.0,0.0
2025/04/09 10:58:36.951636094,1744189116,950872546,mA1/imu,0.7084983156047557,0.7057122072486668,0.00018151612720244902,0.0006199817208568685,0.0,0.0,0.0,0.0,0.0,0.0,0.0,0.0,0.0,0.0004908080258545561,1.7959841655125526e-06,-4.415064163599306e-05,0.0,0.0,0.0,0.0,0.0,0.0,0.0,0.0,0.0,0.009803871179458624,-0.11626371178976874,9.811076620673981,0.0,0.0,0.0,0.0,0.0,0.0,0.0,0.0,0.0
2025/04/09 10:58:37.3657546,1744189117,1902599,mA1/imu,0.7084975061630638,0.70571301362029,0.000183557555991275,0.0006264777021731983,0.0,0.0,0.0,0.0,0.0,0.0,0.0,0.0,0.0,-0.000973297480644066,-0.0002131778627826807,-4.6750323508991464e-05,0.0,0.0,0.0,0.0,0.0,0.0,0.0,0.0,0.0,0.008827325583993618,0.5880079530603288,9.810150254769342,0.0,0.0,0.0,0.0,0.0,0.0,0.0,0.0,0.0
2025/04/09 10:58:37.52633457,1744189117,51782430,mA1/imu,0.708496689639974,0.7057138246724234,0.0001809830048341769,0.000636930585047508,0.0,0.0,0.0,0.0,0.0,0.0,0.0,0.0,0.0,-0.0001202496555270789,-0.0004509976754508949,-4.613775268951966e-05,0.0,0.0,0.0,0.0,0.0,0.0,0.0,0.0,0.0,0.008323199418757338,0.35713581032849645,9.810496116546275,0.0,0.0,0.0,0.0,0.0,0.0,0.0,0.0,0.0
2025/04/09 10:58:37.103948378,1744189117,103067445,mA1/imu,0.7084958755912215,0.705714631715827,0.00017418386822211064,0.0006500095406898233,0.0,0.0,0.0,0.0,0.0,0.0,0.0,0.0,0.0,0.0008082625762588958,-0.0006329141030891816,-4.606965139396528e-05,0.0,0.0,0.0,0.0,0.0,0.0,0.0,0.0,0.0,0.008325869947683166,-0.3643694281635457,9.80942854238236,0.0,0.0,0.0,0.0,0.0,0.0,0.0,0.0,0.0
2025/04/09 10:58:37.155137485,1744189117,152983298,mA1/imu,0.7084950360582012,0.7057154643659694,0.00016248022943432603,0.0006639546576361552,0.0,0.0,0.0,0.0,0.0,0.0,0.0,0.0,0.0,3.6980283023900555e-05,-0.0007995027016299052,-5.117521486968292e-05,0.0,0.0,0.0,0.0,0.0,0.0,0.0,0.0,0.0,0.009830506632839332,-0.2744722808436443,9.810494052598774,0.0,0.0,0.0,0.0,0.0,0.0,0.0,0.0,0.0
2025/04/09 10:58:37.207288660,1744189117,206196342,mA1/imu,0.7084940086461498,0.7057164821777031,0.00014916688507485575,0.0006813548837765,0.0,0.0,0.0,0.0,0.0,0.0,0.0,0.0,0.0,-0.0010274528748038195,-0.0009059513025597776,-6.294125528307112e-05,0.0,0.0,0.0,0.0,0.0,0.0,0.0,0.0,0.0,0.009626571133791294,0.23753920359214506,9.81015879739643,0.0,0.0,0.0,0.0,0.0,0.0,0.0,0.0,0.0
2025/04/09 10:58:37.247370869,1744189117,246354389,mA1/imu,0.7084927989809227,0.7057176941458164,0.0001227796321572462,0.000689120346261839,0.0,0.0,0.0,0.0,0.0,0.0,0.0,0.0,0.0,0.0007944700215566787,-0.0009805087510385171,-7.269088303840066e-05,0.0,0.0,0.0,0.0,0.0,0.0,0.0,0.0,0.0,0.008067280930081978,0.05643314041914764,9.81114453723664,0.0,0.0,0.0,0.0,0.0,0.0,0.0,0.0,0.0
2025/04/09 10:58:37.304289977,1744189117,302408292,mA1/imu,0.7084914342209118,0.7057190367680232,0.00011649681071015385,0.000717779424328005,0.0,0.0,0.0,0.0,0.0,0.0,0.0,0.0,0.0,-0.00030228527618416897,-0.0009999093493527937,-7.918545447592168e-05,0.0,0.0,0.0,0.0,0.0,0.0,0.0,0.0,0.0,0.008429283166900862,-0.016574544973265944,9.809081877836247,0.0,0.0,0.0,0.0,0.0,0.0,0.0,0.0,0.0
2025/04/09 10:58:37.357851311,1744189117,355095869,mA1/imu,0.708489932265611,0.705720536657039,9.382609228777636e-05,0.0007288452752495544,0.0,0.0,0.0,0.0,0.0,0.0,0.0,0.0,0.0,-0.0005800683001454357,-0.0009138047045568643,-9.143970954789295e-05,0.0,0.0,0.0,0.0,0.0,0.0,0.0,0.0,0.0,0.008077441352623914,-0.03669408140119388,9.809679959684697,0.0,0.0,0.0,0.0,0.0,0.0,0.0,0.0,0.0
2025/04/09 10:58:37.401157703,1744189117,399525075,mA1/imu,0.7084881820373072,0.7057222783255921,7.960907740717932e-05,0.0007452857180302897,0.0,0.0,0.0,0.0,0.0,0.0,0.0,0.0,0.0,0.0009305220763879307,-0.0008160760103782707,-0.00010521571995056482,0.0,0.0,0.0,0.0,0.0,0.0,0.0,0.0,0.0,0.007487630828961616,0.07201769971151462,9.810139628027308,0.0,0.0,0.0,0.0,0.0,0.0,0.0,0.0,0.0
2025/04/09 10:58:37.452761207,1744189117,451863754,mA1/imu,0.7084862112896092,0.7057242286414492,8.040479352781926e-05,0.0007713987269406887,0.0,0.0,0.0,0.0,0.0,0.0,0.0,0.0,0.0,-0.0011990700375177216,-0.0006595828776016554,-0.00011142228627080654,0.0,0.0,0.0,0.0,0.0,0.0,0.0,0.0,0.0,0.008105196378848687,-0.07524695605221164,9.81006418193752,0.0,0.0,0.0,0.0,0.0,0.0,0.0,0.0,0.0
2025/04/09 10:58:37.503910634,1744189117,502817260,mA1/imu,0.7084842514191442,0.7057261927909959,6.571007126232028e-05,0.0007758749690038267,0.0,0.0,0.0,0.0,0.0,0.0,0.0,0.0,0.0,0.0001271837389978385,-0.0004445282240282232,-0.00011136585028829545,0.0,0.0,0.0,0.0,0.0,0.0,0.0,0.0,0.0,0.006774008024428284,0.027364022222947933,9.809656590449567,0.0,0.0,0.0,0.0,0.0,0.0,0.0,0.0,0.0
2025/04/09 10:58:37.553223254,1744189117,552642019,mA1/imu,0.7084822798118569,0.7057281511157297,7.287685156380096e-05,0.0007941059955648556,0.0,0.0,0.0,0.0,0.0,0.0,0.0,0.0,0.0,0.0004777109218105147,-0.00022416598000937613,-0.0001105832183555991,0.0,0.0,0.0,0.0,0.0,0.0,0.0,0.0,0.0,0.007286286087760813,0.05264230209665198,9.809725519080143,0.0,0.0,0.0,0.0,0.0,0.0,0.0,0.0,0.0
2025/04/09 10:58:37.604541837,1744189117,603574545,mA1/imu,0.7084803013289461,0.705730119982302,8.494748487808645e-05,0.0008081847165665067,0.0,0.0,0.0,0.0,0.0,0.0,0.0,0.0,0.0,-0.0007830088059024351,4.605029508707251e-05,-0.00011183920178363175,0.0,0.0,0.0,0.0,0.0,0.0,0.0,0.0,0.0,0.007188146598059707,-0.02127039318244258,9.80961005969607,0.0,0.0,0.0,0.0,0.0,0.0,0.0,0.0,0.0
2025/04/09 10:58:37.656436366,1744189117,654073037,mA1/imu,0.708478289743749,0.7057321231513308,0.0001036190786858977,0.0008201080256014576,0.0,0.0,0.0,0.0,0.0,0.0,0.0,0.0,0.0,-0.0009315767703016193,0.0002889698613913872,-0.00011371767340726773,0.0,0.0,0.0,0.0,0.0,0.0,0.0,0.0,0.0,0.007222720739153429,-0.02699565217939437,9.809837220359537,0.0,0.0,0.0,0.0,0.0,0.0,0.0,0.0,0.0
2025/04/09 10:58:37.706683790,1744189117,704980596,mA1/imu,0.7084762467221006,0.705734157460577,0.00012922541454147418,0.0008307374839137158,0.0,0.0,0.0,0.0,0.0,0.0,0.0,0.0,0.0,-0.0010814044604707188,0.0005132820424778773,-0.00011500296827905239,0.0,0.0,0.0,0.0,0.0,0.0,0.0,0.0,0.0,0.007395649767854378,-0.025551769375852185,9.809426346717762,0.0,0.0,0.0,0.0,0.0,0.0,0.0,0.0,0.0
2025/04/09 10:58:37.750618867,1744189117,746649112,mA1/imu,0.7084741830493433,0.7057362112569308,0.00016108065262816155,0.0008403132165767212,0.0,0.0,0.0,0.0,0.0,0.0,0.0,0.0,0.0,-0.0012412353342340218,0.0007071312594300386,-0.00011569792778622448,0.0,0.0,0.0,0.0,0.0,0.0,0.0,0.0,0.0,0.007438210469989413,-0.0340704970897917,9.809780127422485,0.0,0.0,0.0,0.0,0.0,0.0,0.0,0.0,0.0
2025/04/09 10:58:37.799361829,1744189117,798465923,mA1/imu,0.7084721090334329,0.7057382724034622,0.00019874390124393823,0.0008497573522324441,0.0,0.0,0.0,0.0,0.0,0.0,0.0,0.0,0.0,-0.0013833399372817554,0.0008568888253993386,-0.00011575308941714451,0.0,0.0,0.0,0.0,0.0,0.0,0.0,0.0,0.0,0.007739848952105785,-0.03282670708207062,9.809577084270703,0.0,0.0,0.0,0.0,0.0,0.0,0.0,0.0,0.0
2025/04/09 10:58:37.849113070,1744189117,848320751,mA1/imu,0.7084700341156663,0.7057403306364342,0.00024081700191918334,0.000859348878259308,0.0,0.0,0.0,0.0,0.0,0.0,0.0,0.0,0.0,-0.001520006118934337,0.0009576027074487718,-0.00011529258166317061,0.0,0.0,0.0,0.0,0.0,0.0,0.0,0.0,0.0,0.007791158326032108,-0.041929677196549234,9.809970956823744,0.0,0.0,0.0,0.0,0.0,0.0,0.0,0.0,0.0
2025/04/09 10:58:37.901530389,1744189117,899691053,mA1/imu,0.7084679591268965,0.7057423780243506,0.00028964210456257323,0.0008734177440463468,0.0,0.0,0.0,0.0,0.0,0.0,0.0,0.0,0.0,-0.0017974743645810531,0.0009968173978767813,-0.0001147353375869728,0.0,0.0,0.0,0.0,0.0,0.0,0.0,0.0,0.0,0.008200304021457473,-0.05252959114827514,9.809544583234029,0.0,0.0,0.0,0.0,0.0,0.0,0.0,0.0,0.0
2025/04/09 10:58:37.951308994,1744189117,949524439,mA1/imu,0.7084659015274914,0.7057444089226937,0.0003359474761224891,0.0008847522193740796,0.0,0.0,0.0,0.0,0.0,0.0,0.0,0.0,0.0,-0.001663788093252191,0.0009827795961548941,-0.00011392337338910672,0.0,0.0,0.0,0.0,0.0,0.0,0.0,0.0,0.0,0.00817427340427854,-0.04482040398318071,9.809884781218466,0.0,0.0,0.0,0.0,0.0,0.0,0.0,0.0,0.0
2025/04/09 10:58:38.1556355,1744189118,471046,mA1/imu,0.7084638494989373,0.7057464332373483,0.00037971224015342323,0.0008954018778119625,0.0,0.0,0.0,0.0,0.0,0.0,0.0,0.0,0.0,-0.0008115610624001593,0.0009087557458453775,-0.00011412803381258426,0.0,0.0,0.0,0.0,0.0,0.0,0.0,0.0,0.0,0.007877942930325734,0.016330237281024722,9.808900607822183,0.0,0.0,0.0,0.0,0.0,0.0,0.0,0.0,0.0
2025/04/09 10:58:38.51977444,1744189118,50317837,mA1/imu,0.708461773122806,0.7057484676335379,0.00042709727247349004,0.0009132603805542057,0.0,0.0,0.0,0.0,0.0,0.0,0.0,0.0,0.0,-0.0006215833272361936,0.0007764524847500433,-0.00011519740978780622,0.0,0.0,0.0,0.0,0.0,0.0,0.0,0.0,0.0,0.008766974472023265,0.018061852699297398,9.810649665871347,0.0,0.0,0.0,0.0,0.0,0.0,0.0,0.0,0.0
2025/04/09 10:58:38.102228224,1744189118,101302189,mA1/imu,0.7084596736832344,0.7057505120720828,0.000475810365108928,0.0009375922004589239,0.0,0.0,0.0,0.0,0.0,0.0,0.0,0.0,0.0,-0.0018941800904115772,0.0006173053782724388,-0.00011630532219056151,0.0,0.0,0.0,0.0,0.0,0.0,0.0,0.0,0.0,0.008940830151368106,-0.07319110500449656,9.809872391678669,0.0,0.0,0.0,0.0,0.0,0.0,0.0,0.0,0.0
2025/04/09 10:58:38.155959781,1744189118,152778027,mA1/imu,0.7084575720323281,0.705752569694301,0.0005130695354381244,0.000956953291030354,0.0,0.0,0.0,0.0,0.0,0.0,0.0,0.0,0.0,-0.0016332470192216581,0.00042556160034532594,-0.00011708345351345895,0.0,0.0,0.0,0.0,0.0,0.0,0.0,0.0,0.0,0.00862578420402867,-0.6986161914626392,9.81011765622211,0.0,0.0,0.0,0.0,0.0,0.0,0.0,0.0,0.0
2025/04/09 10:58:38.205562248,1744189118,203768852,mA1/imu,0.7084554673241662,0.70575464395237,0.0005379718078964031,0.0009715680596980696,0.0,0.0,0.0,0.0,0.0,0.0,0.0,0.0,0.0,-0.0004971828303406603,0.00020094462387323657,-0.00011815917048621853,0.0,0.0,0.0,0.0,0.0,0.0,0.0,0.0,0.0,0.008925211994931504,-0.5977147241714831,9.810577432692774,0.0,0.0,0.0,0.0,0.0,0.0,0.0,0.0,0.0
2025/04/09 10:58:38.256063050,1744189118,254188651,mA1/imu,0.7084533339002563,0.7057567362815407,0.0005618527809324465,0.000993579534929191,0.0,0.0,0.0,0.0,0.0,0.0,0.0,0.0,0.0,-0.0018039333780087469,-3.327483673802629e-05,-0.00011954759932678366,0.0,0.0,0.0,0.0,0.0,0.0,0.0,0.0,0.0,0.009069691973784957,0.51634614156405,9.810976775376233,0.0,0.0,0.0,0.0,0.0,0.0,0.0,0.0,0.0
2025/04/09 10:58:38.306385602,1744189118,305123170,mA1/imu,0.7084512059582625,0.7057588247161973,0.0005789564256505064,0.0010173106470293355,0.0,0.0,0.0,0.0,0.0,0.0,0.0,0.0,0.0,-0.0020096659589241184,-0.00027510882701185785,-0.00011882427945929135,0.0,0.0,0.0,0.0,0.0,0.0,0.0,0.0,0.0,0.008947423674635765,0.4865117865360004,9.811505627211382,0.0,0.0,0.0,0.0,0.0,0.0,0.0,0.0,0.0
2025/04/09 10:58:38.357508245,1744189118,355017124,mA1/imu,0.7084491063880081,0.7057608989172932,0.0005845466282805773,0.0010370741180671314,0.0,0.0,0.0,0.0,0.0,0.0,0.0,0.0,0.0,-0.0007352496338741688,-0.00047712442197475304,-0.00011789907696214227,0.0,0.0,0.0,0.0,0.0,0.0,0.0,0.0,0.0,0.008151955955036124,-0.3962912549125506,9.810244440439945,0.0,0.0,0.0,0.0,0.0,0.0,0.0,0.0,0.0
2025/04/09 10:58:38.406759492,1744189118,406062544,mA1/imu,0.7084470437472115,0.7057629540229818,0.0005777293227101627,0.0010512675304321902,0.0,0.0,0.0,0.0,0.0,0.0,0.0,0.0,0.0,0.0012707950286730161,-0.0006665896361387352,-0.00011677984472313587,0.0,0.0,0.0,0.0,0.0,0.0,0.0,0.0,0.0,0.007918419543247679,-0.5871958958033052,9.809055797345248,0.0,0.0,0.0,0.0,0.0,0.0,0.0,0.0,0.0
2025/04/09 10:58:38.447240406,1744189118,445932825,mA1/imu,0.7084449990599128,0.7057649915937516,0.0005669002365419982,0.0010670387968173527,0.0,0.0,0.0,0.0,0.0,0.0,0.0,0.0,0.0,0.0005457667360869599,-0.000816552889671052,-0.00011543517056944604,0.0,0.0,0.0,0.0,0.0,0.0,0.0,0.0,0.0,0.008922685142976583,-0.035753960744438276,9.809993779172107,0.0,0.0,0.0,0.0,0.0,0.0,0.0,0.0,0.0
2025/04/09 10:58:38.500665438,1744189118,496907559,mA1/imu,0.7084429937599908,0.7057669888097591,0.0005534105822267085,0.0010843594950652902,0.0,0.0,0.0,0.0,0.0,0.0,0.0,0.0,0.0,-0.0006573204686182321,-0.0009038762953833353,-0.00011337254999183406,0.0,0.0,0.0,0.0,0.0,0.0,0.0,0.0,0.0,0.007979035717262188,0.4978655974052537,9.811468151239566,0.0,0.0,0.0,0.0,0.0,0.0,0.0,0.0,0.0
2025/04/09 10:58:38.549020140,1744189118,547772716,mA1/imu,0.7084410347693081,0.7057689527157983,0.0005325514326048222,0.00109636964962528,0.0,0.0,0.0,0.0,0.0,0.0,0.0,0.0,0.0,-0.0002250183172185038,-0.0009340093525594474,-0.00011143291885291647,0.0,0.0,0.0,0.0,0.0,0.0,0.0,0.0,0.0,0.007360808779816594,-0.11773592804100128,9.810321861556558,0.0,0.0,0.0,0.0,0.0,0.0,0.0,0.0,0.0
2025/04/09 10:58:38.599231933,1744189118,598668975,mA1/imu,0.7084391283691674,0.7057708843088287,0.0005022705509340796,0.001099082236215486,0.0,0.0,0.0,0.0,0.0,0.0,0.0,0.0,0.0,0.0015167736971707598,-0.0009200184925697336,-0.00010931905194416368,0.0,0.0,0.0,0.0,0.0,0.0,0.0,0.0,0.0,0.007235468521798667,-0.36310964062302514,9.809288524214494,0.0,0.0,0.0,0.0,0.0,0.0,0.0,0.0,0.0
2025/04/09 10:58:38.649475997,1744189118,648770751,mA1/imu,0.7084374484281172,0.7057725831054135,0.00047474996638208715,0.0011032741456730914,0.0,0.0,0.0,0.0,0.0,0.0,0.0,0.0,0.0,0.001148592456343174,-0.0008861278797323206,-6.697929234986823e-05,0.0,0.0,0.0,0.0,0.0,0.0,0.0,0.0,0.0,0.008767642333249448,0.18569610091643496,9.810287383395032,0.0,0.0,0.0,0.0,0.0,0.0,0.0,0.0,0.0
2025/04/09 10:58:38.701534974,1744189118,699688510,mA1/imu,0.7084372161025068,0.7057728277141595,0.0004484968500707754,0.001106956126106418,0.0,0.0,0.0,0.0,0.0,0.0,0.0,0.0,0.0,0.0013194464033072612,-0.0008272128058133864,-4.502613219198583e-06,0.0,0.0,0.0,0.0,0.0,0.0,0.0,0.0,0.0,0.009201901015466514,-0.40121767404337755,9.808314481189928,0.0,0.0,0.0,0.0,0.0,0.0,0.0,0.0,0.0
2025/04/09 10:58:38.753162832,1744189118,749562110,mA1/imu,0.7084373342214552,0.705772735416841,0.00041703777563411443,0.0011024984907138165,0.0,0.0,0.0,0.0,0.0,0.0,0.0,0.0,0.0,0.002170469879348592,-0.0007158764818141586,1.1101544858557907e-05,0.0,0.0,0.0,0.0,0.0,0.0,0.0,0.0,0.0,0.008228843932198814,-0.6234581976273634,9.80884950853038,0.0,0.0,0.0,0.0,0.0,0.0,0.0,0.0,0.0
2025/04/09 10:58:38.801736536,1744189118,800782170,mA1/imu,0.7084376795964487,0.7057723969416502,0.0003976869041887772,0.0011043950215218292,0.0,0.0,0.0,0.0,0.0,0.0,0.0,0.0,0.0,0.0007475428671255417,-0.0005482734354483658,2.325908738877428e-05,0.0,0.0,0.0,0.0,0.0,0.0,0.0,0.0,0.0,0.00899756627485532,-0.4029440414936887,9.811951384268506,0.0,0.0,0.0,0.0,0.0,0.0,0.0,0.0,0.0
2025/04/09 10:58:38.854922541,1744189118,850957276,mA1/imu,0.7084382679500577,0.7057718530602808,0.00036386721813331445,0.001086062809981299,0.0,0.0,0.0,0.0,0.0,0.0,0.0,0.0,0.0,0.0006110233954296408,-0.00033647713668169906,3.609778985412713e-05,0.0,0.0,0.0,0.0,0.0,0.0,0.0,0.0,0.0,0.007721679786345827,0.5318201701245956,9.80804749270346,0.0,0.0,0.0,0.0,0.0,0.0,0.0,0.0,0.0
2025/04/09 10:58:38.904525894,1744189118,901975457,mA1/imu,0.708439017066324,0.7057711096191158,0.00035360445799663745,0.001083922963149367,0.0,0.0,0.0,0.0,0.0,0.0,0.0,0.0,0.0,0.0009989372097442988,-0.0001616354520928519,4.5086064344855034e-05,0.0,0.0,0.0,0.0,0.0,0.0,0.0,0.0,0.0,0.008102806918123227,-0.060853917960692214,9.80873156996772,0.0,0.0,0.0,0.0,0.0,0.0,0.0,0.0,0.0
2025/04/09 10:58:38.952410896,1744189118,951757687,mA1/imu,0.7084396042828914,0.7057705449843035,0.00034094180841831784,0.0010717624469758725,0.0,0.0,0.0,0.0,0.0,0.0,0.0,0.0,0.0,-4.113516917812091e-05,9.033610604127573e-05,-9.63338969518142e-06,0.0,0.0,0.0,0.0,0.0,0.0,0.0,0.0,0.0,0.006996819709601314,0.203632155236414,9.810654145650913,0.0,0.0,0.0,0.0,0.0,0.0,0.0,0.0,0.0
2025/04/09 10:58:39.3782771,1744189119,2714237,mA1/imu,0.7084377426518109,0.7057724205552577,0.000343028799456278,0.0010665370230273003,0.0,0.0,0.0,0.0,0.0,0.0,0.0,0.0,0.0,0.00014763397971498399,0.00030106129005081316,-0.00011611691216916548,0.0,0.0,0.0,0.0,0.0,0.0,0.0,0.0,0.0,0.00709543902494778,-0.09434588564833553,9.808624453766258,0.0,0.0,0.0,0.0,0.0,0.0,0.0,0.0,0.0
2025/04/09 10:58:39.57070343,1744189119,54966704,mA1/imu,0.7084349329515613,0.7057752536925013,0.00034661750272207964,0.0010568375036089763,0.0,0.0,0.0,0.0,0.0,0.0,0.0,0.0,0.0,-0.00025906936780002444,0.0002874761089871955,-0.00026123126853159253,0.0,0.0,0.0,0.0,0.0,0.0,0.0,0.0,0.0,0.02659326889988403,-0.1475422058897213,9.809183984674108,0.0,0.0,0.0,0.0,0.0,0.0,0.0,0.0,0.0
2025/04/09 10:58:39.107898715,1744189119,106498630,mA1/imu,0.7084280492195885,0.7057821630416115,0.00035307878493321505,0.001054868050714415,0.0,0.0,0.0,0.0,0.0,0.0,0.0,0.0,0.0,-0.0007473447316026249,0.00032314612994516353,-0.00040818668424270123,0.0,0.0,0.0,0.0,0.0,0.0,0.0,0.0,0.0,0.0062495540370979,-0.12686313290618995,9.80897456333599,0.0,0.0,0.0,0.0,0.0,0.0,0.0,0.0,0.0
2025/04/09 10:58:39.149159757,1744189119,147068768,mA1/imu,0.708421657398256,0.7057885764831214,0.0003694436691794101,0.001050783713355185,0.0,0.0,0.0,0.0,0.0,0.0,0.0,0.0,0.0,-0.0024622072601858127,0.000912465456184022,-0.00023995198429140193,0.0,0.0,0.0,0.0,0.0,0.0,0.0,0.0,0.0,-0.016799144971526795,0.37224014300760194,9.812865776328564,0.0,0.0,0.0,0.0,0.0,0.0,0.0,0.0,0.0
2025/04/09 10:58:39.200918882,1744189119,199651905,mA1/imu,0.7084203208467822,0.7057899454235401,0.000386482758035802,0.0010259539249272984,0.0,0.0,0.0,0.0,0.0,0.0,0.0,0.0,0.0,0.00031837250327157283,0.0012794995167400445,-5.7134777293841866e-05,0.0,0.0,0.0,0.0,0.0,0.0,0.0,0.0,0.0,0.006519909918428036,0.6077515576232718,9.809920856494763,0.0,0.0,0.0,0.0,0.0,0.0,0.0,0.0,0.0
2025/04/09 10:58:39.250321169,1744189119,249614516,mA1/imu,0.7084192618364693,0.7057909777112672,0.00043519231156949654,0.0010275446935842938,0.0,0.0,0.0,0.0,0.0,0.0,0.0,0.0,0.0,0.00032973202672855796,0.0013173805895624392,-5.771258935228136e-05,0.0,0.0,0.0,0.0,0.0,0.0,0.0,0.0,0.0,0.0090125454048639,-0.5213144483684942,9.810355306224086,0.0,0.0,0.0,0.0,0.0,0.0,0.0,0.0,0.0
2025/04/09 10:58:39.301702454,1744189119,300554798,mA1/imu,0.7084182022806935,0.705792026433835,0.0004751118997715961,0.0010199845556350094,0.0,0.0,0.0,0.0,0.0,0.0,0.0,0.0,0.0,-0.0014664999946906907,0.0013399468135459028,-5.769488860543751e-05,0.0,0.0,0.0,0.0,0.0,0.0,0.0,0.0,0.0,0.008667053651979815,-0.12190783884607356,9.808660414685075,0.0,0.0,0.0,0.0,0.0,0.0,0.0,0.0,0.0
2025/04/09 10:58:39.352928417,1744189119,351015808,mA1/imu,0.708417136360595,0.7057930686768383,0.0005183984540166452,0.0010180282062815628,0.0,0.0,0.0,0.0,0.0,0.0,0.0,0.0,0.0,-0.002316943942476484,0.0012425830863452406,-5.818151830133029e-05,0.0,0.0,0.0,0.0,0.0,0.0,0.0,0.0,0.0,0.008698371988005245,0.4540634962801516,9.81033417132154,0.0,0.0,0.0,0.0,0.0,0.0,0.0,0.0,0.0
