time,header_stamp_secs,header_stamp_nsecs,header_frame_id,orientation_x,orientation_y,orientation_z,orientation_w,orientation_covariance_0,orientation_covariance_1,orientation_covariance_2,orientation_covariance_3,orientation_covariance_4,orientation_covariance_5,orientation_covariance_6,orientation_covariance_7,orientation_covariance_8,angular_velocity_x,angular_velocity_y,angular_velocity_z,angular_velocity_covariance_0,angular_velocity_covariance_1,angular_velocity_covariance_2,angular_velocity_covariance_3,angular_velocity_covariance_4,angular_velocity_covariance_5,angular_velocity_covariance_6,angular_velocity_covariance_7,angular_velocity_covariance_8,linear_acceleration_x,linear_acceleration_y,linear_acceleration_z,linear_acceleration_covariance_0,linear_acceleration_covariance_1,linear_acceleration_covariance_2,linear_acceleration_covariance_3,linear_acceleration_covariance_4,linear_acceleration_covariance_5,linear_acceleration_covariance_6,linear_acceleration_covariance_7,linear_acceleration_covariance_8
2025/05/20 13:36:32.519235806,1747740992,514516036,mA1/imu,0.4678789308077909,-0.8837921188099883,-0.0008924823244309698,1.762981833955087e-05,0.0,0.0,0.0,0.0,0.0,0.0,0.0,0.0,0.0,-0.0008560140834692028,4.4835080058851866e-08,-1.7016590493245883e-06,0.0,0.0,0.0,0.0,0.0,0.0,0.0,0.0,0.0,0.007957795807341817,0.554375255027591,9.810110947292594,0.0,0.0,0.0,0.0,0.0,0.0,0.0,0.0,0.0
2025/05/20 13:36:32.569215563,1747740992,568354364,mA1/imu,0.46787896751753943,-0.8837920963236854,-0.0008954668763984315,1.922446584459828e-05,0.0,0.0,0.0,0.0,0.0,0.0,0.0,0.0,0.0,-0.0007183076256722995,5.863688235513445e-06,-1.5904732523150344e-06,0.0,0.0,0.0,0.0,0.0,0.0,0.0,0.0,0.0,0.007471230851783568,-0.06319563465841954,9.80907565369837,0.0,0.0,0.0,0.0,0.0,0.0,0.0,0.0,0.0
2025/05/20 13:36:32.620841000,1747740992,619510946,mA1/imu,0.46787900480776706,-0.8837920806788754,-0.0008914586356704986,1.7055749698676544e-05,0.0,0.0,0.0,0.0,0.0,0.0,0.0,0.0,0.0,0.0008777594790243993,-2.4278471215557553e-06,-1.670651314674855e-06,0.0,0.0,0.0,0.0,0.0,0.0,0.0,0.0,0.0,0.007827072794843955,-0.5850187421589105,9.809697927988637,0.0,0.0,0.0,0.0,0.0,0.0,0.0,0.0,0.0
2025/05/20 13:36:32.671385470,1747740992,665280832,mA1/imu,0.46787904272560216,-0.8837920639823958,-0.000888137823627258,1.5202537327687791e-05,0.0,0.0,0.0,0.0,0.0,0.0,0.0,0.0,0.0,0.0007319747418827053,-9.071743067370064e-06,-1.7956869988106076e-06,0.0,0.0,0.0,0.0,0.0,0.0,0.0,0.0,0.0,0.008317098603168425,0.03190622033897329,9.810998008392634,0.0,0.0,0.0,0.0,0.0,0.0,0.0,0.0,0.0
2025/05/20 13:36:32.714643361,1747740992,713560291,mA1/imu,0.46787908040573306,-0.8837920402503789,-0.000891861001489625,1.710883585091089e-05,0.0,0.0,0.0,0.0,0.0,0.0,0.0,0.0,0.0,-0.000862357281481241,-1.8693030826749207e-06,-1.7328345488696819e-06,0.0,0.0,0.0,0.0,0.0,0.0,0.0,0.0,0.0,0.007964328993242597,0.5540531499791886,9.810138220802001,0.0,0.0,0.0,0.0,0.0,0.0,0.0,0.0,0.0
2025/05/20 13:36:32.765960290,1747740992,764652707,mA1/imu,0.46787911779644586,-0.8837920172621128,-0.0008949877770340998,1.872602282713189e-05,0.0,0.0,0.0,0.0,0.0,0.0,0.0,0.0,0.0,-0.0007234168647540335,4.087620533297657e-06,-1.6239546401297428e-06,0.0,0.0,0.0,0.0,0.0,0.0,0.0,0.0,0.0,0.007472919203277929,-0.06332694787782005,9.809113894581403,0.0,0.0,0.0,0.0,0.0,0.0,0.0,0.0,0.0
2025/05/20 13:36:32.816495242,1747740992,815562970,mA1/imu,0.4678791558017887,-0.8837920011485777,-0.0008910654316532625,1.6564863013467546e-05,0.0,0.0,0.0,0.0,0.0,0.0,0.0,0.0,0.0,0.0008752608222591539,-3.5316085817144764e-06,-1.7064960907885757e-06,0.0,0.0,0.0,0.0,0.0,0.0,0.0,0.0,0.0,0.00782058795092919,-0.584883808726336,9.80973522285019,0.0,0.0,0.0,0.0,0.0,0.0,0.0,0.0,0.0
2025/05/20 13:36:32.867424026,1747740992,865619813,mA1/imu,0.4678791946153597,-0.8837919838821959,-0.0008878369073290006,1.4740435279385843e-05,0.0,0.0,0.0,0.0,0.0,0.0,0.0,0.0,0.0,0.0007274306478757946,-9.48838071957532e-06,-1.8396653384775923e-06,0.0,0.0,0.0,0.0,0.0,0.0,0.0,0.0,0.0,0.008311538500540122,0.03196327694439295,9.811027307732727,0.0,0.0,0.0,0.0,0.0,0.0,0.0,0.0,0.0
2025/05/20 13:36:32.917886384,1747740992,916914820,mA1/imu,0.467879233295767,-0.88379195948955,-0.0008916910450478008,1.6711280536096343e-05,0.0,0.0,0.0,0.0,0.0,0.0,0.0,0.0,0.0,-0.0008683860924723364,-1.8834326002238066e-06,-1.77848833862049e-06,0.0,0.0,0.0,0.0,0.0,0.0,0.0,0.0,0.0,0.007968701166275514,0.5540548240307726,9.810165877537447,0.0,0.0,0.0,0.0,0.0,0.0,0.0,0.0,0.0
2025/05/20 13:36:32.967445691,1747740992,966530497,mA1/imu,0.467879271689378,-0.8837919358317089,-0.000894954321840344,1.8412479081674003e-05,0.0,0.0,0.0,0.0,0.0,0.0,0.0,0.0,0.0,-0.0007299983457364504,4.824941166712886e-06,-1.668438775199374e-06,0.0,0.0,0.0,0.0,0.0,0.0,0.0,0.0,0.0,0.007470527064970832,-0.0633298554788082,9.80914265460801,0.0,0.0,0.0,0.0,0.0,0.0,0.0,0.0,0.0
2025/05/20 13:36:33.21785342,1747740993,19109100,mA1/imu,0.46787931067642863,-0.8837919190155943,-0.0008912102214385102,1.6371451353895715e-05,0.0,0.0,0.0,0.0,0.0,0.0,0.0,0.0,0.0,0.000865883543281457,-2.508890667587016e-06,-1.7479228598069442e-06,0.0,0.0,0.0,0.0,0.0,0.0,0.0,0.0,0.0,0.007824093537522534,-0.5850726738157747,9.809749556328235,0.0,0.0,0.0,0.0,0.0,0.0,0.0,0.0,0.0
2025/05/20 13:36:33.70638595,1747740993,69016033,mA1/imu,0.4678793502906838,-0.883791901154202,-0.000888150223552266,1.4662503950787814e-05,0.0,0.0,0.0,0.0,0.0,0.0,0.0,0.0,0.0,0.0007200095444231699,-8.791886720821616e-06,-1.8724533043676389e-06,0.0,0.0,0.0,0.0,0.0,0.0,0.0,0.0,0.0,0.008325524644284843,0.03188870026591345,9.811021995483104,0.0,0.0,0.0,0.0,0.0,0.0,0.0,0.0,0.0
2025/05/20 13:36:33.121121961,1747740993,120072709,mA1/imu,0.4678793896452118,-0.8837918762672086,-0.0008921374706871239,1.6734532123134313e-05,0.0,0.0,0.0,0.0,0.0,0.0,0.0,0.0,0.0,-0.0008744795139851443,-6.508959270518471e-07,-1.806451090598416e-06,0.0,0.0,0.0,0.0,0.0,0.0,0.0,0.0,0.0,0.00796158178203586,0.5540277567228165,9.810154949126312,0.0,0.0,0.0,0.0,0.0,0.0,0.0,0.0,0.0
2025/05/20 13:36:33.171701818,1747740993,169898666,mA1/imu,0.46787942865757226,-0.8837918521717978,-0.0008955057982102469,1.8524908426041382e-05,0.0,0.0,0.0,0.0,0.0,0.0,0.0,0.0,0.0,-0.0007349423924799987,5.9956157989286875e-06,-1.6948319709368025e-06,0.0,0.0,0.0,0.0,0.0,0.0,0.0,0.0,0.0,0.00746948249688891,-0.06334058938606327,9.80911865990871,0.0,0.0,0.0,0.0,0.0,0.0,0.0,0.0,0.0
2025/05/20 13:36:33.221964070,1747740993,221049405,mA1/imu,0.4678794682415596,-0.883791834959601,-0.0008918421057355764,1.6564884950319404e-05,0.0,0.0,0.0,0.0,0.0,0.0,0.0,0.0,0.0,0.0008620119578915332,-9.907524482632273e-07,-1.773275262914515e-06,0.0,0.0,0.0,0.0,0.0,0.0,0.0,0.0,0.0,0.007818181472461792,-0.5850765400567387,9.809709884579236,0.0,0.0,0.0,0.0,0.0,0.0,0.0,0.0,0.0
2025/05/20 13:36:33.268326817,1747740993,262146240,mA1/imu,0.46787950844466936,-0.8837918167414762,-0.0008888280252755355,1.49370957879671e-05,0.0,0.0,0.0,0.0,0.0,0.0,0.0,0.0,0.0,0.0007173515868033904,-6.34456762597533e-06,-1.8965143592293956e-06,0.0,0.0,0.0,0.0,0.0,0.0,0.0,0.0,0.0,0.008312137898398348,0.03188554801544284,9.810983017453099,0.0,0.0,0.0,0.0,0.0,0.0,0.0,0.0,0.0
2025/05/20 13:36:33.321522287,1747740993,316675959,mA1/imu,0.4678795483884573,-0.8837917915285846,-0.0008928238736879797,1.7089138843318758e-05,0.0,0.0,0.0,0.0,0.0,0.0,0.0,0.0,0.0,-0.0008757563079598815,2.249611437275861e-06,-1.8303977180131827e-06,0.0,0.0,0.0,0.0,0.0,0.0,0.0,0.0,0.0,0.007963246142049359,0.5540282903382621,9.810123078154746,0.0,0.0,0.0,0.0,0.0,0.0,0.0,0.0,0.0
2025/05/20 13:36:33.363031902,1747740993,361188072,mA1/imu,0.4678795880003582,-0.8837917671393273,-0.0008961640868842594,1.895493258795679e-05,0.0,0.0,0.0,0.0,0.0,0.0,0.0,0.0,0.0,-0.0007346992641153325,9.251587903158174e-06,-1.71914700787518e-06,0.0,0.0,0.0,0.0,0.0,0.0,0.0,0.0,0.0,0.007472251721704477,-0.0633352826344848,9.809083838346112,0.0,0.0,0.0,0.0,0.0,0.0,0.0,0.0,0.0
2025/05/20 13:36:33.418827287,1747740993,417438466,mA1/imu,0.4678796282088068,-0.8837917496643671,-0.0008924356923553911,1.7056397173424785e-05,0.0,0.0,0.0,0.0,0.0,0.0,0.0,0.0,0.0,0.0008637412498770023,2.4540844237822547e-06,-1.7983481451059272e-06,0.0,0.0,0.0,0.0,0.0,0.0,0.0,0.0,0.0,0.007807853382195789,-0.5850796486272999,9.809672443286901,0.0,0.0,0.0,0.0,0.0,0.0,0.0,0.0,0.0
2025/05/20 13:36:33.468589856,1747740993,467314337,mA1/imu,0.4678796690569384,-0.8837917312003813,-0.0008893286870093023,1.547542637660241e-05,0.0,0.0,0.0,0.0,0.0,0.0,0.0,0.0,0.0,0.0007201733584241915,-3.008971526292826e-06,-1.922547438152657e-06,0.0,0.0,0.0,0.0,0.0,0.0,0.0,0.0,0.0,0.008306962459717909,0.03188025781840298,9.810958553963916,0.0,0.0,0.0,0.0,0.0,0.0,0.0,0.0,0.0
2025/05/20 13:36:33.520266486,1747740993,518578533,mA1/imu,0.46787970966772663,-0.8837917057451643,-0.0008932109450471974,1.7649485328821138e-05,0.0,0.0,0.0,0.0,0.0,0.0,0.0,0.0,0.0,-0.0008716737125682727,4.792060107098675e-06,-1.8586212596168628e-06,0.0,0.0,0.0,0.0,0.0,0.0,0.0,0.0,0.0,0.007972454906136682,0.5540282211206988,9.810120564477522,0.0,0.0,0.0,0.0,0.0,0.0,0.0,0.0,0.0
2025/05/20 13:36:33.569518109,1747740993,568266356,mA1/imu,0.46787974997586573,-0.8837916811141372,-0.0008964237304952838,1.9505487830183215e-05,0.0,0.0,0.0,0.0,0.0,0.0,0.0,0.0,0.0,-0.0007296510891567017,1.0945040227391157e-05,-1.7493741348766453e-06,0.0,0.0,0.0,0.0,0.0,0.0,0.0,0.0,0.0,0.007477824354805967,-0.06333535192873711,9.809075456846106,0.0,0.0,0.0,0.0,0.0,0.0,0.0,0.0,0.0
2025/05/20 13:36:33.621107964,1747740993,619696792,mA1/imu,0.4678797909065086,-0.8837916633959196,-0.0008925606171243036,1.756985872592901e-05,0.0,0.0,0.0,0.0,0.0,0.0,0.0,0.0,0.0,0.0008694692078755638,3.3194609300342825e-06,-1.8302911558723627e-06,0.0,0.0,0.0,0.0,0.0,0.0,0.0,0.0,0.0,0.007819228090468143,-0.5850809870040343,9.809669616435748,0.0,0.0,0.0,0.0,0.0,0.0,0.0,0.0,0.0
2025/05/20 13:36:33.670812167,1747740993,669219339,mA1/imu,0.46787983252516785,-0.8837916447046431,-0.0008892771182107162,1.58962144749467e-05,0.0,0.0,0.0,0.0,0.0,0.0,0.0,0.0,0.0,0.0007282756103912377,-3.3653901283740275e-06,-1.9606727742691247e-06,0.0,0.0,0.0,0.0,0.0,0.0,0.0,0.0,0.0,0.008307655469709562,0.03200230795314264,9.810963066473118,0.0,0.0,0.0,0.0,0.0,0.0,0.0,0.0,0.0
2025/05/20 13:36:33.722326572,1747740993,721018896,mA1/imu,0.46787987406263026,-0.8837916189170258,-0.0008930042430577219,1.796055201691647e-05,0.0,0.0,0.0,0.0,0.0,0.0,0.0,0.0,0.0,-0.0008644243748736216,3.502846975089647e-06,-1.9038635172672095e-06,0.0,0.0,0.0,0.0,0.0,0.0,0.0,0.0,0.0,0.007968942016642163,0.5540786776608577,9.810132136621089,0.0,0.0,0.0,0.0,0.0,0.0,0.0,0.0,0.0
2025/05/20 13:36:33.762457955,1747740993,761321220,mA1/imu,0.4678799153872768,-0.8837915939109783,-0.0008960592841478482,1.9678570531561146e-05,0.0,0.0,0.0,0.0,0.0,0.0,0.0,0.0,0.0,-0.0007166824342275822,8.568928271947356e-06,-1.798507951537788e-06,0.0,0.0,0.0,0.0,0.0,0.0,0.0,0.0,0.0,0.007480010677447678,-0.06552137549396579,9.809099355747861,0.0,0.0,0.0,0.0,0.0,0.0,0.0,0.0,0.0
2025/05/20 13:36:33.813470669,1747740993,812451274,mA1/imu,0.46787995732475424,-0.8837915758573398,-0.0008920026842388358,1.7566941551526688e-05,0.0,0.0,0.0,0.0,0.0,0.0,0.0,0.0,0.0,0.0008780722434413635,5.108016189609541e-07,-1.8774707056721005e-06,0.0,0.0,0.0,0.0,0.0,0.0,0.0,0.0,0.0,0.007824402679816302,-0.584893359266002,9.809700624983538,0.0,0.0,0.0,0.0,0.0,0.0,0.0,0.0,0.0
2025/05/20 13:36:33.863525228,1747740993,862256360,mA1/imu,0.4678799998617946,-0.8837915567598252,-0.0008886398107977081,1.5768898070725793e-05,0.0,0.0,0.0,0.0,0.0,0.0,0.0,0.0,0.0,0.000732575791662,-6.437750062822939e-06,-2.0014038066259714e-06,0.0,0.0,0.0,0.0,0.0,0.0,0.0,0.0,0.0,0.008313519537044262,0.03196162741467795,9.810990797879635,0.0,0.0,0.0,0.0,0.0,0.0,0.0,0.0,0.0
2025/05/20 13:36:33.914398246,1747740993,913417302,mA1/imu,0.4678800421111659,-0.8837915306467509,-0.0008923211513738717,1.7722572711591927e-05,0.0,0.0,0.0,0.0,0.0,0.0,0.0,0.0,0.0,-0.0008611438627870566,2.994463947208333e-07,-1.93630275039956e-06,0.0,0.0,0.0,0.0,0.0,0.0,0.0,0.0,0.0,0.007966661005478735,0.5540549212846799,9.810148933406547,0.0,0.0,0.0,0.0,0.0,0.0,0.0,0.0,0.0
2025/05/20 13:36:33.964192652,1747740993,963317913,mA1/imu,0.4678800840117488,-0.8837915053286054,-0.0008953880071885953,1.9351308146960448e-05,0.0,0.0,0.0,0.0,0.0,0.0,0.0,0.0,0.0,-0.0007210074442197338,5.1192842071521155e-06,-1.8262708438780295e-06,0.0,0.0,0.0,0.0,0.0,0.0,0.0,0.0,0.0,0.0074808965174388165,-0.06332686074933716,9.809122608049197,0.0,0.0,0.0,0.0,0.0,0.0,0.0,0.0,0.0
2025/05/20 13:36:34.17696129,1747740994,15122821,mA1/imu,0.46788012648093374,-0.8837914868863914,-0.0008914347471892793,1.7187727742783675e-05,0.0,0.0,0.0,0.0,0.0,0.0,0.0,0.0,0.0,0.0008760695904379265,-3.5223857645076404e-06,-1.9057554107596368e-06,0.0,0.0,0.0,0.0,0.0,0.0,0.0,0.0,0.0,0.007829032851211089,-0.5850738643519227,9.809731959957665,0.0,0.0,0.0,0.0,0.0,0.0,0.0,0.0,0.0
2025/05/20 13:36:34.65979262,1747740994,64862502,mA1/imu,0.46788016955007694,-0.8837914674184532,-0.0008881584779443976,1.531817043179157e-05,0.0,0.0,0.0,0.0,0.0,0.0,0.0,0.0,0.0,0.0007309277668874527,-1.0839252556553195e-05,-2.030106241412612e-06,0.0,0.0,0.0,0.0,0.0,0.0,0.0,0.0,0.0,0.008328393026209585,0.03188634250485901,9.811022006512841,0.0,0.0,0.0,0.0,0.0,0.0,0.0,0.0,0.0
2025/05/20 13:36:34.116989033,1747740994,115916498,mA1/imu,0.4678802123253181,-0.8837914409390307,-0.0008919312806012407,1.7202254697064128e-05,0.0,0.0,0.0,0.0,0.0,0.0,0.0,0.0,0.0,-0.0008633327907881498,-3.6390703254742206e-06,-1.9636164204727333e-06,0.0,0.0,0.0,0.0,0.0,0.0,0.0,0.0,0.0,0.007960177684617696,0.5540244639579087,9.810173169959,0.0,0.0,0.0,0.0,0.0,0.0,0.0,0.0,0.0
2025/05/20 13:36:34.167807779,1747740994,166099978,mA1/imu,0.4678802547204555,-0.8837914152647707,-0.0008950943630114522,1.879085952529862e-05,0.0,0.0,0.0,0.0,0.0,0.0,0.0,0.0,0.0,-0.0007240268282155488,2.644430628123537e-06,-1.8502434094473574e-06,0.0,0.0,0.0,0.0,0.0,0.0,0.0,0.0,0.0,0.007460152310540372,-0.06333943710165107,9.809135262234243,0.0,0.0,0.0,0.0,0.0,0.0,0.0,0.0,0.0
2025/05/20 13:36:34.219051743,1747740994,217248833,mA1/imu,0.46788029764086336,-0.8837913964808571,-0.0008912404422178957,1.66249130675316e-05,0.0,0.0,0.0,0.0,0.0,0.0,0.0,0.0,0.0,0.0008722885611300628,-4.809783598827185e-06,-1.9268536062152444e-06,0.0,0.0,0.0,0.0,0.0,0.0,0.0,0.0,0.0,0.007818884164491653,-0.5850799326863948,9.80972691356479,0.0,0.0,0.0,0.0,0.0,0.0,0.0,0.0,0.0
2025/05/20 13:36:34.268012962,1747740994,266919604,mA1/imu,0.4678803411207694,-0.8837913766917014,-0.0008880648961882407,1.4793239812497638e-05,0.0,0.0,0.0,0.0,0.0,0.0,0.0,0.0,0.0,0.0007263202130154977,-1.072986347642511e-05,-2.04795364396748e-06,0.0,0.0,0.0,0.0,0.0,0.0,0.0,0.0,0.0,0.008312083585838539,0.03188053704914406,9.811020533460532,0.0,0.0,0.0,0.0,0.0,0.0,0.0,0.0,0.0
2025/05/20 13:36:34.319565843,1747740994,318008348,mA1/imu,0.46788038427525536,-0.8837913499333342,-0.0008919154821761047,1.6739975039304115e-05,0.0,0.0,0.0,0.0,0.0,0.0,0.0,0.0,0.0,-0.0008639256175142658,-2.5135744404842e-06,-1.9790010588828737e-06,0.0,0.0,0.0,0.0,0.0,0.0,0.0,0.0,0.0,0.007961229574356802,0.5524570134488024,9.81016067426735,0.0,0.0,0.0,0.0,0.0,0.0,0.0,0.0,0.0
2025/05/20 13:36:34.368776281,1747740994,367805824,mA1/imu,0.46788042714673156,-0.8837913239708114,-0.0008951138327333688,1.8388548752236184e-05,0.0,0.0,0.0,0.0,0.0,0.0,0.0,0.0,0.0,-0.000727239860022446,4.033145399056044e-06,-1.875123633716532e-06,0.0,0.0,0.0,0.0,0.0,0.0,0.0,0.0,0.0,0.00747686535550608,-0.0632067905542647,9.809118921853713,0.0,0.0,0.0,0.0,0.0,0.0,0.0,0.0,0.0
2025/05/20 13:36:34.420416792,1747740994,418776247,mA1/imu,0.4678804707222103,-0.8837913047704704,-0.0008913263561841327,1.6315619840066137e-05,0.0,0.0,0.0,0.0,0.0,0.0,0.0,0.0,0.0,0.000867776480041383,-2.5769509278829756e-06,-1.956324272694469e-06,0.0,0.0,0.0,0.0,0.0,0.0,0.0,0.0,0.0,0.007812938503124006,-0.5850291778711295,9.809703796979436,0.0,0.0,0.0,0.0,0.0,0.0,0.0,0.0,0.0
2025/05/20 13:36:34.470313573,1747740994,468714218,mA1/imu,0.4678805149371862,-0.8837912845150179,-0.0008882254124604754,1.4595367242448533e-05,0.0,0.0,0.0,0.0,0.0,0.0,0.0,0.0,0.0,0.0007214816000500317,-8.087168745371655e-06,-2.0795545000917117e-06,0.0,0.0,0.0,0.0,0.0,0.0,0.0,0.0,0.0,0.008314501393859789,0.031905151552556195,9.810977129185682,0.0,0.0,0.0,0.0,0.0,0.0,0.0,0.0,0.0
2025/05/20 13:36:34.521366411,1747740994,519711066,mA1/imu,0.4678805588635545,-0.8837912572525422,-0.000892167882864425,1.667236093011237e-05,0.0,0.0,0.0,0.0,0.0,0.0,0.0,0.0,0.0,-0.0008730127908686183,5.427039495715751e-07,-2.0113851560602535e-06,0.0,0.0,0.0,0.0,0.0,0.0,0.0,0.0,0.0,0.007966371176624994,0.5540398451259608,9.810128461576927,0.0,0.0,0.0,0.0,0.0,0.0,0.0,0.0,0.0
2025/05/20 13:36:34.571196025,1747740994,569528725,mA1/imu,0.46788060240294227,-0.8837912308081487,-0.0008954888428460899,1.8477276148201995e-05,0.0,0.0,0.0,0.0,0.0,0.0,0.0,0.0,0.0,-0.0007334931147184765,7.444604515934288e-06,-1.8973850200761986e-06,0.0,0.0,0.0,0.0,0.0,0.0,0.0,0.0,0.0,0.007473710438294966,-0.06333461164458276,9.80909621677789,0.0,0.0,0.0,0.0,0.0,0.0,0.0,0.0,0.0
2025/05/20 13:36:34.621726186,1747740994,620785102,mA1/imu,0.46788064646278266,-0.8837912112729872,-0.0008917784086473712,1.653676679861391e-05,0.0,0.0,0.0,0.0,0.0,0.0,0.0,0.0,0.0,0.0008632223202463484,5.259951991673035e-07,-1.973404873715203e-06,0.0,0.0,0.0,0.0,0.0,0.0,0.0,0.0,0.0,0.007819214315778653,-0.5850817248561893,9.80967461183282,0.0,0.0,0.0,0.0,0.0,0.0,0.0,0.0,0.0
2025/05/20 13:36:34.662473970,1747740994,661292923,mA1/imu,0.4678806910844775,-0.8837911908168137,-0.0008886636793175529,1.4892112214324278e-05,0.0,0.0,0.0,0.0,0.0,0.0,0.0,0.0,0.0,0.0007222113012899597,-5.106306538529089e-06,-2.0934071279231235e-06,0.0,0.0,0.0,0.0,0.0,0.0,0.0,0.0,0.0,0.008309566434928684,0.03214918732575199,9.810954991615834,0.0,0.0,0.0,0.0,0.0,0.0,0.0,0.0,0.0
2025/05/20 13:36:34.712245757,1747740994,711251407,mA1/imu,0.4678807353429457,-0.8837911634068756,-0.0008925742513160588,1.703149687557002e-05,0.0,0.0,0.0,0.0,0.0,0.0,0.0,0.0,0.0,-0.000873333201510471,3.235695626638551e-06,-2.022795343723661e-06,0.0,0.0,0.0,0.0,0.0,0.0,0.0,0.0,0.0,0.007959385806356516,0.5541365156499909,9.810107634385377,0.0,0.0,0.0,0.0,0.0,0.0,0.0,0.0,0.0
2025/05/20 13:36:34.762406023,1747740994,761167953,mA1/imu,0.4678807791736542,-0.8837911368287524,-0.000895871489827693,1.8896272160002505e-05,0.0,0.0,0.0,0.0,0.0,0.0,0.0,0.0,0.0,-0.0007337228572437165,9.99728350538527e-06,-1.907599720700587e-06,0.0,0.0,0.0,0.0,0.0,0.0,0.0,0.0,0.0,0.007465905766545261,-0.06329692136527003,9.80907604673701,0.0,0.0,0.0,0.0,0.0,0.0,0.0,0.0,0.0
2025/05/20 13:36:34.813340916,1747740994,812239511,mA1/imu,0.4678833424044027,-0.8837897820442664,-0.0008937744913327917,1.4892655303503104e-05,0.0,0.0,0.0,0.0,0.0,0.0,0.0,0.0,0.0,0.0008115395560795752,-0.00028300870345081925,-0.0002900124255233544,0.0,0.0,0.0,0.0,0.0,0.0,0.0,0.0,0.0,0.025585680897751296,-0.5991401163719803,9.810567238202752,0.0,0.0,0.0,0.0,0.0,0.0,0.0,0.0,0.0
2025/05/20 13:36:34.862939087,1747740994,862064196,mA1/imu,0.4678928289851131,-0.8837847558367081,-0.0008977278013307721,4.4443923803210925e-06,0.0,0.0,0.0,0.0,0.0,0.0,0.0,0.0,0.0,0.0006290837862031358,-0.0004912095373252909,-0.0004700827494610269,0.0,0.0,0.0,0.0,0.0,0.0,0.0,0.0,0.0,0.01275467493293375,0.029979432069207626,9.811132894161808,0.0,0.0,0.0,0.0,0.0,0.0,0.0,0.0,0.0
2025/05/20 13:36:34.915550960,1747740994,913044722,mA1/imu,0.46790449614583285,-0.8837785664274835,-0.0009099418658064374,-3.961962900960597e-06,0.0,0.0,0.0,0.0,0.0,0.0,0.0,0.0,0.0,-0.0009716225828383784,-0.0005490310706421762,-0.0005674671528435012,0.0,0.0,0.0,0.0,0.0,0.0,0.0,0.0,0.0,0.011507344485798454,0.5533425975433176,9.809918339815285,0.0,0.0,0.0,0.0,0.0,0.0,0.0,0.0,0.0
2025/05/20 13:36:34.964649752,1747740994,962961617,mA1/imu,0.46791828546214137,-0.8837712529928896,-0.0009221323815508019,-1.3616859164772136e-05,0.0,0.0,0.0,0.0,0.0,0.0,0.0,0.0,0.0,-0.0008318599831620182,-0.0005694443809566489,-0.0006621844511793853,0.0,0.0,0.0,0.0,0.0,0.0,0.0,0.0,0.0,0.010828618702211183,-0.06407738669326274,9.808926454341384,0.0,0.0,0.0,0.0,0.0,0.0,0.0,0.0,0.0
2025/05/20 13:36:35.15704630,1747740995,14710478,mA1/imu,0.46793414470224876,-0.8837628503193389,-0.0009272961722065242,-2.7184954713348338e-05,0.0,0.0,0.0,0.0,0.0,0.0,0.0,0.0,0.0,0.0007693258320743339,-0.0005682701212533743,-0.0007552393971897613,0.0,0.0,0.0,0.0,0.0,0.0,0.0,0.0,0.0,0.011354088219786267,-0.5872900902999395,9.809929505973056,0.0,0.0,0.0,0.0,0.0,0.0,0.0,0.0,0.0
2025/05/20 13:36:35.66065430,1747740995,64503928,mA1/imu,0.4679520215820221,-0.8837533786495151,-0.0009325446319110135,-3.979164518030297e-05,0.0,0.0,0.0,0.0,0.0,0.0,0.0,0.0,0.0,0.0006341804346200439,-0.0005290513808578346,-0.0008461138333687883,0.0,0.0,0.0,0.0,0.0,0.0,0.0,0.0,0.0,0.011701206325758419,0.029708736193711914,9.811166955315723,0.0,0.0,0.0,0.0,0.0,0.0,0.0,0.0,0.0
2025/05/20 13:36:35.116883824,1747740995,115847456,mA1/imu,0.46797185852137885,-0.8837428624050815,-0.0009436895795494153,-4.722390574771277e-05,0.0,0.0,0.0,0.0,0.0,0.0,0.0,0.0,0.0,-0.0009430379316411762,-0.00043408744908414036,-0.0009332625305838295,0.0,0.0,0.0,0.0,0.0,0.0,0.0,0.0,0.0,0.010510681929129639,0.5534675757399403,9.809900745322466,0.0,0.0,0.0,0.0,0.0,0.0,0.0,0.0,0.0
2025/05/20 13:36:35.167185289,1747740995,165394693,mA1/imu,0.46799360350872443,-0.8837313374359165,-0.0009526315464917026,-5.293186084932215e-05,0.0,0.0,0.0,0.0,0.0,0.0,0.0,0.0,0.0,-0.0007833774802035972,-0.00031372940223382134,-0.0010180243120106903,0.0,0.0,0.0,0.0,0.0,0.0,0.0,0.0,0.0,0.00993410094596874,-0.06391730452247694,9.808945987851768,0.0,0.0,0.0,0.0,0.0,0.0,0.0,0.0,0.0
2025/05/20 13:36:35.217561455,1747740995,216573979,mA1/imu,0.46801721233710636,-0.8837188341512842,-0.0009526435982969643,-5.993891601121181e-05,0.0,0.0,0.0,0.0,0.0,0.0,0.0,0.0,0.0,0.0008348952574428979,-0.00019378718419876942,-0.0011019956136138068,0.0,0.0,0.0,0.0,0.0,0.0,0.0,0.0,0.0,0.010736062159192514,-0.5872117615633636,9.809992642657864,0.0,0.0,0.0,0.0,0.0,0.0,0.0,0.0,0.0
2025/05/20 13:36:35.267907938,1747740995,266304166,mA1/imu,0.4680426398038392,-0.8837053685979076,-0.0009511883322557983,-6.385488382147658e-05,0.0,0.0,0.0,0.0,0.0,0.0,0.0,0.0,0.0,0.0007135775813730197,-6.14303325173899e-05,-0.0011841440210816746,0.0,0.0,0.0,0.0,0.0,0.0,0.0,0.0,0.0,0.011189414266088696,0.02982354611131876,9.811191010805336,0.0,0.0,0.0,0.0,0.0,0.0,0.0,0.0,0.0
2025/05/20 13:36:35.320034912,1747740995,318474070,mA1/imu,0.468069834593579,-0.8836909613203363,-0.0009545122579863424,-6.107887480626953e-05,0.0,0.0,0.0,0.0,0.0,0.0,0.0,0.0,0.0,-0.0008543857022854706,9.527456900948201e-05,-0.0012624391794064473,0.0,0.0,0.0,0.0,0.0,0.0,0.0,0.0,0.0,0.010165593043762269,0.5536080980818948,9.809874233193206,0.0,0.0,0.0,0.0,0.0,0.0,0.0,0.0,0.0
2025/05/20 13:36:35.369626031,1747740995,368217476,mA1/imu,0.4680987539444545,-0.8836756426626586,-0.0009549945192174171,-5.573019711456478e-05,0.0,0.0,0.0,0.0,0.0,0.0,0.0,0.0,0.0,-0.0006900031828606101,0.00024494104990241124,-0.0013388093456299162,0.0,0.0,0.0,0.0,0.0,0.0,0.0,0.0,0.0,0.009656816393367924,-0.06379384312193312,9.808945760908289,0.0,0.0,0.0,0.0,0.0,0.0,0.0,0.0,0.0
2025/05/20 13:36:35.420939013,1747740995,420064663,mA1/imu,0.4681284634165806,-0.8836599147945121,-0.0009456226790847658,-5.0222857307876106e-05,0.0,0.0,0.0,0.0,0.0,0.0,0.0,0.0,0.0,0.0009353644172977137,0.0005146044907789189,-0.0013119604034448104,0.0,0.0,0.0,0.0,0.0,0.0,0.0,0.0,0.0,0.0019433998581187498,-0.5857699091582452,9.809819254854855,0.0,0.0,0.0,0.0,0.0,0.0,0.0,0.0,0.0
2025/05/20 13:36:35.471480771,1747740995,469194629,mA1/imu,0.4681561696417553,-0.8836452516473315,-0.000932047074223605,-3.682031633465548e-05,0.0,0.0,0.0,0.0,0.0,0.0,0.0,0.0,0.0,0.0008187804544874424,0.0008593898214001635,-0.0012145173077428924,0.0,0.0,0.0,0.0,0.0,0.0,0.0,0.0,0.0,0.0027394595127979288,0.031225871427071394,9.81096083243055,0.0,0.0,0.0,0.0,0.0,0.0,0.0,0.0,0.0
2025/05/20 13:36:35.511958406,1747740995,511097877,mA1/imu,0.4681821086715955,-0.8836315204043759,-0.0009214571702706651,-1.357765605801577e-05,0.0,0.0,0.0,0.0,0.0,0.0,0.0,0.0,0.0,-0.0007434592333669857,0.001098431740763472,-0.001157033629326647,0.0,0.0,0.0,0.0,0.0,0.0,0.0,0.0,0.0,0.0057493474393964655,0.5550486698464026,9.809979779193961,0.0,0.0,0.0,0.0,0.0,0.0,0.0,0.0,0.0
2025/05/20 13:36:35.561658719,1747740995,561128757,mA1/imu,0.4682072466369469,-0.8836182151011837,-0.0009077333358850651,1.2579286004734194e-05,0.0,0.0,0.0,0.0,0.0,0.0,0.0,0.0,0.0,-0.0005766868121116318,0.0012333299091255615,-0.0011232271135926818,0.0,0.0,0.0,0.0,0.0,0.0,0.0,0.0,0.0,0.00546561520486581,-0.06246714009137287,9.809094116290018,0.0,0.0,0.0,0.0,0.0,0.0,0.0,0.0,0.0
2025/05/20 13:36:35.613565089,1747740995,612194707,mA1/imu,0.46823166195631444,-0.8836052994403164,-0.0008855567868872615,3.6493750359789566e-05,0.0,0.0,0.0,0.0,0.0,0.0,0.0,0.0,0.0,0.001037872292612303,0.0012737994386980583,-0.0010910273327477359,0.0,0.0,0.0,0.0,0.0,0.0,0.0,0.0,0.0,0.006357455936487012,-0.584790421087997,9.809807613642914,0.0,0.0,0.0,0.0,0.0,0.0,0.0,0.0,0.0
2025/05/20 13:36:35.663198896,1747740995,662036607,mA1/imu,0.4682553705214467,-0.8835927559316964,-0.0008636950749439282,6.061080535824245e-05,0.0,0.0,0.0,0.0,0.0,0.0,0.0,0.0,0.0,0.0009038943549222132,0.001240049887520346,-0.0010595648556629945,0.0,0.0,0.0,0.0,0.0,0.0,0.0,0.0,0.0,0.006979154748744944,0.03222116144839131,9.810934738083317,0.0,0.0,0.0,0.0,0.0,0.0,0.0,0.0,0.0
2025/05/20 13:36:35.716256706,1747740995,713510128,mA1/imu,0.4682790183629258,-0.8835802350685775,-0.0008494423083730003,8.720651671416277e-05,0.0,0.0,0.0,0.0,0.0,0.0,0.0,0.0,0.0,-0.000693566430081877,0.0011581536855024626,-0.0010991097052811516,0.0,0.0,0.0,0.0,0.0,0.0,0.0,0.0,0.0,0.007855569369150061,0.5532775962593683,9.809801433407813,0.0,0.0,0.0,0.0,0.0,0.0,0.0,0.0,0.0
2025/05/20 13:36:35.768078906,1747740995,766598784,mA1/imu,0.46830443714404923,-0.8835667727028218,-0.0008367673915670539,0.00011021364497953317,0.0,0.0,0.0,0.0,0.0,0.0,0.0,0.0,0.0,-0.0005740107725625654,0.0009804955980038436,-0.001182471611491247,0.0,0.0,0.0,0.0,0.0,0.0,0.0,0.0,0.0,0.007326098861753059,-0.06400159827545403,9.808921623696078,0.0,0.0,0.0,0.0,0.0,0.0,0.0,0.0,0.0
2025/05/20 13:36:35.819354477,1747740995,817605629,mA1/imu,0.46833169444250405,-0.8835523393060861,-0.000819662088802181,0.00012586268660564492,0.0,0.0,0.0,0.0,0.0,0.0,0.0,0.0,0.0,0.0009950834655827485,0.0008199076104485885,-0.0012658391447639018,0.0,0.0,0.0,0.0,0.0,0.0,0.0,0.0,0.0,0.005314526261837166,-0.5869750053162439,9.810027413922395,0.0,0.0,0.0,0.0,0.0,0.0,0.0,0.0,0.0
2025/05/20 13:36:35.869013363,1747740995,867579441,mA1/imu,0.4683607432117315,-0.8835369521625326,-0.0008056750573691505,0.00013881354018946263,0.0,0.0,0.0,0.0,0.0,0.0,0.0,0.0,0.0,0.0008180640237080196,0.0006410807880341117,-0.001347395884832658,0.0,0.0,0.0,0.0,0.0,0.0,0.0,0.0,0.0,0.005800760817967293,0.03008198750673579,9.811151727168081,0.0,0.0,0.0,0.0,0.0,0.0,0.0,0.0,0.0
2025/05/20 13:36:35.920757762,1747740995,918635321,mA1/imu,0.46839151998271017,-0.8835206382488748,-0.0008017415348554364,0.00015168091094233273,0.0,0.0,0.0,0.0,0.0,0.0,0.0,0.0,0.0,-0.000811199166227269,0.0004436431380301408,-0.0014236755676478446,0.0,0.0,0.0,0.0,0.0,0.0,0.0,0.0,0.0,0.004967833328474358,0.553534046714016,9.809801222646659,0.0,0.0,0.0,0.0,0.0,0.0,0.0,0.0,0.0
2025/05/20 13:36:35.970011230,1747740995,968683228,mA1/imu,0.46842397425285554,-0.883503431702469,-0.0008006165824670176,0.0001597754941957195,0.0,0.0,0.0,0.0,0.0,0.0,0.0,0.0,0.0,-0.0007094140712395373,0.00022425612401779215,-0.0014981111304769434,0.0,0.0,0.0,0.0,0.0,0.0,0.0,0.0,0.0,0.004413687126206854,-0.06384877747092024,9.80893226318024,0.0,0.0,0.0,0.0,0.0,0.0,0.0,0.0,0.0
2025/05/20 13:36:36.22021112,1747740996,20575983,mA1/imu,0.4684579705763015,-0.8834854106370893,-0.0007959585578018672,0.00015951464164022333,0.0,0.0,0.0,0.0,0.0,0.0,0.0,0.0,0.0,0.0008513839403697233,1.9005799124819508e-05,-0.0015486648893753966,0.0,0.0,0.0,0.0,0.0,0.0,0.0,0.0,0.0,-0.0009994266071756798,-0.5843375278430408,9.809846640189383,0.0,0.0,0.0,0.0,0.0,0.0,0.0,0.0,0.0
2025/05/20 13:36:36.71322833,1747740996,69630493,mA1/imu,0.4684915825101973,-0.883467589935154,-0.0007935391482441574,0.00015794581972238263,0.0,0.0,0.0,0.0,0.0,0.0,0.0,0.0,0.0,0.0006862951866269075,-3.384888798715402e-05,-0.0015044467700869215,0.0,0.0,0.0,0.0,0.0,0.0,0.0,0.0,0.0,-0.00032160352100987083,0.032562430713214005,9.810955213763721,0.0,0.0,0.0,0.0,0.0,0.0,0.0,0.0,0.0
2025/05/20 13:36:36.121676091,1747740996,120842236,mA1/imu,0.46852422427478363,-0.8834502743714073,-0.0007991408374620262,0.00015923165284278365,0.0,0.0,0.0,0.0,0.0,0.0,0.0,0.0,0.0,-0.0009230618171178099,-7.968514312781161e-05,-0.0014609655784838607,0.0,0.0,0.0,0.0,0.0,0.0,0.0,0.0,0.0,-0.00043271815728321457,0.5549642454716738,9.809993021388786,0.0,0.0,0.0,0.0,0.0,0.0,0.0,0.0,0.0
2025/05/20 13:36:36.161647437,1747740996,160574066,mA1/imu,0.468555934487462,-0.8834334512097994,-0.0008051106355588086,0.00015917596847432052,0.0,0.0,0.0,0.0,0.0,0.0,0.0,0.0,0.0,-0.0007972600141606829,-0.00012996842117527375,-0.0014190828844017104,0.0,0.0,0.0,0.0,0.0,0.0,0.0,0.0,0.0,-0.0007688212516048986,-0.06256844789263949,9.809134906012702,0.0,0.0,0.0,0.0,0.0,0.0,0.0,0.0,0.0
2025/05/20 13:36:36.213446441,1747740996,212514187,mA1/imu,0.4685875392148564,-0.8834166889701819,-0.0008048671947872812,0.0001546942955318743,0.0,0.0,0.0,0.0,0.0,0.0,0.0,0.0,0.0,0.0007730284562131659,-0.00015833828016221908,-0.0014695576990496134,0.0,0.0,0.0,0.0,0.0,0.0,0.0,0.0,0.0,-0.0010369113990730972,-0.5893861592907745,9.810592854556816,0.0,0.0,0.0,0.0,0.0,0.0,0.0,0.0,0.0
2025/05/20 13:36:36.263049084,1747740996,261536836,mA1/imu,0.46862013543307324,-0.8833993976810012,-0.0008064367631098782,0.00015001093189642988,0.0,0.0,0.0,0.0,0.0,0.0,0.0,0.0,0.0,0.0006086781610689246,-0.00022109478887011888,-0.0014596361578035897,0.0,0.0,0.0,0.0,0.0,0.0,0.0,0.0,0.0,0.00041536236248647905,0.032654533355855664,9.810983267734446,0.0,0.0,0.0,0.0,0.0,0.0,0.0,0.0,0.0
2025/05/20 13:36:36.313718053,1747740996,313016149,mA1/imu,0.4686517989872497,-0.8833825920809236,-0.0008157296053773724,0.00014798518221860842,0.0,0.0,0.0,0.0,0.0,0.0,0.0,0.0,0.0,-0.0009847254526671912,-0.00026365204436500875,-0.0014173915522676112,0.0,0.0,0.0,0.0,0.0,0.0,0.0,0.0,0.0,0.00018972733025398626,0.555217332450485,9.810023073611669,0.0,0.0,0.0,0.0,0.0,0.0,0.0,0.0,0.0
2025/05/20 13:36:36.363366767,1747740996,362412211,mA1/imu,0.46868254595289127,-0.8833662715876582,-0.0008248778326930807,0.00014462709530650535,0.0,0.0,0.0,0.0,0.0,0.0,0.0,0.0,0.0,-0.0008397210654552151,-0.0002999617554340825,-0.0013757929467882457,0.0,0.0,0.0,0.0,0.0,0.0,0.0,0.0,0.0,-0.00014937897866392456,-0.06220654432475883,9.809159961609248,0.0,0.0,0.0,0.0,0.0,0.0,0.0,0.0,0.0
2025/05/20 13:36:36.415266654,1747740996,414244810,mA1/imu,0.4687115675601594,-0.8833508724280847,-0.0008270520445613469,0.0001363845858222902,0.0,0.0,0.0,0.0,0.0,0.0,0.0,0.0,0.0,0.0007894681979914945,-0.00035913892968269563,-0.0012433087477696704,0.0,0.0,0.0,0.0,0.0,0.0,0.0,0.0,0.0,0.002550350998184175,-0.5815243966335477,9.810550576541386,0.0,0.0,0.0,0.0,0.0,0.0,0.0,0.0,0.0
2025/05/20 13:36:36.465282121,1747740996,463364208,mA1/imu,0.46873787710347065,-0.8833369105762368,-0.0008299956824908957,0.0001268437166209559,0.0,0.0,0.0,0.0,0.0,0.0,0.0,0.0,0.0,0.0006596029254129338,-0.0004023465916790363,-0.001177373307294082,0.0,0.0,0.0,0.0,0.0,0.0,0.0,0.0,0.0,0.0009428121430257357,0.03210139813283191,9.810999416723623,0.0,0.0,0.0,0.0,0.0,0.0,0.0,0.0,0.0
2025/05/20 13:36:36.516029592,1747740996,515045541,mA1/imu,0.4687642114473166,-0.8833229273290232,-0.0008399425998514833,0.00012090280933819004,0.0,0.0,0.0,0.0,0.0,0.0,0.0,0.0,0.0,-0.0009404382821355864,-0.0003813130581581377,-0.0012334357882564431,0.0,0.0,0.0,0.0,0.0,0.0,0.0,0.0,0.0,-0.0012896177582478732,0.5520968870877035,9.809393130187349,0.0,0.0,0.0,0.0,0.0,0.0,0.0,0.0,0.0
2025/05/20 13:36:36.565752817,1747740996,564345723,mA1/imu,0.46879158228021317,-0.8833083938415953,-0.0008487769405441088,0.00011545518735724613,0.0,0.0,0.0,0.0,0.0,0.0,0.0,0.0,0.0,-0.0007846335589162323,-0.0003469706459536596,-0.0012242102931943658,0.0,0.0,0.0,0.0,0.0,0.0,0.0,0.0,0.0,0.00038770880256698646,-0.06194266557098538,9.809151050370085,0.0,0.0,0.0,0.0,0.0,0.0,0.0,0.0,0.0
2025/05/20 13:36:36.617531544,1747740996,616159076,mA1/imu,0.4688181162354793,-0.8832943111486686,-0.0008499777855139727,0.0001063935134774179,0.0,0.0,0.0,0.0,0.0,0.0,0.0,0.0,0.0,0.0008307617233900258,-0.0003327242436198046,-0.0011868592616546718,0.0,0.0,0.0,0.0,0.0,0.0,0.0,0.0,0.0,0.0009011215784098942,-0.5846958106010558,9.809828879350588,0.0,0.0,0.0,0.0,0.0,0.0,0.0,0.0,0.0
2025/05/20 13:36:36.666913181,1747740996,665404170,mA1/imu,0.4688438299342722,-0.8832806627761173,-0.0008510541147140445,9.800632611584286e-05,0.0,0.0,0.0,0.0,0.0,0.0,0.0,0.0,0.0,0.0007068282342096084,-0.00030770845458487036,-0.0011502988960207642,0.0,0.0,0.0,0.0,0.0,0.0,0.0,0.0,0.0,0.0015321108242055898,0.0322696875125111,9.810967384337408,0.0,0.0,0.0,0.0,0.0,0.0,0.0,0.0,0.0
2025/05/20 13:36:36.717459820,1747740996,716320926,mA1/imu,0.46886873960336356,-0.8832674338091798,-0.0008582376438530421,9.3931071410125e-05,0.0,0.0,0.0,0.0,0.0,0.0,0.0,0.0,0.0,-0.0008629774465395546,-0.0002608989318494381,-0.0011140643175615581,0.0,0.0,0.0,0.0,0.0,0.0,0.0,0.0,0.0,0.001368655295647142,0.5553885975392676,9.810027915342497,0.0,0.0,0.0,0.0,0.0,0.0,0.0,0.0,0.0
2025/05/20 13:36:36.767274373,1747740996,766119652,mA1/imu,0.4688928670360681,-0.883254620669204,-0.0008638080700739015,9.024862884226815e-05,0.0,0.0,0.0,0.0,0.0,0.0,0.0,0.0,0.0,-0.0007007205852234726,-0.00021024685894034827,-0.0010787557259173128,0.0,0.0,0.0,0.0,0.0,0.0,0.0,0.0,0.0,0.0010634286780308259,-0.062040251986740715,9.809115386936208,0.0,0.0,0.0,0.0,0.0,0.0,0.0,0.0,0.0
2025/05/20 13:36:36.818072945,1747740996,817080056,mA1/imu,0.46891347211472867,-0.8832436866411502,-0.0008592180806661938,8.615189690987403e-05,0.0,0.0,0.0,0.0,0.0,0.0,0.0,0.0,0.0,0.0009791040062943593,0.00014436238235180417,-0.0007354074167572691,0.0,0.0,0.0,0.0,0.0,0.0,0.0,0.0,0.0,-0.012716597115065382,-0.574260966597795,9.810813188840699,0.0,0.0,0.0,0.0,0.0,0.0,0.0,0.0,0.0
2025/05/20 13:36:36.868270890,1747740996,867122106,mA1/imu,0.46892588623716197,-0.8832371044415748,-0.0008502671415576071,8.717879910086993e-05,0.0,0.0,0.0,0.0,0.0,0.0,0.0,0.0,0.0,0.0008906694592265887,0.0001551878849329469,-0.000495281682495748,0.0,0.0,0.0,0.0,0.0,0.0,0.0,0.0,0.0,0.006387692504489293,0.03440495311713142,9.81166065034118,0.0,0.0,0.0,0.0,0.0,0.0,0.0,0.0,0.0
2025/05/20 13:36:36.920613430,1747740996,919508833,mA1/imu,0.4689296070028824,-0.8832351341612631,-0.0008437686957126137,9.753792095303852e-05,0.0,0.0,0.0,0.0,0.0,0.0,0.0,0.0,0.0,-0.0006216534777045302,0.0010191412510366733,0.00023660544192026156,0.0,0.0,0.0,0.0,0.0,0.0,0.0,0.0,0.0,-0.045622155765353056,0.5697799313325208,9.80910392410459,0.0,0.0,0.0,0.0,0.0,0.0,0.0,0.0,0.0
2025/05/20 13:36:36.970180706,1747740996,968578817,mA1/imu,0.46891831208399976,-0.8832411440943504,-0.0008262821268754767,0.0001234060056756261,0.0,0.0,0.0,0.0,0.0,0.0,0.0,0.0,0.0,-0.0004358907144135061,0.0011643243790525263,0.0005696830403286071,0.0,0.0,0.0,0.0,0.0,0.0,0.0,0.0,0.0,0.006262821391285908,-0.05886434798964428,9.808425386047697,0.0,0.0,0.0,0.0,0.0,0.0,0.0,0.0,0.0
2025/05/20 13:36:37.21536458,1747740997,20373536,mA1/imu,0.4689039658836438,-0.8832487780949061,-0.0008045484845361619,0.00013954992584364891,0.0,0.0,0.0,0.0,0.0,0.0,0.0,0.0,0.0,0.0011623199693698667,0.0008555110562422813,0.0007047254039626189,0.0,0.0,0.0,0.0,0.0,0.0,0.0,0.0,0.0,0.008464717615256188,-0.583130735526899,9.810449504965348,0.0,0.0,0.0,0.0,0.0,0.0,0.0,0.0,0.0
2025/05/20 13:36:37.70958483,1747740997,69826689,mA1/imu,0.46888668417440027,-0.883257967231127,-0.0007865653124289424,0.00014846441600206635,0.0,0.0,0.0,0.0,0.0,0.0,0.0,0.0,0.0,0.0010540508521011986,0.0004998407006547565,0.0008337249113669246,0.0,0.0,0.0,0.0,0.0,0.0,0.0,0.0,0.0,0.00883336136241821,0.037454797190796,9.811603942329818,0.0,0.0,0.0,0.0,0.0,0.0,0.0,0.0,0.0
2025/05/20 13:36:37.122032631,1747740997,120789386,mA1/imu,0.4688666992942223,-0.8832685810615114,-0.0007800448639256098,0.00015340318033035,0.0,0.0,0.0,0.0,0.0,0.0,0.0,0.0,0.0,-0.0005401516901036927,0.00014738725341966084,0.0009304974506024719,0.0,0.0,0.0,0.0,0.0,0.0,0.0,0.0,0.0,0.006150126349625633,0.5345957496386868,9.810084046470793,0.0,0.0,0.0,0.0,0.0,0.0,0.0,0.0,0.0
2025/05/20 13:36:37.162386867,1747740997,161157097,mA1/imu,0.4688464892835389,-0.8832793109453272,-0.0007781478585059684,0.0001510905645980752,0.0,0.0,0.0,0.0,0.0,0.0,0.0,0.0,0.0,-0.0005158412255041546,-0.00017001495543699999,0.0009051400903858245,0.0,0.0,0.0,0.0,0.0,0.0,0.0,0.0,0.0,0.005657132930688361,-0.06119200521577994,9.809136359351264,0.0,0.0,0.0,0.0,0.0,0.0,0.0,0.0,0.0
2025/05/20 13:36:37.212996421,1747740997,212085162,mA1/imu,0.4688268319575239,-0.88328974887133,-0.0007757100953108661,0.000139460899853634,0.0,0.0,0.0,0.0,0.0,0.0,0.0,0.0,0.0,0.000960089830291896,-0.0004883695994040878,0.0008800372377466035,0.0,0.0,0.0,0.0,0.0,0.0,0.0,0.0,0.0,0.00605605427713954,-0.5862907745657823,9.810002457153468,0.0,0.0,0.0,0.0,0.0,0.0,0.0,0.0,0.0
2025/05/20 13:36:37.263323716,1747740997,262156911,mA1/imu,0.468807710528679,-0.8832998970026004,-0.0007793778951400951,0.00012277683312156518,0.0,0.0,0.0,0.0,0.0,0.0,0.0,0.0,0.0,0.0007279982311164498,-0.000772711146614746,0.0008555903351821938,0.0,0.0,0.0,0.0,0.0,0.0,0.0,0.0,0.0,0.006461272511646465,0.0309478482377711,9.811044363476224,0.0,0.0,0.0,0.0,0.0,0.0,0.0,0.0,0.0
2025/05/20 13:36:37.315303502,1747740997,314101371,mA1/imu,0.46878910975275223,-0.8833097574427728,-0.000794905265948576,0.00010540033205307461,0.0,0.0,0.0,0.0,0.0,0.0,0.0,0.0,0.0,-0.0009509759168275264,-0.0009913557855265906,0.0008320581899577847,0.0,0.0,0.0,0.0,0.0,0.0,0.0,0.0,0.0,0.005578012356645276,0.5541702637192785,9.810051824519523,0.0,0.0,0.0,0.0,0.0,0.0,0.0,0.0,0.0
2025/05/20 13:36:37.364253931,1747740997,363108571,mA1/imu,0.4687710171654687,-0.8833193442071886,-0.000813927830853572,8.447792746081801e-05,0.0,0.0,0.0,0.0,0.0,0.0,0.0,0.0,0.0,-0.0008933918318158045,-0.001152780343349857,0.0008092216426822666,0.0,0.0,0.0,0.0,0.0,0.0,0.0,0.0,0.0,0.005009713142936148,-0.06321973040822051,9.809216653217229,0.0,0.0,0.0,0.0,0.0,0.0,0.0,0.0,0.0
2025/05/20 13:36:37.416023385,1747740997,414497280,mA1/imu,0.4687534184556101,-0.8833286715084924,-0.0008291083490445818,5.7935889795985055e-05,0.0,0.0,0.0,0.0,0.0,0.0,0.0,0.0,0.0,0.0006281446964687992,-0.0012558518317602049,0.0007870364118462149,0.0,0.0,0.0,0.0,0.0,0.0,0.0,0.0,0.0,0.005042756325132332,-0.5858477581911276,9.80987535828236,0.0,0.0,0.0,0.0,0.0,0.0,0.0,0.0,0.0
2025/05/20 13:36:37.465691159,1747740997,464132954,mA1/imu,0.4687362959208538,-0.8833377419850733,-0.0008470474091878894,3.1333634085916836e-05,0.0,0.0,0.0,0.0,0.0,0.0,0.0,0.0,0.0,0.00042063331281175166,-0.0012858980542336798,0.0007656508266828325,0.0,0.0,0.0,0.0,0.0,0.0,0.0,0.0,0.0,0.00546073305793359,0.03120440240859283,9.810944780006292,0.0,0.0,0.0,0.0,0.0,0.0,0.0,0.0,0.0
2025/05/20 13:36:37.516241236,1747740997,515570105,mA1/imu,0.46871963033895775,-0.8833465605592998,-0.0008729207138520732,9.612140931798067e-06,0.0,0.0,0.0,0.0,0.0,0.0,0.0,0.0,0.0,-0.0012179485013050718,-0.0012259607319155868,0.0007453455287848086,0.0,0.0,0.0,0.0,0.0,0.0,0.0,0.0,0.0,0.004687072397966096,0.5543803669810436,9.80998638522434,0.0,0.0,0.0,0.0,0.0,0.0,0.0,0.0,0.0
2025/05/20 13:36:37.566869438,1747740997,565141711,mA1/imu,0.4687034023514235,-0.8833551461841206,-0.0008979063194017871,-9.92330284502554e-06,0.0,0.0,0.0,0.0,0.0,0.0,0.0,0.0,0.0,-0.0011085094540484255,-0.001100980223523354,0.0007260333748446835,0.0,0.0,0.0,0.0,0.0,0.0,0.0,0.0,0.0,0.0041672170769548635,-0.06307142938564046,9.809127227016658,0.0,0.0,0.0,0.0,0.0,0.0,0.0,0.0,0.0
2025/05/20 13:36:37.617688052,1747740997,616063121,mA1/imu,0.46868759142536176,-0.8833635177768222,-0.0009144584408800941,-2.950611867411811e-05,0.0,0.0,0.0,0.0,0.0,0.0,0.0,0.0,0.0,0.0004742729095795891,-0.0009260788758325081,0.0007076944398551231,0.0,0.0,0.0,0.0,0.0,0.0,0.0,0.0,0.0,0.004320747661419171,-0.5856794178793051,9.809770888474239,0.0,0.0,0.0,0.0,0.0,0.0,0.0,0.0,0.0
2025/05/20 13:36:37.666779956,1747740997,665899185,mA1/imu,0.4686721774220619,-0.8833716798086216,-0.0009292362569246637,-4.40742123471053e-05,0.0,0.0,0.0,0.0,0.0,0.0,0.0,0.0,0.0,0.0003341201626759677,-0.0007024207756409081,0.0006902483396434216,0.0,0.0,0.0,0.0,0.0,0.0,0.0,0.0,0.0,0.004858639983523302,0.03135969742061975,9.810873822506913,0.0,0.0,0.0,0.0,0.0,0.0,0.0,0.0,0.0
2025/05/20 13:36:37.718143168,1747740997,716877318,mA1/imu,0.4686574456482777,-0.8833794754216396,-0.0009479181778207438,-4.9933440433876217e-05,0.0,0.0,0.0,0.0,0.0,0.0,0.0,0.0,0.0,-0.0012307788447198829,-0.0004783117419358942,0.0006384646471973821,0.0,0.0,0.0,0.0,0.0,0.0,0.0,0.0,0.0,0.007096108892967355,0.5555235345093644,9.809958462320095,0.0,0.0,0.0,0.0,0.0,0.0,0.0,0.0,0.0
2025/05/20 13:36:37.767774281,1747740997,766873230,mA1/imu,0.4686438228372596,-0.8833866868254108,-0.0009624038054990834,-5.133242926511235e-05,0.0,0.0,0.0,0.0,0.0,0.0,0.0,0.0,0.0,-0.0010501373869256224,-0.00019783669211614134,0.0006106547189364269,0.0,0.0,0.0,0.0,0.0,0.0,0.0,0.0,0.0,0.00388859722582118,-0.06314425617767724,9.80909084381274,0.0,0.0,0.0,0.0,0.0,0.0,0.0,0.0,0.0
2025/05/20 13:36:37.820824665,1747740997,819254427,mA1/imu,0.4686247914829406,-0.8833967853308052,-0.0009605355317911938,-4.296814762464878e-05,0.0,0.0,0.0,0.0,0.0,0.0,0.0,0.0,0.0,0.0006645492933531565,0.000966711520914693,0.0012450783072187471,0.0,0.0,0.0,0.0,0.0,0.0,0.0,0.0,0.0,-0.03948851904258704,-0.5759174674765534,9.810718520141982,0.0,0.0,0.0,0.0,0.0,0.0,0.0,0.0,0.0
2025/05/20 13:36:37.870663408,1747740997,868658619,mA1/imu,0.468591670693014,-0.8834143721563636,-0.0009450001314025958,-1.4123002084908364e-05,0.0,0.0,0.0,0.0,0.0,0.0,0.0,0.0,0.0,0.0006230602989491862,0.001302939146125844,0.0015437753956041506,0.0,0.0,0.0,0.0,0.0,0.0,0.0,0.0,0.0,0.011048500440484608,0.033719628372051974,9.81157046700449,0.0,0.0,0.0,0.0,0.0,0.0,0.0,0.0,0.0
2025/05/20 13:36:37.921108420,1747740997,919671214,mA1/imu,0.46855440488119693,-0.8834341509562732,-0.0009328547510622887,1.9303097070525583e-05,0.0,0.0,0.0,0.0,0.0,0.0,0.0,0.0,0.0,-0.0008289271001936274,0.0015621866704560142,0.00185187298524961,0.0,0.0,0.0,0.0,0.0,0.0,0.0,0.0,0.0,-0.007441878051926637,0.5673311330531261,9.809010808603352,0.0,0.0,0.0,0.0,0.0,0.0,0.0,0.0,0.0
2025/05/20 13:36:37.971034229,1747740997,969550370,mA1/imu,0.46851119066314434,-0.8834570860654705,-0.0009156543508989617,5.367700082244256e-05,0.0,0.0,0.0,0.0,0.0,0.0,0.0,0.0,0.0,-0.0005742282211288585,0.0014272619226230153,0.001975735091965637,0.0,0.0,0.0,0.0,0.0,0.0,0.0,0.0,0.0,0.013288218206848022,-0.05889028117763429,9.808433850040117,0.0,0.0,0.0,0.0,0.0,0.0,0.0,0.0,0.0
2025/05/20 13:36:38.22653527,1747740998,21001750,mA1/imu,0.46846463886126843,-0.8834817945617511,-0.0008913913119785661,7.896871702399753e-05,0.0,0.0,0.0,0.0,0.0,0.0,0.0,0.0,0.0,0.0011330572404484843,0.0014021951897474636,0.002263335659600353,0.0,0.0,0.0,0.0,0.0,0.0,0.0,0.0,0.0,-0.0013932028372653825,-0.5771167818457915,9.81079002053992,0.0,0.0,0.0,0.0,0.0,0.0,0.0,0.0,0.0
2025/05/20 13:36:38.61314235,1747740998,60492792,mA1/imu,0.4684077722133571,-0.8835119723680245,-0.0008613702452620461,0.00010795269058676716,0.0,0.0,0.0,0.0,0.0,0.0,0.0,0.0,0.0,0.001156762902792348,0.0018687977184695,0.002897636572842888,0.0,0.0,0.0,0.0,0.0,0.0,0.0,0.0,0.0,-0.03098345352741939,0.04224658315209432,9.811830166490932,0.0,0.0,0.0,0.0,0.0,0.0,0.0,0.0,0.0
2025/05/20 13:36:38.114019727,1747740998,112558285,mA1/imu,0.4683359690667446,-0.8835500596900174,-0.0008303329938744111,0.00015048986368310934,0.0,0.0,0.0,0.0,0.0,0.0,0.0,0.0,0.0,-0.0003839889448567822,0.0018800329467600608,0.003307784652331794,0.0,0.0,0.0,0.0,0.0,0.0,0.0,0.0,0.0,0.01569110502589664,0.5579376037926065,9.809384475403863,0.0,0.0,0.0,0.0,0.0,0.0,0.0,0.0,0.0
2025/05/20 13:36:38.162608691,1747740998,161807406,mA1/imu,0.46826232439334237,-0.8835891094835014,-0.0008057705565895893,0.0001785768946332722,0.0,0.0,0.0,0.0,0.0,0.0,0.0,0.0,0.0,-0.00023509185907764858,0.0011671400303406743,0.003354080378747787,0.0,0.0,0.0,0.0,0.0,0.0,0.0,0.0,0.0,0.015076253236630598,-0.05992034480755554,9.808458191910429,0.0,0.0,0.0,0.0,0.0,0.0,0.0,0.0,0.0
2025/05/20 13:36:38.214350625,1747740998,213534866,mA1/imu,0.46818797518940347,-0.883628525740442,-0.0007835077037374745,0.00018574578755555733,0.0,0.0,0.0,0.0,0.0,0.0,0.0,0.0,0.0,0.0013424501944635425,0.0003314685849368467,0.0033657548222425686,0.0,0.0,0.0,0.0,0.0,0.0,0.0,0.0,0.0,0.019669454058615185,-0.5842351172541626,9.810697702958878,0.0,0.0,0.0,0.0,0.0,0.0,0.0,0.0,0.0
2025/05/20 13:36:38.263821246,1747740998,262904093,mA1/imu,0.4681132852823352,-0.8836681080861252,-0.0007720472740080541,0.00017560374192662732,0.0,0.0,0.0,0.0,0.0,0.0,0.0,0.0,0.0,0.0011545507822191927,-0.00046490580396192264,0.0033961479375248646,0.0,0.0,0.0,0.0,0.0,0.0,0.0,0.0,0.0,0.017642471727460016,0.0321920241427229,9.81195021325758,0.0,0.0,0.0,0.0,0.0,0.0,0.0,0.0,0.0
2025/05/20 13:36:38.315647034,1747740998,314692175,mA1/imu,0.4680376849096343,-0.8837081521272583,-0.0007770425794661624,0.00015353529293106756,0.0,0.0,0.0,0.0,0.0,0.0,0.0,0.0,0.0,-0.0004412744218680969,-0.0011517146038190695,0.003437058206436553,0.0,0.0,0.0,0.0,0.0,0.0,0.0,0.0,0.0,0.014139848403803997,0.5387908130002605,9.809491848214101,0.0,0.0,0.0,0.0,0.0,0.0,0.0,0.0,0.0
2025/05/20 13:36:38.364684639,1747740998,363779895,mA1/imu,0.46796120051487805,-0.8837486503056534,-0.0007900169865448179,0.00011734040525626169,0.0,0.0,0.0,0.0,0.0,0.0,0.0,0.0,0.0,-0.00039823076304658123,-0.0017450919769903693,0.003477537572530641,0.0,0.0,0.0,0.0,0.0,0.0,0.0,0.0,0.0,0.013080111696659047,-0.05888660713659425,9.808556723533101,0.0,0.0,0.0,0.0,0.0,0.0,0.0,0.0,0.0
2025/05/20 13:36:38.417698784,1747740998,416306344,mA1/imu,0.467883860262151,-0.8837895912706826,-0.0008044976606291844,6.671807671737692e-05,0.0,0.0,0.0,0.0,0.0,0.0,0.0,0.0,0.0,0.0010913029585529078,-0.0022441808296541094,0.003513875848009535,0.0,0.0,0.0,0.0,0.0,0.0,0.0,0.0,0.0,0.01457548380908715,-0.5844639790446918,9.810756403077946,0.0,0.0,0.0,0.0,0.0,0.0,0.0,0.0,0.0
2025/05/20 13:36:38.467174623,1747740998,466320654,mA1/imu,0.4678056792806194,-0.8838309584733612,-0.0008265578185976445,8.889906693357319e-06,0.0,0.0,0.0,0.0,0.0,0.0,0.0,0.0,0.0,0.0008373124014421461,-0.002595625332674279,0.0035495654918666244,0.0,0.0,0.0,0.0,0.0,0.0,0.0,0.0,0.0,0.014687794085280731,0.032176127878717244,9.811835787741172,0.0,0.0,0.0,0.0,0.0,0.0,0.0,0.0,0.0
2025/05/20 13:36:38.518435097,1747740998,517437981,mA1/imu,0.4677278245605625,-0.8838721290349476,-0.0008598848328453927,-4.738298246866328e-05,0.0,0.0,0.0,0.0,0.0,0.0,0.0,0.0,0.0,-0.0008708841939407487,-0.0025643794189647877,0.0034588304327915756,0.0,0.0,0.0,0.0,0.0,0.0,0.0,0.0,0.0,0.0023505281454881156,0.5522193072679004,9.80942516669267,0.0,0.0,0.0,0.0,0.0,0.0,0.0,0.0,0.0
2025/05/20 13:36:38.568449672,1747740998,567274267,mA1/imu,0.4676530353451546,-0.8839116651515052,-0.0008929100580309819,-9.7227492264839e-05,0.0,0.0,0.0,0.0,0.0,0.0,0.0,0.0,0.0,-0.0008678854271969928,-0.0022220719704652845,0.0033390146193851625,0.0,0.0,0.0,0.0,0.0,0.0,0.0,0.0,0.0,-0.0007395583231485457,-0.06539853008340644,9.80852602793438,0.0,0.0,0.0,0.0,0.0,0.0,0.0,0.0,0.0
2025/05/20 13:36:38.620968013,1747740998,619167745,mA1/imu,0.46758111183491563,-0.8839496838698263,-0.000916811814561497,-0.0001403486901383778,0.0,0.0,0.0,0.0,0.0,0.0,0.0,0.0,0.0,0.0006246568551276696,-0.0017987051998824483,0.003179094791630247,0.0,0.0,0.0,0.0,0.0,0.0,0.0,0.0,0.0,0.002603866131122179,-0.5840757887475264,9.810603367513927,0.0,0.0,0.0,0.0,0.0,0.0,0.0,0.0,0.0
2025/05/20 13:36:38.671146186,1747740998,668877154,mA1/imu,0.46751277045059936,-0.8839858039021994,-0.0009373563296930649,-0.0001712544855630363,0.0,0.0,0.0,0.0,0.0,0.0,0.0,0.0,0.0,0.00039951515038473025,-0.001257416664423803,0.0030428317685789064,0.0,0.0,0.0,0.0,0.0,0.0,0.0,0.0,0.0,0.0005438579381160241,0.031860019195267104,9.811664856856378,0.0,0.0,0.0,0.0,0.0,0.0,0.0,0.0,0.0
2025/05/20 13:36:38.722053895,1747740998,720645905,mA1/imu,0.4674453861254729,-0.8840214153230563,-0.0009569179353767256,-0.00018041145419836257,0.0,0.0,0.0,0.0,0.0,0.0,0.0,0.0,0.0,-0.0012263146690222036,-0.00021380077006907065,0.003115032580644579,0.0,0.0,0.0,0.0,0.0,0.0,0.0,0.0,0.0,-0.01920425945156981,0.5588920570453448,9.80927491448429,0.0,0.0,0.0,0.0,0.0,0.0,0.0,0.0,0.0
2025/05/20 13:36:38.762357637,1747740998,760834620,mA1/imu,0.4673739635367491,-0.8840591752351893,-0.0009624327901208264,-0.0001631366016026854,0.0,0.0,0.0,0.0,0.0,0.0,0.0,0.0,0.0,-0.0010975073281030178,0.0009812846002205827,0.0033064858797588995,0.0,0.0,0.0,0.0,0.0,0.0,0.0,0.0,0.0,-0.018504453290458307,-0.05789375129064759,9.808343753440036,0.0,0.0,0.0,0.0,0.0,0.0,0.0,0.0,0.0
2025/05/20 13:36:38.813066862,1747740998,811976638,mA1/imu,0.4672973978864965,-0.8840996697110334,-0.000948699769619449,-0.00012615109375038633,0.0,0.0,0.0,0.0,0.0,0.0,0.0,0.0,0.0,0.0004944716202125052,0.0019205710821835538,0.0035804530248997536,0.0,0.0,0.0,0.0,0.0,0.0,0.0,0.0,0.0,-0.012344487717889138,-0.584101052179919,9.810284563340042,0.0,0.0,0.0,0.0,0.0,0.0,0.0,0.0,0.0
2025/05/20 13:36:38.862998947,1747740998,862059871,mA1/imu,0.4672145126548641,-0.884143505038847,-0.0009255708200990168,-7.057589750303486e-05,0.0,0.0,0.0,0.0,0.0,0.0,0.0,0.0,0.0,0.0003669126949424918,0.0026772706032072197,0.003870880399813492,0.0,0.0,0.0,0.0,0.0,0.0,0.0,0.0,0.0,-0.010861224927725855,0.03347795414510213,9.811452989688876,0.0,0.0,0.0,0.0,0.0,0.0,0.0,0.0,0.0
2025/05/20 13:36:38.914340441,1747740998,912974455,mA1/imu,0.4671300264370751,-0.8841881707317915,-0.0009039480243454457,-4.103088504341752e-06,0.0,0.0,0.0,0.0,0.0,0.0,0.0,0.0,0.0,-0.0011324706090362466,0.0027507621095191857,0.0037836048270373525,0.0,0.0,0.0,0.0,0.0,0.0,0.0,0.0,0.0,0.006568586723174622,0.5648523408125349,9.809219165014254,0.0,0.0,0.0,0.0,0.0,0.0,0.0,0.0,0.0
2025/05/20 13:36:38.963706027,1747740998,962913413,mA1/imu,0.46704727269369944,-0.8842319081204738,-0.0008798456974130583,6.002126197201618e-05,0.0,0.0,0.0,0.0,0.0,0.0,0.0,0.0,0.0,-0.0008567931398294701,0.0026901504570375945,0.003728656328097806,0.0,0.0,0.0,0.0,0.0,0.0,0.0,0.0,0.0,0.004105464316683583,-0.06363555356764287,9.808252555023989,0.0,0.0,0.0,0.0,0.0,0.0,0.0,0.0,0.0
2025/05/20 13:36:39.15505520,1747740999,14596837,mA1/imu,0.46696539811506244,-0.8842751746293945,-0.000848055026734112,0.00011532591543054213,0.0,0.0,0.0,0.0,0.0,0.0,0.0,0.0,0.0,0.0008271403843865451,0.0024403159223924157,0.0036908295059628468,0.0,0.0,0.0,0.0,0.0,0.0,0.0,0.0,0.0,0.007172256333276743,-0.5765449575774971,9.81021200819834,0.0,0.0,0.0,0.0,0.0,0.0,0.0,0.0,0.0
2025/05/20 13:36:39.65539053,1747740999,63826531,mA1/imu,0.4668843291189663,-0.8843180011507624,-0.0008183223868057411,0.0001625186891185897,0.0,0.0,0.0,0.0,0.0,0.0,0.0,0.0,0.0,0.0007890833266232975,0.0020463757306263836,0.003655965161711547,0.0,0.0,0.0,0.0,0.0,0.0,0.0,0.0,0.0,0.00804646855657323,0.040713460317264555,9.811543358788363,0.0,0.0,0.0,0.0,0.0,0.0,0.0,0.0,0.0
2025/05/20 13:36:39.116511895,1747740999,115172747,mA1/imu,0.4668040115336207,-0.8843604114888103,-0.0007979318190958038,0.0002017728264042568,0.0,0.0,0.0,0.0,0.0,0.0,0.0,0.0,0.0,-0.0006732157284942153,0.00155672991574092,0.0036213332564582063,0.0,0.0,0.0,0.0,0.0,0.0,0.0,0.0,0.0,0.007280345058191109,0.5669749173785964,9.809366820654162,0.0,0.0,0.0,0.0,0.0,0.0,0.0,0.0,0.0
2025/05/20 13:36:39.168555856,1747740999,165158817,mA1/imu,0.4667243819811482,-0.8844024476814767,-0.0007811407614746644,0.00022719691628809538,0.0,0.0,0.0,0.0,0.0,0.0,0.0,0.0,0.0,-0.0003515337906066525,0.0009789831158612062,0.0035897503801035715,0.0,0.0,0.0,0.0,0.0,0.0,0.0,0.0,0.0,0.007046600191799694,-0.08267393733587564,9.808426687411455,0.0,0.0,0.0,0.0,0.0,0.0,0.0,0.0,0.0
2025/05/20 13:36:39.217646085,1747740999,216507328,mA1/imu,0.466645349594296,-0.8844441659410617,-0.000761882919545657,0.0002336006293351548,0.0,0.0,0.0,0.0,0.0,0.0,0.0,0.0,0.0,0.001274091720292679,0.000324969479669028,0.0035647267751893305,0.0,0.0,0.0,0.0,0.0,0.0,0.0,0.0,0.0,0.008613093599237898,-0.5735284451313207,9.810408514084436,0.0,0.0,0.0,0.0,0.0,0.0,0.0,0.0,0.0
2025/05/20 13:36:39.267973367,1747740999,266384717,mA1/imu,0.4665668369616972,-0.8844855982244575,-0.0007499133342087299,0.0002254131139340262,0.0,0.0,0.0,0.0,0.0,0.0,0.0,0.0,0.0,0.0011719760428409204,-0.00034036018401686533,0.0035431159882977656,0.0,0.0,0.0,0.0,0.0,0.0,0.0,0.0,0.0,0.009045342375098863,0.042005453293029835,9.811718166396124,0.0,0.0,0.0,0.0,0.0,0.0,0.0,0.0,0.0
2025/05/20 13:36:39.318549299,1747740999,317654296,mA1/imu,0.46648879165041407,-0.8845267661350775,-0.0007514475405088795,0.00020635346464341255,0.0,0.0,0.0,0.0,0.0,0.0,0.0,0.0,0.0,-0.000378067743080895,-0.0009512393592199007,0.0035208102864280498,0.0,0.0,0.0,0.0,0.0,0.0,0.0,0.0,0.0,0.007937969615311374,0.5663635925954023,9.809514268928087,0.0,0.0,0.0,0.0,0.0,0.0,0.0,0.0,0.0
2025/05/20 13:36:39.368699482,1747740999,367321020,mA1/imu,0.4664111529022372,-0.8845677094580611,-0.0007575457344806705,0.0001730808637200107,0.0,0.0,0.0,0.0,0.0,0.0,0.0,0.0,0.0,-0.00010721319312806009,-0.0015024728621497612,0.0035019558989921058,0.0,0.0,0.0,0.0,0.0,0.0,0.0,0.0,0.0,0.007393948854220827,-0.04418444244465944,9.80856971202837,0.0,0.0,0.0,0.0,0.0,0.0,0.0,0.0,0.0
2025/05/20 13:36:39.420159861,1747740999,419049463,mA1/imu,0.46633380296659266,-0.8846084943970897,-0.0007617906309251845,0.0001246044301376681,0.0,0.0,0.0,0.0,0.0,0.0,0.0,0.0,0.0,0.001430060937642616,-0.001971485694399365,0.003491606812796857,0.0,0.0,0.0,0.0,0.0,0.0,0.0,0.0,0.0,0.007313684371286141,-0.5726488695974373,9.81084455532004,0.0,0.0,0.0,0.0,0.0,0.0,0.0,0.0,0.0
2025/05/20 13:36:39.469343257,1747740999,468241253,mA1/imu,0.46625666538438104,-0.8846491512757497,-0.0007723079900933763,6.83527723839149e-05,0.0,0.0,0.0,0.0,0.0,0.0,0.0,0.0,0.0,0.001235813350556003,-0.0023254456785336396,0.0034840571277429465,0.0,0.0,0.0,0.0,0.0,0.0,0.0,0.0,0.0,0.007680279213306599,0.04286377591655531,9.811786351811886,0.0,0.0,0.0,0.0,0.0,0.0,0.0,0.0,0.0
2025/05/20 13:36:39.520457299,1747740999,519363460,mA1/imu,0.46617967464490384,-0.8846897085809594,-0.0007939544375625007,1.073591913858398e-05,0.0,0.0,0.0,0.0,0.0,0.0,0.0,0.0,0.0,-0.0004064900349248253,-0.002513074292097739,0.003477208768183116,0.0,0.0,0.0,0.0,0.0,0.0,0.0,0.0,0.0,0.006565116504573111,0.5670591586210096,9.809603629801567,0.0,0.0,0.0,0.0,0.0,0.0,0.0,0.0,0.0
2025/05/20 13:36:39.571613943,1747740999,569256255,mA1/imu,0.4661027446181969,-0.8847302190196368,-0.0008176850187887409,-4.903121063213158e-05,0.0,0.0,0.0,0.0,0.0,0.0,0.0,0.0,0.0,-0.00033023615312563,-0.0025635540378853286,0.003474156400538297,0.0,0.0,0.0,0.0,0.0,0.0,0.0,0.0,0.0,0.006025921303676792,-0.05055684900221604,9.808917103869794,0.0,0.0,0.0,0.0,0.0,0.0,0.0,0.0,0.0
2025/05/20 13:36:39.621442916,1747740999,620185686,mA1/imu,0.4660257799455511,-0.8847707418852605,-0.0008331216899350294,-0.00011241973271579689,0.0,0.0,0.0,0.0,0.0,0.0,0.0,0.0,0.0,0.0014536928881281018,-0.002487899294458119,0.0034787560612375237,0.0,0.0,0.0,0.0,0.0,0.0,0.0,0.0,0.0,0.006359934434422095,-0.5551052503584595,9.809907742340936,0.0,0.0,0.0,0.0,0.0,0.0,0.0,0.0,0.0
2025/05/20 13:36:39.661441415,1747740999,660452331,mA1/imu,0.46594859449290815,-0.884811363911177,-0.0008538619406183167,-0.00016882983433534702,0.0,0.0,0.0,0.0,0.0,0.0,0.0,0.0,0.0,0.0006123721987472724,-0.002294501414085464,0.003491989076923361,0.0,0.0,0.0,0.0,0.0,0.0,0.0,0.0,0.0,0.006926996191338439,0.02339817232028108,9.809739902838066,0.0,0.0,0.0,0.0,0.0,0.0,0.0,0.0,0.0
2025/05/20 13:36:39.712209306,1747740999,711439288,mA1/imu,0.46587155208003717,-0.8848518947654482,-0.0008803191203610443,-0.0002152458583431569,0.0,0.0,0.0,0.0,0.0,0.0,0.0,0.0,0.0,-0.0011103833660953929,-0.0020430848377503523,0.0034610688107709502,0.0,0.0,0.0,0.0,0.0,0.0,0.0,0.0,0.0,0.011180368195997792,0.5261218257350385,9.810446574327832,0.0,0.0,0.0,0.0,0.0,0.0,0.0,0.0,0.0
2025/05/20 13:36:39.762110939,1747740999,761301586,mA1/imu,0.4657950721677184,-0.8848921256950777,-0.0009004300407224003,-0.00025661811787068355,0.0,0.0,0.0,0.0,0.0,0.0,0.0,0.0,0.0,7.603141326382297e-05,-0.001687005800951263,0.0034618467644019647,0.0,0.0,0.0,0.0,0.0,0.0,0.0,0.0,0.0,0.007530047745545889,-0.6297442139268916,9.809632860524285,0.0,0.0,0.0,0.0,0.0,0.0,0.0,0.0,0.0
2025/05/20 13:36:39.814157975,1747740999,812735040,mA1/imu,0.465718666860573,-0.8849323167084331,-0.0009130407565829768,-0.00029075631153017143,0.0,0.0,0.0,0.0,0.0,0.0,0.0,0.0,0.0,0.0007238860528868411,-0.001290991353533411,0.003427767889496737,0.0,0.0,0.0,0.0,0.0,0.0,0.0,0.0,0.0,0.009770166231821155,-0.5804608459260682,9.810824198323283,0.0,0.0,0.0,0.0,0.0,0.0,0.0,0.0,0.0
2025/05/20 13:36:39.863464490,1747740999,862289835,mA1/imu,0.46564371990521747,-0.8849717406046147,-0.0009187177877837179,-0.0003168622673173777,0.0,0.0,0.0,0.0,0.0,0.0,0.0,0.0,0.0,0.0007964712974955039,-0.0008583526681343172,0.0033611375073282776,0.0,0.0,0.0,0.0,0.0,0.0,0.0,0.0,0.0,0.010981706511781403,0.05958979085745059,9.811399486667717,0.0,0.0,0.0,0.0,0.0,0.0,0.0,0.0,0.0
2025/05/20 13:36:39.913987466,1747740999,913210692,mA1/imu,0.46556936084214495,-0.8850108455213473,-0.000932002811552886,-0.00032392188208304475,0.0,0.0,0.0,0.0,0.0,0.0,0.0,0.0,0.0,-0.0006282866098965894,-0.00026673049436772635,0.0033647061328089083,0.0,0.0,0.0,0.0,0.0,0.0,0.0,0.0,0.0,0.007179563116004411,0.602090260836812,9.811251705948136,0.0,0.0,0.0,0.0,0.0,0.0,0.0,0.0,0.0
2025/05/20 13:36:39.964180284,1747740999,963239095,mA1/imu,0.46549464440788313,-0.8850501409333432,-0.00093977527307037,-0.00031762223473084255,0.0,0.0,0.0,0.0,0.0,0.0,0.0,0.0,0.0,-0.0007690738792708926,0.00029833899754531907,0.0033814995826118486,0.0,0.0,0.0,0.0,0.0,0.0,0.0,0.0,0.0,0.00858079626210576,0.35879290816124565,9.809839870608567,0.0,0.0,0.0,0.0,0.0,0.0,0.0,0.0,0.0
2025/05/20 13:36:40.16088259,1747741000,14897876,mA1/imu,0.4654204478176933,-0.8850891684516221,-0.0009374064674602316,-0.0003031697692186034,0.0,0.0,0.0,0.0,0.0,0.0,0.0,0.0,0.0,-0.0011215398616595458,0.0006753647002759454,0.003301717045679697,0.0,0.0,0.0,0.0,0.0,0.0,0.0,0.0,0.0,0.017488495933127852,0.5771359982135785,9.811273676750975,0.0,0.0,0.0,0.0,0.0,0.0,0.0,0.0,0.0
2025/05/20 13:36:40.66218274,1747741000,64185431,mA1/imu,0.4653500390895913,-0.8851261952027709,-0.0009386000302299821,-0.0002805622306862288,0.0,0.0,0.0,0.0,0.0,0.0,0.0,0.0,0.0,-0.0009951361188095243,0.0008725073388805253,0.0031049009728516064,0.0,0.0,0.0,0.0,0.0,0.0,0.0,0.0,0.0,0.01543969635608852,0.5933168011692123,9.81060583747835,0.0,0.0,0.0,0.0,0.0,0.0,0.0,0.0,0.0
2025/05/20 13:36:40.116872614,1747741000,115486635,mA1/imu,0.46528333680715644,-0.8851612633509713,-0.0009442805905142705,-0.0002503730758076477,0.0,0.0,0.0,0.0,0.0,0.0,0.0,0.0,0.0,-0.0018975983171000245,0.001030110059005331,0.0029565880511012183,0.0,0.0,0.0,0.0,0.0,0.0,0.0,0.0,0.0,0.017190142877371514,0.5317400237362813,9.811377766994987,0.0,0.0,0.0,0.0,0.0,0.0,0.0,0.0,0.0
2025/05/20 13:36:40.166730575,1747741000,165219876,mA1/imu,0.4652200789098989,-0.8851945250713948,-0.0009392618846101916,-0.00022079358525987615,0.0,0.0,0.0,0.0,0.0,0.0,0.0,0.0,0.0,-0.0010511301194134357,0.001243809658958424,0.0027901126085191187,0.0,0.0,0.0,0.0,0.0,0.0,0.0,0.0,0.0,0.012578999969333864,-0.03488994951233047,9.80726929314925,0.0,0.0,0.0,0.0,0.0,0.0,0.0,0.0,0.0
2025/05/20 13:36:40.217504510,1747741000,216286899,mA1/imu,0.4651607271492895,-0.8852257283605699,-0.0009343647984957546,-0.00018635682442314086,0.0,0.0,0.0,0.0,0.0,0.0,0.0,0.0,0.0,-0.0011087005310362488,0.001347118455793982,0.002610458932167197,0.0,0.0,0.0,0.0,0.0,0.0,0.0,0.0,0.0,0.016220517089491182,-0.045010438493267205,9.809891358030484,0.0,0.0,0.0,0.0,0.0,0.0,0.0,0.0,0.0
2025/05/20 13:36:40.267138216,1747741000,266100587,mA1/imu,0.46510542204548533,-0.8852547957551867,-0.0009332188609423363,-0.00014858967294265464,0.0,0.0,0.0,0.0,0.0,0.0,0.0,0.0,0.0,-0.0010684231009117195,0.0013692792854362633,0.002429140551367808,0.0,0.0,0.0,0.0,0.0,0.0,0.0,0.0,0.0,0.015684178432213848,-0.03897210299322167,9.81077290654537,0.0,0.0,0.0,0.0,0.0,0.0,0.0,0.0,0.0
2025/05/20 13:36:40.318994367,1747741000,317262146,mA1/imu,0.4650539827212789,-0.885281833973547,-0.000924334471106983,-0.00011487948142204071,0.0,0.0,0.0,0.0,0.0,0.0,0.0,0.0,0.0,-5.311888181544207e-05,0.0013590061760997546,0.002257389058626882,0.0,0.0,0.0,0.0,0.0,0.0,0.0,0.0,0.0,0.014585406314722138,0.026070864868164192,9.80977924412098,0.0,0.0,0.0,0.0,0.0,0.0,0.0,0.0,0.0
2025/05/20 13:36:40.368067456,1747741000,366977354,mA1/imu,0.4650062397191575,-0.8853069239522663,-0.0009170075304576709,-8.075651427048457e-05,0.0,0.0,0.0,0.0,0.0,0.0,0.0,0.0,0.0,-8.284931141757534e-05,0.001324529599306804,0.002093325655568708,0.0,0.0,0.0,0.0,0.0,0.0,0.0,0.0,0.0,0.014059733571522178,0.01738260546066396,9.80989967355302,0.0,0.0,0.0,0.0,0.0,0.0,0.0,0.0,0.0
2025/05/20 13:36:40.418972800,1747741000,417875821,mA1/imu,0.4649610942657979,-0.8853306424116758,-0.0009122474089858508,-4.723077659005972e-05,0.0,0.0,0.0,0.0,0.0,0.0,0.0,0.0,0.0,-0.0014247838734055753,0.0012336863267618065,0.002016462093047867,0.0,0.0,0.0,0.0,0.0,0.0,0.0,0.0,0.0,0.014272993365221762,0.5486349381574306,9.810668755900632,0.0,0.0,0.0,0.0,0.0,0.0,0.0,0.0,0.0
2025/05/20 13:36:40.468656943,1747741000,467717936,mA1/imu,0.464917221933703,-0.8853537003407544,-0.0008952564490343763,-2.362777695944315e-05,0.0,0.0,0.0,0.0,0.0,0.0,0.0,0.0,0.0,0.0012949669552434469,0.0010816580180553564,0.0019618482155100967,0.0,0.0,0.0,0.0,0.0,0.0,0.0,0.0,0.0,0.013485323934810858,-0.5321087756214575,9.808575875901516,0.0,0.0,0.0,0.0,0.0,0.0,0.0,0.0,0.0
2025/05/20 13:36:40.519793677,1747741000,518739299,mA1/imu,0.4648745394023494,-0.885376116839286,-0.0008912587542242629,1.968116796105155e-06,0.0,0.0,0.0,0.0,0.0,0.0,0.0,0.0,0.0,-0.0009568413659784939,0.0008961249362744695,0.001908483579366668,0.0,0.0,0.0,0.0,0.0,0.0,0.0,0.0,0.0,0.013998110672190847,0.4401484163073596,9.810730944761433,0.0,0.0,0.0,0.0,0.0,0.0,0.0,0.0,0.0
2025/05/20 13:36:40.570626720,1747741000,569123177,mA1/imu,0.46483299747251844,-0.8853979408315855,-0.0008778133579664172,1.6601529371362215e-05,0.0,0.0,0.0,0.0,0.0,0.0,0.0,0.0,0.0,-0.0008910936336962979,0.0006832814324438645,0.0018567941147387365,0.0,0.0,0.0,0.0,0.0,0.0,0.0,0.0,0.0,0.013556637361522562,0.39273200421927495,9.809291452856694,0.0,0.0,0.0,0.0,0.0,0.0,0.0,0.0,0.0
2025/05/20 13:36:40.621855594,1747741000,620752154,mA1/imu,0.4647908761412006,-0.8854200638343014,-0.0008667146607464905,2.8657522371237432e-05,0.0,0.0,0.0,0.0,0.0,0.0,0.0,0.0,0.0,-0.00019851722809209908,0.0006967878881988631,0.002000958273450734,0.0,0.0,0.0,0.0,0.0,0.0,0.0,0.0,0.0,-0.002632856577462132,-0.03206168208980511,9.808897029561814,0.0,0.0,0.0,0.0,0.0,0.0,0.0,0.0,0.0
2025/05/20 13:36:40.671293028,1747741000,670030489,mA1/imu,0.4647457024549712,-0.8854437845987588,-0.0008571387466144692,4.0966220927492094e-05,0.0,0.0,0.0,0.0,0.0,0.0,0.0,0.0,0.0,8.348085680301347e-05,0.0004788545700234019,0.002022845867809384,0.0,0.0,0.0,0.0,0.0,0.0,0.0,0.0,0.0,0.01380229168953321,-0.647122878994312,9.809074318560043,0.0,0.0,0.0,0.0,0.0,0.0,0.0,0.0,0.0
2025/05/20 13:36:40.712009682,1747741000,711038175,mA1/imu,0.4647011514994703,-0.8854671866274092,-0.0008364697551768792,3.898148231570728e-05,0.0,0.0,0.0,0.0,0.0,0.0,0.0,0.0,0.0,0.00030201189521686736,0.0002180906714237579,0.0020144578699527616,0.0,0.0,0.0,0.0,0.0,0.0,0.0,0.0,0.0,0.013239712018256623,-0.011677629539057472,9.809680293254761,0.0,0.0,0.0,0.0,0.0,0.0,0.0,0.0,0.0
2025/05/20 13:36:40.761727966,1747741000,760871608,mA1/imu,0.4646570716188004,-0.8854903322478893,-0.0008223452558770188,3.222488902460217e-05,0.0,0.0,0.0,0.0,0.0,0.0,0.0,0.0,0.0,-0.00029657410918275054,-0.00010250790140595627,0.0019734869924166337,0.0,0.0,0.0,0.0,0.0,0.0,0.0,0.0,0.0,0.013903107744059149,0.5724423613757088,9.81095126697575,0.0,0.0,0.0,0.0,0.0,0.0,0.0,0.0,0.0
2025/05/20 13:36:40.813190978,1747741000,812031701,mA1/imu,0.46461353445372217,-0.8855131865887959,-0.0008121748596850437,1.875562999579611e-05,0.0,0.0,0.0,0.0,0.0,0.0,0.0,0.0,0.0,0.00010399770493295282,-0.0003635870617103633,0.001984154852745107,0.0,0.0,0.0,0.0,0.0,0.0,0.0,0.0,0.0,0.008146313256615762,0.5997404688912724,9.8125088864818,0.0,0.0,0.0,0.0,0.0,0.0,0.0,0.0,0.0
2025/05/20 13:36:40.862681064,1747741000,861712255,mA1/imu,0.46456974480930363,-0.8855361683257245,-0.0008042354587042945,-3.738688466516527e-07,0.0,0.0,0.0,0.0,0.0,0.0,0.0,0.0,0.0,0.00190293702161424,-0.000680545731435368,0.001955914134554274,0.0,0.0,0.0,0.0,0.0,0.0,0.0,0.0,0.0,0.015233309160722679,-0.49516427067122026,9.809400173133563,0.0,0.0,0.0,0.0,0.0,0.0,0.0,0.0,0.0
2025/05/20 13:36:40.913552217,1747741000,912665282,mA1/imu,0.46452662045306414,-0.8855587911226315,-0.000803605979275027,-2.394385998587999e-05,0.0,0.0,0.0,0.0,0.0,0.0,0.0,0.0,0.0,0.0015132049356706583,-0.0008946122131837576,0.001963153202577361,0.0,0.0,0.0,0.0,0.0,0.0,0.0,0.0,0.0,0.009907450677973554,-0.38997983406163145,9.808959886730658,0.0,0.0,0.0,0.0,0.0,0.0,0.0,0.0,0.0
2025/05/20 13:36:40.963523071,1747741000,962643113,mA1/imu,0.4644833694794427,-0.8855814755673629,-0.0008042678353803994,-5.2556681716164194e-05,0.0,0.0,0.0,0.0,0.0,0.0,0.0,0.0,0.0,0.0015343609176227601,-0.0011364753163477215,0.0019318744151428419,0.0,0.0,0.0,0.0,0.0,0.0,0.0,0.0,0.0,0.01518757432485735,-0.5610212290401394,9.809389705523955,0.0,0.0,0.0,0.0,0.0,0.0,0.0,0.0,0.0
2025/05/20 13:36:41.15275311,1747741001,14028355,mA1/imu,0.46444125575796,-0.8856035563849729,-0.0008084493224227722,-8.531090652688633e-05,0.0,0.0,0.0,0.0,0.0,0.0,0.0,0.0,0.0,0.00034466926203924737,-0.001306753628588176,0.0018811539559057146,0.0,0.0,0.0,0.0,0.0,0.0,0.0,0.0,0.0,0.014657205140252223,-0.22452784450066318,9.809890980203587,0.0,0.0,0.0,0.0,0.0,0.0,0.0,0.0,0.0
2025/05/20 13:36:41.65428312,1747741001,64451336,mA1/imu,0.4644002344635589,-0.8856250578971145,-0.0008152021348260392,-0.00012041762130868256,0.0,0.0,0.0,0.0,0.0,0.0,0.0,0.0,0.0,0.000248581459404606,-0.0014042902345362473,0.001832134989184831,0.0,0.0,0.0,0.0,0.0,0.0,0.0,0.0,0.0,0.013929082873942997,-0.6376776236936887,9.810395150994145,0.0,0.0,0.0,0.0,0.0,0.0,0.0,0.0,0.0
2025/05/20 13:36:41.116206372,1747741001,115377912,mA1/imu,0.46436026570731503,-0.8856460062376815,-0.0008186146962528904,-0.00015854795962568825,0.0,0.0,0.0,0.0,0.0,0.0,0.0,0.0,0.0,0.0011346507564949644,-0.0014121016577582153,0.001785102372725512,0.0,0.0,0.0,0.0,0.0,0.0,0.0,0.0,0.0,0.01334256338510193,-0.5708931026802522,9.810326588593817,0.0,0.0,0.0,0.0,0.0,0.0,0.0,0.0,0.0
2025/05/20 13:36:41.167220531,1747741001,165337234,mA1/imu,0.4643213194343789,-0.885666410612429,-0.0008272015653142339,-0.00019279311229952425,0.0,0.0,0.0,0.0,0.0,0.0,0.0,0.0,0.0,0.0008603284286751018,-0.0013408734587873408,0.001739612768630258,0.0,0.0,0.0,0.0,0.0,0.0,0.0,0.0,0.0,0.01360031939994038,0.04568731917030343,9.8112264650984,0.0,0.0,0.0,0.0,0.0,0.0,0.0,0.0,0.0
2025/05/20 13:36:41.218189971,1747741001,216720315,mA1/imu,0.46427816912037284,-0.8856890147854576,-0.0008403905387669563,-0.00021097474294488438,0.0,0.0,0.0,0.0,0.0,0.0,0.0,0.0,0.0,-0.000888992598792931,-0.0003035503874974173,0.002271783396265604,0.0,0.0,0.0,0.0,0.0,0.0,0.0,0.0,0.0,-0.03024522815406107,0.5657364522787587,9.81011508739393,0.0,0.0,0.0,0.0,0.0,0.0,0.0,0.0,0.0
2025/05/20 13:36:41.267286228,1747741001,266120457,mA1/imu,0.46422462730612035,-0.885717076622406,-0.0008440516911951508,-0.00020774671008515308,0.0,0.0,0.0,0.0,0.0,0.0,0.0,0.0,0.0,-0.0008531892525671634,8.778613431985927e-05,0.0023957188139328315,0.0,0.0,0.0,0.0,0.0,0.0,0.0,0.0,0.0,0.01442161531891325,-0.04659137248788587,9.809259662651193,0.0,0.0,0.0,0.0,0.0,0.0,0.0,0.0,0.0
2025/05/20 13:36:41.318650102,1747741001,317467915,mA1/imu,0.46417229722881087,-0.8857445032660313,-0.0008436969301979353,-0.00020394810592142172,0.0,0.0,0.0,0.0,0.0,0.0,0.0,0.0,0.0,0.0005744123182581667,0.00017697643006802117,0.002342019258850947,0.0,0.0,0.0,0.0,0.0,0.0,0.0,0.0,0.0,0.014350746439385732,-0.5702864788898284,9.809947756424352,0.0,0.0,0.0,0.0,0.0,0.0,0.0,0.0,0.0
2025/05/20 13:36:41.369435296,1747741001,367552153,mA1/imu,0.46412113786193604,-0.885771310682587,-0.0008462493216017787,-0.0001960190788674439,0.0,0.0,0.0,0.0,0.0,0.0,0.0,0.0,0.0,0.0002904111695034579,0.00026336557194286654,0.002289970061078227,0.0,0.0,0.0,0.0,0.0,0.0,0.0,0.0,0.0,0.014746300249960015,0.0456033473802019,9.811115684392274,0.0,0.0,0.0,0.0,0.0,0.0,0.0,0.0,0.0
2025/05/20 13:36:41.420057999,1747741001,418466592,mA1/imu,0.46407111399188705,-0.8857975148110501,-0.0008547510832066877,-0.00018251981293685262,0.0,0.0,0.0,0.0,0.0,0.0,0.0,0.0,0.0,-0.0013249148797779633,0.00035164599734218197,0.0022392185110811074,0.0,0.0,0.0,0.0,0.0,0.0,0.0,0.0,0.0,0.014586365211432566,0.5738157724846127,9.809948226491402,0.0,0.0,0.0,0.0,0.0,0.0,0.0,0.0,0.0
2025/05/20 13:36:41.470610710,1747741001,469200664,mA1/imu,0.46402219721825844,-0.8858231309501742,-0.0008684446042707945,-0.0001642143104838419,0.0,0.0,0.0,0.0,0.0,0.0,0.0,0.0,0.0,-0.0014485867741031893,0.0004212778938657777,0.0021896790401036005,0.0,0.0,0.0,0.0,0.0,0.0,0.0,0.0,0.0,0.014014456820665488,-0.05625545316957182,9.809094769155246,0.0,0.0,0.0,0.0,0.0,0.0,0.0,0.0,0.0
2025/05/20 13:36:41.522537149,1747741001,520863146,mA1/imu,0.46397402024199963,-0.8858483628627537,-0.0008744639137187483,-0.00014787399745632757,0.0,0.0,0.0,0.0,0.0,0.0,0.0,0.0,0.0,-0.0007584736770054695,0.0005182359996898026,0.0021808218084225766,0.0,0.0,0.0,0.0,0.0,0.0,0.0,0.0,0.0,0.01138481156726091,-0.15881520782571074,9.81059333817654,0.0,0.0,0.0,0.0,0.0,0.0,0.0,0.0,0.0
2025/05/20 13:36:41.571159811,1747741001,570204355,mA1/imu,0.46392605960153543,-0.8858734797156766,-0.0008787935817302367,-0.00012992640927203493,0.0,0.0,0.0,0.0,0.0,0.0,0.0,0.0,0.0,-0.0007510647475273404,0.0005598576661408338,0.0021467129817703996,0.0,0.0,0.0,0.0,0.0,0.0,0.0,0.0,0.0,0.014766087608363272,0.2726323723864782,9.810773927430423,0.0,0.0,0.0,0.0,0.0,0.0,0.0,0.0,0.0
2025/05/20 13:36:41.612579835,1747741001,611679816,mA1/imu,0.4638791929240312,-0.8858980181806803,-0.0008851135522703175,-0.00011103914633943417,0.0,0.0,0.0,0.0,0.0,0.0,0.0,0.0,0.0,-6.849655988640165e-05,0.0005452149268169434,0.0020969730795336165,0.0,0.0,0.0,0.0,0.0,0.0,0.0,0.0,0.0,0.014489035384950725,0.04613245914909426,9.809676650491914,0.0,0.0,0.0,0.0,0.0,0.0,0.0,0.0,0.0
2025/05/20 13:36:41.662107511,1747741001,661137244,mA1/imu,0.46383340367599885,-0.8859219857723094,-0.0008946619342445433,-9.132146149518408e-05,0.0,0.0,0.0,0.0,0.0,0.0,0.0,0.0,0.0,-0.0009775452433236596,0.0005083579116776398,0.002048711316204215,0.0,0.0,0.0,0.0,0.0,0.0,0.0,0.0,0.0,0.014072186136813863,-0.023107384130274772,9.809531719324085,0.0,0.0,0.0,0.0,0.0,0.0,0.0,0.0,0.0
2025/05/20 13:36:41.713857427,1747741001,712463974,mA1/imu,0.46378871533080557,-0.8859453734222967,-0.0009041276769580419,-7.346136460810709e-05,0.0,0.0,0.0,0.0,0.0,0.0,0.0,0.0,0.0,-0.0016160786291509468,0.0004177010134742724,0.001997255875697933,0.0,0.0,0.0,0.0,0.0,0.0,0.0,0.0,0.0,0.015421304322248803,0.28222349875697994,9.81041290126184,0.0,0.0,0.0,0.0,0.0,0.0,0.0,0.0,0.0
2025/05/20 13:36:41.764475064,1747741001,763354050,mA1/imu,0.46374517235772056,-0.8859681621539162,-0.0009094458699217183,-6.060305121953957e-05,0.0,0.0,0.0,0.0,0.0,0.0,0.0,0.0,0.0,-0.0010823584616360148,0.0003064381844068162,0.001946121321881775,0.0,0.0,0.0,0.0,0.0,0.0,0.0,0.0,0.0,0.01571519589074229,0.4621612316130482,9.81083036292704,0.0,0.0,0.0,0.0,0.0,0.0,0.0,0.0,0.0
2025/05/20 13:36:41.816602268,1747741001,815103123,mA1/imu,0.463702742824372,-0.8859903692572935,-0.0009104914010475971,-5.372046184542263e-05,0.0,0.0,0.0,0.0,0.0,0.0,0.0,0.0,0.0,0.00048376681913407725,0.0001697207906563794,0.0018955634600424677,0.0,0.0,0.0,0.0,0.0,0.0,0.0,0.0,0.0,0.01473455090484759,-0.23385108589508893,9.809518424982395,0.0,0.0,0.0,0.0,0.0,0.0,0.0,0.0,0.0
2025/05/20 13:36:41.866905346,1747741001,864834136,mA1/imu,0.4636614216060903,-0.8860119945796784,-0.0009104908061057587,-5.0809952719173376e-05,0.0,0.0,0.0,0.0,0.0,0.0,0.0,0.0,0.0,0.000817150839565449,5.203824564219109e-05,0.001845775019099784,0.0,0.0,0.0,0.0,0.0,0.0,0.0,0.0,0.0,0.014997929663289814,0.06834511550479692,9.809465198328567,0.0,0.0,0.0,0.0,0.0,0.0,0.0,0.0,0.0
2025/05/20 13:36:41.916865631,1747741001,915962774,mA1/imu,0.46362060444463915,-0.8860333488375544,-0.000915186657973926,-4.8119407974418034e-05,0.0,0.0,0.0,0.0,0.0,0.0,0.0,0.0,0.0,0.0010173441433979117,-6.651141599119142e-06,0.0018587505496816133,0.0,0.0,0.0,0.0,0.0,0.0,0.0,0.0,0.0,0.01057853106640482,0.0766334670889558,9.810270632781618,0.0,0.0,0.0,0.0,0.0,0.0,0.0,0.0,0.0
2025/05/20 13:36:41.967093388,1747741001,965881105,mA1/imu,0.46357975524814604,-0.8860547172493415,-0.0009199910876411191,-4.669750574629153e-05,0.0,0.0,0.0,0.0,0.0,0.0,0.0,0.0,0.0,-0.00032213678809791423,-7.816256169382085e-05,0.0018243386894180146,0.0,0.0,0.0,0.0,0.0,0.0,0.0,0.0,0.0,0.014299746039043281,-0.025330065957999186,9.809817859795071,0.0,0.0,0.0,0.0,0.0,0.0,0.0,0.0,0.0
2025/05/20 13:36:42.18541420,1747741002,17248072,mA1/imu,0.4635399833909108,-0.8860755298388675,-0.0009145166369080998,-5.364741359529878e-05,0.0,0.0,0.0,0.0,0.0,0.0,0.0,0.0,0.0,0.00035809869403558047,-0.00018526152429562483,0.0017758247614051497,0.0,0.0,0.0,0.0,0.0,0.0,0.0,0.0,0.0,0.014490352223586814,0.009651298380267827,9.80898750429228,0.0,0.0,0.0,0.0,0.0,0.0,0.0,0.0,0.0
2025/05/20 13:36:42.67952031,1747741002,66746064,mA1/imu,0.46350126720083284,-0.8860957884637902,-0.0009082553508337771,-6.357809110634828e-05,0.0,0.0,0.0,0.0,0.0,0.0,0.0,0.0,0.0,0.0019825079635818303,-0.0002722514894442913,0.001728722618709474,0.0,0.0,0.0,0.0,0.0,0.0,0.0,0.0,0.0,0.013998396844344339,-0.5182535227807498,9.809411358645868,0.0,0.0,0.0,0.0,0.0,0.0,0.0,0.0,0.0
2025/05/20 13:36:42.120269668,1747741002,118690353,mA1/imu,0.46346357508750835,-0.886115507564656,-0.0009034944418253103,-7.428546963038341e-05,0.0,0.0,0.0,0.0,0.0,0.0,0.0,0.0,0.0,2.3895647259635897e-05,-0.0003191878679158202,0.0016834280548340482,0.0,0.0,0.0,0.0,0.0,0.0,0.0,0.0,0.0,0.014231410748193578,0.08576103461389552,9.810311376839566,0.0,0.0,0.0,0.0,0.0,0.0,0.0,0.0,0.0
2025/05/20 13:36:42.168577579,1747741002,167694970,mA1/imu,0.4634268527708727,-0.8861347230268878,-0.0008925772618817878,-8.990426156217386e-05,0.0,0.0,0.0,0.0,0.0,0.0,0.0,0.0,0.0,0.0009152540714209804,-0.0003711983676728748,0.001639855568229314,0.0,0.0,0.0,0.0,0.0,0.0,0.0,0.0,0.0,0.013883202959287804,-0.1835442986719103,9.810423985045432,0.0,0.0,0.0,0.0,0.0,0.0,0.0,0.0,0.0
2025/05/20 13:36:42.220091950,1747741002,218686732,mA1/imu,0.46339074011033815,-0.8861536199537552,-0.0008788534257795046,-0.00010695561985743512,0.0,0.0,0.0,0.0,0.0,0.0,0.0,0.0,0.0,0.0005892829106252984,-0.0003186481492538502,0.0016363483062550323,0.0,0.0,0.0,0.0,0.0,0.0,0.0,0.0,0.0,0.010673661969210536,-0.008618571406345097,9.809930970095973,0.0,0.0,0.0,0.0,0.0,0.0,0.0,0.0,0.0
2025/05/20 13:36:42.269595385,1747741002,268539792,mA1/imu,0.46335471689470603,-0.8861724654030233,-0.0008679017069720954,-0.00012099413822613147,0.0,0.0,0.0,0.0,0.0,0.0,0.0,0.0,0.0,0.000535037522463028,-0.0002868360340111227,0.0016092773039091024,0.0,0.0,0.0,0.0,0.0,0.0,0.0,0.0,0.0,0.013233627285787714,-0.17641042735746884,9.810386235179779,0.0,0.0,0.0,0.0,0.0,0.0,0.0,0.0,0.0
2025/05/20 13:36:42.321838995,1747741002,320612103,mA1/imu,0.4633195882617458,-0.8861908503754874,-0.0008463138465897008,-0.00013998789208631362,0.0,0.0,0.0,0.0,0.0,0.0,0.0,0.0,0.0,0.0009487552748691938,-0.0002566927144953954,0.0015691835800004713,0.0,0.0,0.0,0.0,0.0,0.0,0.0,0.0,0.0,0.013143840886111627,0.3284102678800542,9.81029624149509,0.0,0.0,0.0,0.0,0.0,0.0,0.0,0.0,0.0
2025/05/20 13:36:42.370874547,1747741002,369669898,mA1/imu,0.4632853363080092,-0.8862087700905515,-0.0008300197370233324,-0.00015506064235704207,0.0,0.0,0.0,0.0,0.0,0.0,0.0,0.0,0.0,0.0009965361575675928,-0.00021019145218011194,0.0015299449997824763,0.0,0.0,0.0,0.0,0.0,0.0,0.0,0.0,0.0,0.01285097593327665,0.016787887567268754,9.80959781883452,0.0,0.0,0.0,0.0,0.0,0.0,0.0,0.0,0.0
2025/05/20 13:36:42.422192125,1747741002,420744269,mA1/imu,0.46325161891286604,-0.886226411208148,-0.0008105041713887269,-0.00016951319564325332,0.0,0.0,0.0,0.0,0.0,0.0,0.0,0.0,0.0,0.0010504497421022318,-9.87301450179258e-05,0.001522453321088452,0.0,0.0,0.0,0.0,0.0,0.0,0.0,0.0,0.0,0.012237247773854328,0.3328060268934877,9.809851817307367,0.0,0.0,0.0,0.0,0.0,0.0,0.0,0.0,0.0
2025/05/20 13:36:42.461667582,1747741002,460580385,mA1/imu,0.46321832268287094,-0.8862438244648807,-0.000798582229502276,-0.00017718677208372407,0.0,0.0,0.0,0.0,0.0,0.0,0.0,0.0,0.0,0.0009634649055406316,-2.3777685394042438e-05,0.0014877068422341063,0.0,0.0,0.0,0.0,0.0,0.0,0.0,0.0,0.0,0.012894417453896708,0.021004099293463793,9.810477017315517,0.0,0.0,0.0,0.0,0.0,0.0,0.0,0.0,0.0
2025/05/20 13:36:42.512458202,1747741002,511563534,mA1/imu,0.46318584034450455,-0.8862608110406627,-0.0007866340244340993,-0.00018255085222254825,0.0,0.0,0.0,0.0,0.0,0.0,0.0,0.0,0.0,0.0006649471618246042,5.4949525621292814e-05,0.0014520265417489627,0.0,0.0,0.0,0.0,0.0,0.0,0.0,0.0,0.0,0.013378779389914245,-0.6229744251805108,9.810766351589495,0.0,0.0,0.0,0.0,0.0,0.0,0.0,0.0,0.0
2025/05/20 13:36:42.563341488,1747741002,561451354,mA1/imu,0.46315413117819965,-0.8862773956405678,-0.000770282854670079,-0.00018818465206352577,0.0,0.0,0.0,0.0,0.0,0.0,0.0,0.0,0.0,1.6325546675926783e-05,0.0001405480769339781,0.0014171574176571403,0.0,0.0,0.0,0.0,0.0,0.0,0.0,0.0,0.0,0.012536870117868696,-0.37540683104373535,9.80929066551308,0.0,0.0,0.0,0.0,0.0,0.0,0.0,0.0,0.0
2025/05/20 13:36:42.613841612,1747741002,612937852,mA1/imu,0.4631227003231869,-0.8862938343750196,-0.0007530802365571276,-0.0001909563890547429,0.0,0.0,0.0,0.0,0.0,0.0,0.0,0.0,0.0,0.0008627945931315999,0.0002982201247778345,0.0014371495949875468,0.0,0.0,0.0,0.0,0.0,0.0,0.0,0.0,0.0,0.009301779892866124,-0.3819693986531232,9.808799620953392,0.0,0.0,0.0,0.0,0.0,0.0,0.0,0.0,0.0
2025/05/20 13:36:42.663123720,1747741002,662190335,mA1/imu,0.4630909185390974,-0.8863104519275362,-0.0007409471417480017,-0.00018699720576755474,0.0,0.0,0.0,0.0,0.0,0.0,0.0,0.0,0.0,0.0008353467289603483,0.00037856910806242667,0.001421609653098456,0.0,0.0,0.0,0.0,0.0,0.0,0.0,0.0,0.0,0.012993225614931,-0.5826038374081843,9.80908425289069,0.0,0.0,0.0,0.0,0.0,0.0,0.0,0.0,0.0
2025/05/20 13:36:42.714627652,1747741002,713807693,mA1/imu,0.46306047880529727,-0.886326363359983,-0.0007339627480932128,-0.00017855072274350895,0.0,0.0,0.0,0.0,0.0,0.0,0.0,0.0,0.0,-0.0009900699566146648,0.00044437965287079265,0.001312102740011261,0.0,0.0,0.0,0.0,0.0,0.0,0.0,0.0,0.0,0.013013909328994381,-0.08008866951824532,9.80967138890734,0.0,0.0,0.0,0.0,0.0,0.0,0.0,0.0,0.0
2025/05/20 13:36:42.764387430,1747741002,763067233,mA1/imu,0.46303252025191327,-0.8863409793958298,-0.0007241004876860671,-0.00017062029944262674,0.0,0.0,0.0,0.0,0.0,0.0,0.0,0.0,0.0,0.00027817520378665706,0.0005004584700145971,0.0012509903334582335,0.0,0.0,0.0,0.0,0.0,0.0,0.0,0.0,0.0,0.010304579865730617,0.03613926370032944,9.811116677600944,0.0,0.0,0.0,0.0,0.0,0.0,0.0,0.0,0.0
2025/05/20 13:36:42.815775017,1747741002,814037070,mA1/imu,0.4630047539666289,-0.8863554872247218,-0.0007240327972482142,-0.00015442615009783107,0.0,0.0,0.0,0.0,0.0,0.0,0.0,0.0,0.0,-0.0016425665590364407,0.0006424245272223856,0.0012716985327068976,0.0,0.0,0.0,0.0,0.0,0.0,0.0,0.0,0.0,0.007247593675962663,0.5440342390614453,9.81134660696214,0.0,0.0,0.0,0.0,0.0,0.0,0.0,0.0,0.0
2025/05/20 13:36:42.865849148,1747741002,863986071,mA1/imu,0.4629765854644786,-0.8863702039893625,-0.0007243033531267363,-0.0001348189925157845,0.0,0.0,0.0,0.0,0.0,0.0,0.0,0.0,0.0,0.00045918384653741064,0.000690084165228608,0.0012609475912987488,0.0,0.0,0.0,0.0,0.0,0.0,0.0,0.0,0.0,0.010602985130959442,-0.5570690209777756,9.807940489792516,0.0,0.0,0.0,0.0,0.0,0.0,0.0,0.0,0.0
2025/05/20 13:36:42.916008263,1747741002,914953318,mA1/imu,0.46294902557199213,-0.8863846008152707,-0.0007252890259025721,-0.00011452215944008444,0.0,0.0,0.0,0.0,0.0,0.0,0.0,0.0,0.0,-8.839950548309472e-06,0.0006886029087581667,0.0012332984774506785,0.0,0.0,0.0,0.0,0.0,0.0,0.0,0.0,0.0,0.010945917246526451,-0.5797264634550693,9.808656095397351,0.0,0.0,0.0,0.0,0.0,0.0,0.0,0.0,0.0
2025/05/20 13:36:42.965902066,1747741002,964933531,mA1/imu,0.46292207408451796,-0.8863986724347368,-0.000733811711289609,-9.138707009441e-05,0.0,0.0,0.0,0.0,0.0,0.0,0.0,0.0,0.0,-0.0015071385348745811,0.000648130456304255,0.001205859528767571,0.0,0.0,0.0,0.0,0.0,0.0,0.0,0.0,0.0,0.010999497155285677,0.46758466742324456,9.810631365715192,0.0,0.0,0.0,0.0,0.0,0.0,0.0,0.0,0.0
2025/05/20 13:36:43.17940062,1747741003,16605090,mA1/imu,0.46289029730232983,-0.8864152637101154,-0.0007412034716392759,-5.9518913144289616e-05,0.0,0.0,0.0,0.0,0.0,0.0,0.0,0.0,0.0,-0.0014807721149884025,0.0015281062355816336,0.001798645377400982,0.0,0.0,0.0,0.0,0.0,0.0,0.0,0.0,0.0,-0.03746489471135847,-0.04800897142033149,9.807320035800844,0.0,0.0,0.0,0.0,0.0,0.0,0.0,0.0,0.0
2025/05/20 13:36:43.67173586,1747741003,66340785,mA1/imu,0.4628460748556485,-0.8864383655807683,-0.0007312502261232563,-1.7038851113194227e-05,0.0,0.0,0.0,0.0,0.0,0.0,0.0,0.0,0.0,0.000508432521576261,0.001574609629487007,0.001984766588192566,0.0,0.0,0.0,0.0,0.0,0.0,0.0,0.0,0.0,0.013217000852784173,-0.5286422813496205,9.808553549929638,0.0,0.0,0.0,0.0,0.0,0.0,0.0,0.0,0.0
2025/05/20 13:36:43.118936795,1747741003,117467389,mA1/imu,0.46280250639259934,-0.8864611147913968,-0.0007291042035595631,2.113249005790494e-05,0.0,0.0,0.0,0.0,0.0,0.0,0.0,0.0,0.0,-0.0007099927653685418,0.001256373844336745,0.001955672430971412,0.0,0.0,0.0,0.0,0.0,0.0,0.0,0.0,0.0,0.013068032207945496,0.6483307261277156,9.810588558934333,0.0,0.0,0.0,0.0,0.0,0.0,0.0,0.0,0.0
2025/05/20 13:36:43.168440923,1747741003,167298663,mA1/imu,0.4627595553534926,-0.8864835283442406,-0.0007381772430062437,5.4751635540574504e-05,0.0,0.0,0.0,0.0,0.0,0.0,0.0,0.0,0.0,-0.00037479965723307416,0.0008578274357172176,0.0019278104427784108,0.0,0.0,0.0,0.0,0.0,0.0,0.0,0.0,0.0,0.013120543496604369,0.038838027932961705,9.810361501249993,0.0,0.0,0.0,0.0,0.0,0.0,0.0,0.0,0.0
2025/05/20 13:36:43.219448936,1747741003,218271199,mA1/imu,0.46271677545179213,-0.886505847583464,-0.000749491612531028,7.860116139295545e-05,0.0,0.0,0.0,0.0,0.0,0.0,0.0,0.0,0.0,-0.0004675194127432557,0.000499595807260641,0.0019480443501214367,0.0,0.0,0.0,0.0,0.0,0.0,0.0,0.0,0.0,0.0103029928309764,-0.16663939278166465,9.810291171200308,0.0,0.0,0.0,0.0,0.0,0.0,0.0,0.0,0.0
2025/05/20 13:36:43.269191040,1747741003,268246530,mA1/imu,0.46267365255341875,-0.8865283446022768,-0.0007597072760615156,9.107403411157236e-05,0.0,0.0,0.0,0.0,0.0,0.0,0.0,0.0,0.0,-0.0007624421865059812,6.692523529470558e-05,0.0019351631316891597,0.0,0.0,0.0,0.0,0.0,0.0,0.0,0.0,0.0,0.01360809864081754,0.15555470782285885,9.811389566078107,0.0,0.0,0.0,0.0,0.0,0.0,0.0,0.0,0.0
2025/05/20 13:36:43.320482819,1747741003,319157695,mA1/imu,0.46263109861692864,-0.8865505384439623,-0.000775016096094296,9.341983173708889e-05,0.0,0.0,0.0,0.0,0.0,0.0,0.0,0.0,0.0,-0.0009731569481383238,-0.0003772032050838546,0.0019097076911896104,0.0,0.0,0.0,0.0,0.0,0.0,0.0,0.0,0.0,0.013157358503635783,-0.058737278796420704,9.810164159623524,0.0,0.0,0.0,0.0,0.0,0.0,0.0,0.0,0.0
2025/05/20 13:36:43.371035420,1747741003,369196299,mA1/imu,0.4625890858530643,-0.8865724522007391,-0.0007861599999914,8.124560724710457e-05,0.0,0.0,0.0,0.0,0.0,0.0,0.0,0.0,0.0,-0.0011307080500833522,-0.0007954181276594887,0.0018854220049184427,0.0,0.0,0.0,0.0,0.0,0.0,0.0,0.0,0.0,0.012636140037056539,0.4563785962715743,9.81149526196668,0.0,0.0,0.0,0.0,0.0,0.0,0.0,0.0,0.0
2025/05/20 13:36:43.421553643,1747741003,420439754,mA1/imu,0.46254759101344906,-0.8865940913268551,-0.0007998453995951636,5.932368746576922e-05,0.0,0.0,0.0,0.0,0.0,0.0,0.0,0.0,0.0,0.00034367418320258085,-0.0011711270133661568,0.0018618552109755059,0.0,0.0,0.0,0.0,0.0,0.0,0.0,0.0,0.0,0.011807545370986106,0.045812494053993645,9.811547520387458,0.0,0.0,0.0,0.0,0.0,0.0,0.0,0.0,0.0
2025/05/20 13:36:43.471147678,1747741003,470069156,mA1/imu,0.46250660467351556,-0.8866154573795239,-0.0008187820114078436,3.106592972020999e-05,0.0,0.0,0.0,0.0,0.0,0.0,0.0,0.0,0.0,0.0007488631747697085,-0.0014719850392843153,0.0018387063036572468,0.0,0.0,0.0,0.0,0.0,0.0,0.0,0.0,0.0,0.012198454604146747,0.06081151622672057,9.810701620539257,0.0,0.0,0.0,0.0,0.0,0.0,0.0,0.0,0.0
2025/05/20 13:36:43.512192543,1747741003,511194588,mA1/imu,0.4624660998181895,-0.8866365657542642,-0.0008407035070882186,-2.0124338937977564e-06,0.0,0.0,0.0,0.0,0.0,0.0,0.0,0.0,0.0,-5.012944229285961e-05,-0.0016473817602518544,0.0018172333841252868,0.0,0.0,0.0,0.0,0.0,0.0,0.0,0.0,0.0,0.011060318225672208,-0.003118007208292242,9.809558041833036,0.0,0.0,0.0,0.0,0.0,0.0,0.0,0.0,0.0
2025/05/20 13:36:43.562245667,1747741003,560902495,mA1/imu,0.4624260537026498,-0.8866574382442038,-0.0008545353423761708,-4.280850951471761e-05,0.0,0.0,0.0,0.0,0.0,0.0,0.0,0.0,0.0,8.005700281583004e-05,-0.0017261927497246709,0.0017965578916329264,0.0,0.0,0.0,0.0,0.0,0.0,0.0,0.0,0.0,0.01068285506417462,-0.0035646333998898636,9.809564799310772,0.0,0.0,0.0,0.0,0.0,0.0,0.0,0.0,0.0
2025/05/20 13:36:43.613333975,1747741003,612292955,mA1/imu,0.4623868611953561,-0.8866778603221541,-0.0008691914656724848,-8.434826027055867e-05,0.0,0.0,0.0,0.0,0.0,0.0,0.0,0.0,0.0,0.0004783099830108195,-0.0017645948161091943,0.0017315040556142472,0.0,0.0,0.0,0.0,0.0,0.0,0.0,0.0,0.0,0.013295988758970277,-0.06753033551533721,9.808976144882644,0.0,0.0,0.0,0.0,0.0,0.0,0.0,0.0,0.0
2025/05/20 13:36:43.662567393,1747741003,661797913,mA1/imu,0.4623490115944638,-0.8866975868718898,-0.0008740641841839808,-0.00013009608607635558,0.0,0.0,0.0,0.0,0.0,0.0,0.0,0.0,0.0,0.0006325565294685216,-0.001649532389360286,0.0016984127917235795,0.0,0.0,0.0,0.0,0.0,0.0,0.0,0.0,0.0,0.00969739499205434,0.016135514466322366,9.81097869815626,0.0,0.0,0.0,0.0,0.0,0.0,0.0,0.0,0.0
2025/05/20 13:36:43.713776585,1747741003,713000895,mA1/imu,0.46231157498483516,-0.8867170886664052,-0.0008857202939769704,-0.00016673804739422075,0.0,0.0,0.0,0.0,0.0,0.0,0.0,0.0,0.0,-5.036807980686021e-05,-0.0014226888468389007,0.0016799334935322958,0.0,0.0,0.0,0.0,0.0,0.0,0.0,0.0,0.0,0.009626562819664463,-0.14315658902340542,9.811139949740808,0.0,0.0,0.0,0.0,0.0,0.0,0.0,0.0,0.0
2025/05/20 13:36:43.763589407,1747741003,762729577,mA1/imu,0.46227454609173246,-0.8867363870892326,-0.0008848815686541191,-0.00020206985584628472,0.0,0.0,0.0,0.0,0.0,0.0,0.0,0.0,0.0,-0.00019395679650369296,-0.0010976628679529087,0.0016620073998380512,0.0,0.0,0.0,0.0,0.0,0.0,0.0,0.0,0.0,0.008808006001859816,-0.04695107281647394,9.809199833014679,0.0,0.0,0.0,0.0,0.0,0.0,0.0,0.0,0.0
2025/05/20 13:36:43.815130394,1747741003,814096729,mA1/imu,0.46224103323880245,-0.8867538540340364,-0.0008785240774903424,-0.0002402947200513772,0.0,0.0,0.0,0.0,0.0,0.0,0.0,0.0,0.0,0.0008541995986124289,-0.0015123091852654133,0.001321268481578243,0.0,0.0,0.0,0.0,0.0,0.0,0.0,0.0,0.0,0.04314003634211783,0.028858143384057428,9.808743970104818,0.0,0.0,0.0,0.0,0.0,0.0,0.0,0.0,0.0
2025/05/20 13:36:43.864842593,1747741003,863670215,mA1/imu,0.462214201899524,-0.8867678217204104,-0.0008829737236288741,-0.00028684669771509306,0.0,0.0,0.0,0.0,0.0,0.0,0.0,0.0,0.0,0.0008197578761897981,-0.001777990495222331,0.0011925906562911706,0.0,0.0,0.0,0.0,0.0,0.0,0.0,0.0,0.0,0.025673869272203397,0.6476044735434976,9.810060528734617,0.0,0.0,0.0,0.0,0.0,0.0,0.0,0.0,0.0
2025/05/20 13:36:43.916036121,1747741003,914687891,mA1/imu,0.46218630901060676,-0.8867823381596754,-0.0008901852546280327,-0.0003287269737610362,0.0,0.0,0.0,0.0,0.0,0.0,0.0,0.0,0.0,0.0011090658890975458,-0.0013760792914165236,0.0013797636855533103,0.0,0.0,0.0,0.0,0.0,0.0,0.0,0.0,0.0,0.0011396936933429583,0.046318616400104325,9.808316880481922,0.0,0.0,0.0,0.0,0.0,0.0,0.0,0.0,0.0
2025/05/20 13:36:43.965603376,1747741003,964612478,mA1/imu,0.4621540995249702,-0.8867991104287423,-0.0008923358440909348,-0.0003602385272806791,0.0,0.0,0.0,0.0,0.0,0.0,0.0,0.0,0.0,0.0013161712774329036,-0.00113503781548876,0.001457944044167463,0.0,0.0,0.0,0.0,0.0,0.0,0.0,0.0,0.0,0.024881276984127468,-0.5776736124279525,9.810183156837445,0.0,0.0,0.0,0.0,0.0,0.0,0.0,0.0,0.0
2025/05/20 13:36:44.17289427,1747741004,15752756,mA1/imu,0.46212155454827547,-0.8868160663686087,-0.0008821845878671409,-0.0003937038808827238,0.0,0.0,0.0,0.0,0.0,0.0,0.0,0.0,0.0,0.0017594510819417492,-0.0009168239527496441,0.001473862737007961,0.0,0.0,0.0,0.0,0.0,0.0,0.0,0.0,0.0,0.02284728118721935,-0.54310323994937,9.808815449939766,0.0,0.0,0.0,0.0,0.0,0.0,0.0,0.0,0.0
2025/05/20 13:36:44.66362382,1747741004,65516346,mA1/imu,0.4620882310782173,-0.8868334229279297,-0.0008787159022254857,-0.0004177742202735187,0.0,0.0,0.0,0.0,0.0,0.0,0.0,0.0,0.0,0.0011122040891258854,-0.0007226021642536685,0.001526370735569106,0.0,0.0,0.0,0.0,0.0,0.0,0.0,0.0,0.0,0.02531171821740444,0.04732013629169256,9.81075422439175,0.0,0.0,0.0,0.0,0.0,0.0,0.0,0.0,0.0
2025/05/20 13:36:44.117424669,1747741004,116542708,mA1/imu,0.46205618443543983,-0.8868501096313461,-0.0008793130510169958,-0.0004384978795790077,0.0,0.0,0.0,0.0,0.0,0.0,0.0,0.0,0.0,-0.00044718907754101204,-0.0009955053034065796,0.001217670249362526,0.0,0.0,0.0,0.0,0.0,0.0,0.0,0.0,0.0,0.0694264697654883,0.5829189228813386,9.80887568981905,0.0,0.0,0.0,0.0,0.0,0.0,0.0,0.0,0.0
2025/05/20 13:36:44.168061268,1747741004,166446841,mA1/imu,0.46203417561405136,-0.886861554297251,-0.0008877543896040306,-0.0004647216927330983,0.0,0.0,0.0,0.0,0.0,0.0,0.0,0.0,0.0,0.00021943053964333046,-0.0009426263437238934,0.0009679412919746212,0.0,0.0,0.0,0.0,0.0,0.0,0.0,0.0,0.0,0.022134483554119667,0.008532043380476292,9.809268728795278,0.0,0.0,0.0,0.0,0.0,0.0,0.0,0.0,0.0
2025/05/20 13:36:44.218486862,1747741004,217436198,mA1/imu,0.46201349084624416,-0.886872314834469,-0.0008945298938269345,-0.00048090798178511207,0.0,0.0,0.0,0.0,0.0,0.0,0.0,0.0,0.0,0.00029513487917779107,-0.0005342135241406621,0.000907363872729895,0.0,0.0,0.0,0.0,0.0,0.0,0.0,0.0,0.0,0.02178288671191172,-0.11106050247886312,9.809961777982828,0.0,0.0,0.0,0.0,0.0,0.0,0.0,0.0,0.0
2025/05/20 13:36:44.268272995,1747741004,267264546,mA1/imu,0.46199424561715663,-0.8868823289680857,-0.0009040794478248079,-0.0004839639767940145,0.0,0.0,0.0,0.0,0.0,0.0,0.0,0.0,0.0,0.0004213762485025909,-0.00011399096466982869,0.0008435060142452029,0.0,0.0,0.0,0.0,0.0,0.0,0.0,0.0,0.0,0.021044632239339545,-0.5762464333316676,9.809026009713527,0.0,0.0,0.0,0.0,0.0,0.0,0.0,0.0,0.0
2025/05/20 13:36:44.319270722,1747741004,318296671,mA1/imu,0.4619765305548493,-0.8868915521609827,-0.0009138580367228284,-0.00047411546689017344,0.0,0.0,0.0,0.0,0.0,0.0,0.0,0.0,0.0,0.00014164696729654654,0.00034484820721273745,0.0007735758678765153,0.0,0.0,0.0,0.0,0.0,0.0,0.0,0.0,0.0,0.021376744317340712,-0.5847993067348067,9.810845243537043,0.0,0.0,0.0,0.0,0.0,0.0,0.0,0.0,0.0
2025/05/20 13:36:44.369662775,1747741004,368194000,mA1/imu,0.4619603174905924,-0.8869000002263489,-0.0009214467777566952,-0.00045342951955517117,0.0,0.0,0.0,0.0,0.0,0.0,0.0,0.0,0.0,-0.0010173409096603991,0.0007383746671174716,0.0006981429285380274,0.0,0.0,0.0,0.0,0.0,0.0,0.0,0.0,0.0,0.02345904934681829,-0.021615664698609822,9.807647725500841,0.0,0.0,0.0,0.0,0.0,0.0,0.0,0.0,0.0
2025/05/20 13:36:44.421851305,1747741004,419957119,mA1/imu,0.46194572731404154,-0.8869076114546299,-0.0009237660731124708,-0.0004247545014979619,0.0,0.0,0.0,0.0,0.0,0.0,0.0,0.0,0.0,-0.0009125136173709734,0.0011271906534015518,0.0006337223888354225,0.0,0.0,0.0,0.0,0.0,0.0,0.0,0.0,0.0,0.021608405116978372,-0.0048979381698809,9.810102204477554,0.0,0.0,0.0,0.0,0.0,0.0,0.0,0.0,0.0
2025/05/20 13:36:44.470691072,1747741004,469088882,mA1/imu,0.4619325297575503,-0.8869144973476266,-0.000929954859733777,-0.0003840968048853678,0.0,0.0,0.0,0.0,0.0,0.0,0.0,0.0,0.0,-0.0010058840026652563,0.001452466078876813,0.0005729277109368212,0.0,0.0,0.0,0.0,0.0,0.0,0.0,0.0,0.0,0.021525944075953877,-0.0038499642720433627,9.810619707815764,0.0,0.0,0.0,0.0,0.0,0.0,0.0,0.0,0.0
2025/05/20 13:36:44.521662645,1747741004,520019560,mA1/imu,0.46192076105129387,-0.8869206447120148,-0.0009305459224821193,-0.0003384932842614797,0.0,0.0,0.0,0.0,0.0,0.0,0.0,0.0,0.0,-0.0005905853971858002,0.001700928508406078,0.0005034969123814106,0.0,0.0,0.0,0.0,0.0,0.0,0.0,0.0,0.0,0.0221091750240607,0.02922103952533712,9.810764999051438,0.0,0.0,0.0,0.0,0.0,0.0,0.0,0.0,0.0
2025/05/20 13:36:44.571041863,1747741004,569906213,mA1/imu,0.46191054412575755,-0.8869259785567983,-0.0009363101733978957,-0.0002847977729696651,0.0,0.0,0.0,0.0,0.0,0.0,0.0,0.0,0.0,-0.001163231531200417,0.0018453968006891606,0.0004374917181097349,0.0,0.0,0.0,0.0,0.0,0.0,0.0,0.0,0.0,0.022151578607707736,-0.009687271483484196,9.810583858553725,0.0,0.0,0.0,0.0,0.0,0.0,0.0,0.0,0.0
2025/05/20 13:36:44.622901380,1747741004,621323378,mA1/imu,0.4619018834418632,-0.8869305024931035,-0.0009384403955114923,-0.00023054243559739315,0.0,0.0,0.0,0.0,0.0,0.0,0.0,0.0,0.0,-0.002968479969872898,0.0018968373286764623,0.00035898535066643115,0.0,0.0,0.0,0.0,0.0,0.0,0.0,0.0,0.0,0.023645785320268564,0.49073014304142565,9.810955593005083,0.0,0.0,0.0,0.0,0.0,0.0,0.0,0.0,0.0
2025/05/20 13:36:44.661606128,1747741004,660650745,mA1/imu,0.4618948425181853,-0.8869341846247032,-0.0009349603727237982,-0.00018013415868836327,0.0,0.0,0.0,0.0,0.0,0.0,0.0,0.0,0.0,-0.00022885096054814152,0.001816093118725518,0.00029491250952952625,0.0,0.0,0.0,0.0,0.0,0.0,0.0,0.0,0.0,0.02196905665877846,-0.576302565213913,9.809761612918232,0.0,0.0,0.0,0.0,0.0,0.0,0.0,0.0,0.0
2025/05/20 13:36:44.713589305,1747741004,712569763,mA1/imu,0.4618876874669252,-0.8869379255763165,-0.0009294138600267935,-0.00012857182176688437,0.0,0.0,0.0,0.0,0.0,0.0,0.0,0.0,0.0,-2.2566919722212445e-05,0.0020229580317814707,0.00035744714869395374,0.0,0.0,0.0,0.0,0.0,0.0,0.0,0.0,0.0,0.010668408718447915,0.029134854294594933,9.810634760205128,0.0,0.0,0.0,0.0,0.0,0.0,0.0,0.0,0.0
2025/05/20 13:36:44.762788213,1747741004,761490863,mA1/imu,0.4618800334234336,-0.8869419219176986,-0.0009256652136314999,-7.08069125703959e-05,0.0,0.0,0.0,0.0,0.0,0.0,0.0,0.0,0.0,-0.0018700618758120643,0.0021786878278781383,0.00031997846423009426,0.0,0.0,0.0,0.0,0.0,0.0,0.0,0.0,0.0,0.010454745175469408,0.5438590004923862,9.811615692955632,0.0,0.0,0.0,0.0,0.0,0.0,0.0,0.0,0.0
2025/05/20 13:36:44.814738578,1747741004,812858378,mA1/imu,0.4618755532760244,-0.886944270323469,-0.0009133921059429543,-1.8471504980296016e-05,0.0,0.0,0.0,0.0,0.0,0.0,0.0,0.0,0.0,-0.00015566128880361421,0.001956229937626107,6.203487360862844e-05,0.0,0.0,0.0,0.0,0.0,0.0,0.0,0.0,0.0,0.0221490949859604,-0.23478755437547683,9.811260390259651,0.0,0.0,0.0,0.0,0.0,0.0,0.0,0.0,0.0
2025/05/20 13:36:44.863391401,1747741004,862196141,mA1/imu,0.4618797846066455,-0.8869420725171971,-0.0009076510693922813,2.720577169760391e-05,0.0,0.0,0.0,0.0,0.0,0.0,0.0,0.0,0.0,-0.001376033567197603,0.0016208019504991937,-0.00035602971032794057,0.0,0.0,0.0,0.0,0.0,0.0,0.0,0.0,0.0,0.01682365878210033,0.3080500400396668,9.811237464533415,0.0,0.0,0.0,0.0,0.0,0.0,0.0,0.0,0.0
2025/05/20 13:36:44.914429225,1747741004,913201166,mA1/imu,0.4618889936434997,-0.8869372851005182,-0.0008974271015878924,6.688882112067165e-05,0.0,0.0,0.0,0.0,0.0,0.0,0.0,0.0,0.0,1.3468263092453233e-07,0.0015997156993230596,-0.0004518018413479549,0.0,0.0,0.0,0.0,0.0,0.0,0.0,0.0,0.0,0.00564083347107193,0.01655101413004636,9.810081336463965,0.0,0.0,0.0,0.0,0.0,0.0,0.0,0.0,0.0
2025/05/20 13:36:44.964416473,1747741004,963129109,mA1/imu,0.4619005013398871,-0.886931298232999,-0.000887532696755829,0.0001065945600346738,0.0,0.0,0.0,0.0,0.0,0.0,0.0,0.0,0.0,-0.0006442574331029998,0.0015562538522268083,-0.000566263469350077,0.0,0.0,0.0,0.0,0.0,0.0,0.0,0.0,0.0,0.006263891869195114,-0.11549130641257094,9.810432244233752,0.0,0.0,0.0,0.0,0.0,0.0,0.0,0.0,0.0
2025/05/20 13:36:45.16543810,1747741005,14343739,mA1/imu,0.4619161445289531,-0.8869231663544785,-0.0008679273148995914,0.0001382368598157064,0.0,0.0,0.0,0.0,0.0,0.0,0.0,0.0,0.0,-0.00022470219030959048,0.001467639631492189,-0.0008148938371972537,0.0,0.0,0.0,0.0,0.0,0.0,0.0,0.0,0.0,-0.005834709015662135,-0.027216646115951565,9.810547875183582,0.0,0.0,0.0,0.0,0.0,0.0,0.0,0.0,0.0
2025/05/20 13:36:45.65803714,1747741005,64058683,mA1/imu,0.46193411348412267,-0.886913826127785,-0.0008432097993666057,0.0001697652646538562,0.0,0.0,0.0,0.0,0.0,0.0,0.0,0.0,0.0,0.000133933041837363,0.0016437826623993063,-0.0007847448943611357,0.0,0.0,0.0,0.0,0.0,0.0,0.0,0.0,0.0,-0.006110586124330573,0.2320462624733627,9.808372954962033,0.0,0.0,0.0,0.0,0.0,0.0,0.0,0.0,0.0
2025/05/20 13:36:45.115855813,1747741005,114969364,mA1/imu,0.4619532909735775,-0.8869038541874261,-0.000818429154530452,0.00020139485832804495,0.0,0.0,0.0,0.0,0.0,0.0,0.0,0.0,0.0,0.00032259199302277897,0.0014440107956289674,-0.0010253479684383155,0.0,0.0,0.0,0.0,0.0,0.0,0.0,0.0,0.0,0.008099094386606026,0.5384392790715204,9.808551494445139,0.0,0.0,0.0,0.0,0.0,0.0,0.0,0.0,0.0
2025/05/20 13:36:45.167136791,1747741005,164830648,mA1/imu,0.4619776520037873,-0.886891185082277,-0.000789558019224183,0.00022687123267859708,0.0,0.0,0.0,0.0,0.0,0.0,0.0,0.0,0.0,0.0015629558494585155,0.0014776976185597904,-0.001071324420845241,0.0,0.0,0.0,0.0,0.0,0.0,0.0,0.0,0.0,-0.008818467048871662,-0.2507671776872395,9.809624872320432,0.0,0.0,0.0,0.0,0.0,0.0,0.0,0.0,0.0
2025/05/20 13:36:45.216801153,1747741005,215743065,mA1/imu,0.4620005909277774,-0.8868792526619927,-0.0007618230386006514,0.0002545697308985817,0.0,0.0,0.0,0.0,0.0,0.0,0.0,0.0,0.0,0.0007175427356481971,0.0014925536260443773,-0.0010029695506742291,0.0,0.0,0.0,0.0,0.0,0.0,0.0,0.0,0.0,-0.00816655283988835,-0.027868129948393175,9.809711814770816,0.0,0.0,0.0,0.0,0.0,0.0,0.0,0.0,0.0
2025/05/20 13:36:45.266941367,1747741005,265634339,mA1/imu,0.4620218831877591,-0.8868681799741446,-0.0007299895886423797,0.0002791418729434002,0.0,0.0,0.0,0.0,0.0,0.0,0.0,0.0,0.0,-7.693146882542031e-05,0.0014251505841221574,-0.0009298305557620436,0.0,0.0,0.0,0.0,0.0,0.0,0.0,0.0,0.0,-0.0075828365516524944,0.18094848595048024,9.810147564744021,0.0,0.0,0.0,0.0,0.0,0.0,0.0,0.0,0.0
2025/05/20 13:36:45.317872017,1747741005,316689966,mA1/imu,0.4620442472025331,-0.8868565493196952,-0.0006979260410192501,0.00029572799843748533,0.0,0.0,0.0,0.0,0.0,0.0,0.0,0.0,0.0,-4.179691294298504e-05,0.0008776730077417404,-0.0011763785984235493,0.0,0.0,0.0,0.0,0.0,0.0,0.0,0.0,0.0,0.0134242735423452,-0.07993700433357025,9.809540987475131,0.0,0.0,0.0,0.0,0.0,0.0,0.0,0.0,0.0
2025/05/20 13:36:45.368001298,1747741005,366557356,mA1/imu,0.46207184672476637,-0.8868421891831098,-0.000670697729340226,0.0003001896558150761,0.0,0.0,0.0,0.0,0.0,0.0,0.0,0.0,0.0,-0.00029682709769566026,0.0006518447737902577,-0.0012107155385534469,0.0,0.0,0.0,0.0,0.0,0.0,0.0,0.0,0.0,-0.011901343007947028,0.520967730061768,9.810993922617076,0.0,0.0,0.0,0.0,0.0,0.0,0.0,0.0,0.0
2025/05/20 13:36:45.419531229,1747741005,418367430,mA1/imu,0.46209836553796774,-0.8868283884081533,-0.0006464798193208659,0.00030355292682812576,0.0,0.0,0.0,0.0,0.0,0.0,0.0,0.0,0.0,-0.00033284100450299596,0.0005223440364935416,-0.0012213542081837832,0.0,0.0,0.0,0.0,0.0,0.0,0.0,0.0,0.0,-0.010306332134583028,0.2738918681742172,9.811721914199678,0.0,0.0,0.0,0.0,0.0,0.0,0.0,0.0,0.0
2025/05/20 13:36:45.469793863,1747741005,467487453,mA1/imu,0.4621252861672623,-0.8868143796079283,-0.0006202715050788074,0.0003021070855431326,0.0,0.0,0.0,0.0,0.0,0.0,0.0,0.0,0.0,0.00065135142924961,0.0003636575256019928,-0.0011934765067793342,0.0,0.0,0.0,0.0,0.0,0.0,0.0,0.0,0.0,-0.009364084372970916,-0.01340279329082108,9.809814153346531,0.0,0.0,0.0,0.0,0.0,0.0,0.0,0.0,0.0
2025/05/20 13:36:45.520982327,1747741005,518935998,mA1/imu,0.4621518202348987,-0.8868005699072584,-0.0005973212935078316,0.0002957583538326911,0.0,0.0,0.0,0.0,0.0,0.0,0.0,0.0,0.0,0.0008092938007719013,9.00898012196931e-05,-0.0011991244998111792,0.0,0.0,0.0,0.0,0.0,0.0,0.0,0.0,0.0,-0.007120214847458522,0.0019938805428884217,9.809679256159823,0.0,0.0,0.0,0.0,0.0,0.0,0.0,0.0,0.0
2025/05/20 13:36:45.569441037,1747741005,568309720,mA1/imu,0.46217850451416054,-0.886786676119523,-0.0005826087482541753,0.0002856378631477898,0.0,0.0,0.0,0.0,0.0,0.0,0.0,0.0,0.0,0.0004220138229537696,-0.00020522730380571623,-0.001206302882489048,0.0,0.0,0.0,0.0,0.0,0.0,0.0,0.0,0.0,-0.006503550796716633,0.395465855406829,9.810632230323986,0.0,0.0,0.0,0.0,0.0,0.0,0.0,0.0,0.0
2025/05/20 13:36:45.620831722,1747741005,619584974,mA1/imu,0.46220535686563546,-0.8867726924792612,-0.0005721561714704443,0.00026943479358315203,0.0,0.0,0.0,0.0,0.0,0.0,0.0,0.0,0.0,0.0007590208125105224,-0.000492442463065683,-0.0012147136419630796,0.0,0.0,0.0,0.0,0.0,0.0,0.0,0.0,0.0,-0.00689624246391848,0.011862277729994014,9.8102611427015,0.0,0.0,0.0,0.0,0.0,0.0,0.0,0.0,0.0
2025/05/20 13:36:45.670546466,1747741005,669223569,mA1/imu,0.4622323924805645,-0.8867586036180729,-0.0005749224667723164,0.00025241865270053215,0.0,0.0,0.0,0.0,0.0,0.0,0.0,0.0,0.0,0.0010965707106600283,-0.0007733529949619534,-0.0012230055664398571,0.0,0.0,0.0,0.0,0.0,0.0,0.0,0.0,0.0,-0.006316383101695433,-0.5856760198558308,9.808350673006847,0.0,0.0,0.0,0.0,0.0,0.0,0.0,0.0,0.0
2025/05/20 13:36:45.721447399,1747741005,720307279,mA1/imu,0.46226221904881964,-0.8867430610117865,-0.0005800221531190817,0.00021945799232939546,0.0,0.0,0.0,0.0,0.0,0.0,0.0,0.0,0.0,0.0003219191855722513,-0.0018368595488057206,-0.0015094556209705188,0.0,0.0,0.0,0.0,0.0,0.0,0.0,0.0,0.0,0.03534838991099547,-0.627055030728142,9.810200390808292,0.0,0.0,0.0,0.0,0.0,0.0,0.0,0.0,0.0
2025/05/20 13:36:45.767794709,1747741005,766331784,mA1/imu,0.46229655934290215,-0.8867251610294823,-0.0005953250052453678,0.00016001591009035904,0.0,0.0,0.0,0.0,0.0,0.0,0.0,0.0,0.0,-0.00013626310366083745,-0.0026076770589901184,-0.0015144707955463254,0.0,0.0,0.0,0.0,0.0,0.0,0.0,0.0,0.0,0.006868509006152653,-0.021579248168880617,9.809134978509773,0.0,0.0,0.0,0.0,0.0,0.0,0.0,0.0,0.0
2025/05/20 13:36:45.818464361,1747741005,817351317,mA1/imu,0.462327187475474,-0.8867091804654191,-0.0006257562388726038,9.710042174469115e-05,0.0,0.0,0.0,0.0,0.0,0.0,0.0,0.0,0.0,-0.00027653403923873107,-0.002771539576675839,-0.0012373068058975129,0.0,0.0,0.0,0.0,0.0,0.0,0.0,0.0,0.0,-0.01006358183237133,0.2512553909468926,9.8128178852977,0.0,0.0,0.0,0.0,0.0,0.0,0.0,0.0,0.0
2025/05/20 13:36:45.869047336,1747741005,867378994,mA1/imu,0.46234372892989195,-0.8867005407584342,-0.0006520431224103391,4.666550644742538e-05,0.0,0.0,0.0,0.0,0.0,0.0,0.0,0.0,0.0,-0.0007571335343161536,-0.0017638759808460964,-0.000339979084158229,0.0,0.0,0.0,0.0,0.0,0.0,0.0,0.0,0.0,-0.03998932656717378,0.1586765821689102,9.812304427447652,0.0,0.0,0.0,0.0,0.0,0.0,0.0,0.0,0.0
2025/05/20 13:36:45.919071782,1747741005,918202081,mA1/imu,0.462348191293687,-0.8866981998500737,-0.000672587483367305,4.02147319202462e-06,0.0,0.0,0.0,0.0,0.0,0.0,0.0,0.0,0.0,0.000731713270677158,-0.001868403909509426,-4.616008168844478e-05,0.0,0.0,0.0,0.0,0.0,0.0,0.0,0.0,0.0,-0.0023012382695732627,-0.56509573108326,9.808227292500135,0.0,0.0,0.0,0.0,0.0,0.0,0.0,0.0,0.0
2025/05/20 13:36:45.969429170,1747741005,968220101,mA1/imu,0.4623470092023291,-0.8866987989356695,-0.0006937742158525695,-4.153360072943485e-05,0.0,0.0,0.0,0.0,0.0,0.0,0.0,0.0,0.0,0.0006228234885357306,-0.0021524023258293616,5.688203240145446e-05,0.0,0.0,0.0,0.0,0.0,0.0,0.0,0.0,0.0,0.014711418553605821,0.054025109064122306,9.80994502322502,0.0,0.0,0.0,0.0,0.0,0.0,0.0,0.0,0.0
2025/05/20 13:36:46.21540011,1747741006,19211675,mA1/imu,0.46234542914506294,-0.8866995888110464,-0.0007319044224868281,-8.756086547786492e-05,0.0,0.0,0.0,0.0,0.0,0.0,0.0,0.0,0.0,-0.001301210698001408,-0.0024706658157149057,8.880227022162453e-05,0.0,0.0,0.0,0.0,0.0,0.0,0.0,0.0,0.0,0.0173767582555751,0.5643068579026098,9.811729519634603,0.0,0.0,0.0,0.0,0.0,0.0,0.0,0.0,0.0
2025/05/20 13:36:46.71804412,1747741006,69062876,mA1/imu,0.46234373751792046,-0.8867004321234421,-0.0007692984405820811,-0.0001422321012187369,0.0,0.0,0.0,0.0,0.0,0.0,0.0,0.0,0.0,-0.0009378230708100839,-0.002710032929380493,4.541001286399149e-05,0.0,0.0,0.0,0.0,0.0,0.0,0.0,0.0,0.0,0.01770877149197877,-0.03311776962538504,9.810509692291436,0.0,0.0,0.0,0.0,0.0,0.0,0.0,0.0,0.0
2025/05/20 13:36:46.122606775,1747741006,120979371,mA1/imu,0.4623421088317722,-0.8867012350680892,-0.0008093889506002674,-0.0001975328872703563,0.0,0.0,0.0,0.0,0.0,0.0,0.0,0.0,0.0,-0.0007724019679995859,-0.002649546246014785,0.00010731103206124053,0.0,0.0,0.0,0.0,0.0,0.0,0.0,0.0,0.0,0.010916309623820163,0.11722915744275045,9.810043589406847,0.0,0.0,0.0,0.0,0.0,0.0,0.0,0.0,0.0
2025/05/20 13:36:46.171409156,1747741006,169914128,mA1/imu,0.46233960669780183,-0.8867024854426672,-0.0008538126498481061,-0.000247774650703161,0.0,0.0,0.0,0.0,0.0,0.0,0.0,0.0,0.0,-0.0009549953776459303,-0.002577963744877805,9.254094117749708e-05,0.0,0.0,0.0,0.0,0.0,0.0,0.0,0.0,0.0,0.01753569756345487,-0.2349532613851979,9.80913399863058,0.0,0.0,0.0,0.0,0.0,0.0,0.0,0.0,0.0
2025/05/20 13:36:46.222182934,1747741006,220822097,mA1/imu,0.4623377745783906,-0.88670338819624,-0.000891524944602608,-0.000297896765052068,0.0,0.0,0.0,0.0,0.0,0.0,0.0,0.0,0.0,-0.0002541055096136993,-0.0023974906825591246,5.9592180518695886e-05,0.0,0.0,0.0,0.0,0.0,0.0,0.0,0.0,0.0,0.017870363339118702,0.022460388986269054,9.809426307881406,0.0,0.0,0.0,0.0,0.0,0.0,0.0,0.0,0.0
2025/05/20 13:36:46.262490158,1747741006,260616953,mA1/imu,0.46233703481479627,-0.8867037164182754,-0.0009331603510331669,-0.00033873358227991864,0.0,0.0,0.0,0.0,0.0,0.0,0.0,0.0,0.0,-0.0014642923342479224,-0.0020614072830136905,2.4934224094701836e-05,0.0,0.0,0.0,0.0,0.0,0.0,0.0,0.0,0.0,0.01512679886275787,0.47441258825153654,9.809971440873088,0.0,0.0,0.0,0.0,0.0,0.0,0.0,0.0,0.0
2025/05/20 13:36:46.313413782,1747741006,312433581,mA1/imu,0.4623340744653029,-0.8867052101190059,-0.0009690839397353413,-0.00036716813456252667,0.0,0.0,0.0,0.0,0.0,0.0,0.0,0.0,0.0,-0.0013095599447929258,-0.001321919428537089,0.0002920991204414335,0.0,0.0,0.0,0.0,0.0,0.0,0.0,0.0,0.0,0.004240678901838648,-0.04237513886873755,9.811112322857616,0.0,0.0,0.0,0.0,0.0,0.0,0.0,0.0,0.0
2025/05/20 13:36:46.362258741,1747741006,361388712,mA1/imu,0.46232538044157623,-0.8867097140230967,-0.0009889810496639569,-0.00038415246078185014,0.0,0.0,0.0,0.0,0.0,0.0,0.0,0.0,0.0,0.0003053790102454861,-0.0007836055703739174,0.000402022763280773,0.0,0.0,0.0,0.0,0.0,0.0,0.0,0.0,0.0,0.017008978317903354,-0.5710120345638311,9.809508213348781,0.0,0.0,0.0,0.0,0.0,0.0,0.0,0.0,0.0
2025/05/20 13:36:46.413537648,1747741006,412495722,mA1/imu,0.4623169725211804,-0.8867140830193202,-0.0009991604206855244,-0.0003918832863591112,0.0,0.0,0.0,0.0,0.0,0.0,0.0,0.0,0.0,0.0004121267115397779,-0.00023186271673060734,0.0003306513775150598,0.0,0.0,0.0,0.0,0.0,0.0,0.0,0.0,0.0,0.013418899013531,0.06208711522425345,9.808408955561314,0.0,0.0,0.0,0.0,0.0,0.0,0.0,0.0,0.0
2025/05/20 13:36:46.463670535,1747741006,462740771,mA1/imu,0.4623101707299028,-0.886717618524296,-0.0010127827886380059,-0.00038119458579794087,0.0,0.0,0.0,0.0,0.0,0.0,0.0,0.0,0.0,-0.00037139939263759606,0.0003480520215405212,0.0003111828733514875,0.0,0.0,0.0,0.0,0.0,0.0,0.0,0.0,0.0,0.015876841557772935,0.006069824014773214,9.80842229471837,0.0,0.0,0.0,0.0,0.0,0.0,0.0,0.0,0.0
2025/05/20 13:36:46.515273279,1747741006,513771687,mA1/imu,0.4623031371739655,-0.8867212937456457,-0.0010126073744748773,-0.0003622201861429943,0.0,0.0,0.0,0.0,0.0,0.0,0.0,0.0,0.0,-0.0003169079260393076,0.0008888848325831532,0.0003231659918341289,0.0,0.0,0.0,0.0,0.0,0.0,0.0,0.0,0.0,0.016077090279522067,0.0025494336432754297,9.811260085873242,0.0,0.0,0.0,0.0,0.0,0.0,0.0,0.0,0.0
2025/05/20 13:36:46.564763486,1747741006,563699645,mA1/imu,0.4622958439394406,-0.8867251166420854,-0.0010046760727051324,-0.00033289396080786313,0.0,0.0,0.0,0.0,0.0,0.0,0.0,0.0,0.0,-0.0002199774621850114,0.001375926466661695,0.00033527315730326316,0.0,0.0,0.0,0.0,0.0,0.0,0.0,0.0,0.0,0.01613142522026518,0.0007735668788034222,9.810941165612101,0.0,0.0,0.0,0.0,0.0,0.0,0.0,0.0,0.0
2025/05/20 13:36:46.615804758,1747741006,615029981,mA1/imu,0.4622861161379606,-0.8867302222727581,-0.0009871996870096556,-0.00029184064613624143,0.0,0.0,0.0,0.0,0.0,0.0,0.0,0.0,0.0,-8.429107670898847e-05,0.002151789762249909,0.000592918081705285,0.0,0.0,0.0,0.0,0.0,0.0,0.0,0.0,0.0,-0.0017013110127865952,0.002597875447891824,9.807802904151513,0.0,0.0,0.0,0.0,0.0,0.0,0.0,0.0,0.0
2025/05/20 13:36:46.665911513,1747741006,664869160,mA1/imu,0.46227092482978077,-0.8867381889386253,-0.0009589391660531105,-0.00023826569590010917,0.0,0.0,0.0,0.0,0.0,0.0,0.0,0.0,0.0,7.500617178776117e-05,0.0025049335527922325,0.0006985707855945239,0.0,0.0,0.0,0.0,0.0,0.0,0.0,0.0,0.0,0.018100209235138824,0.003896149756481119,9.808751158305547,0.0,0.0,0.0,0.0,0.0,0.0,0.0,0.0,0.0
2025/05/20 13:36:46.716874619,1747741006,715916602,mA1/imu,0.4622551435952661,-0.8867464637300546,-0.0009261680459563288,-0.00018301560968671124,0.0,0.0,0.0,0.0,0.0,0.0,0.0,0.0,0.0,0.00018865959089961782,0.0025845561020374852,0.0007248653287016835,0.0,0.0,0.0,0.0,0.0,0.0,0.0,0.0,0.0,0.01903501974697159,0.0023243442071018607,9.811472649203967,0.0,0.0,0.0,0.0,0.0,0.0,0.0,0.0,0.0
2025/05/20 13:36:46.766466347,1747741006,765635931,mA1/imu,0.46223881436295383,-0.8867550234839389,-0.0008887195308663067,-0.00013038376125764077,0.0,0.0,0.0,0.0,0.0,0.0,0.0,0.0,0.0,0.00024442816239716525,0.0025249199811986428,0.0007486234571247632,0.0,0.0,0.0,0.0,0.0,0.0,0.0,0.0,0.0,0.01901937384814298,0.11251264238954761,9.811125649107343,0.0,0.0,0.0,0.0,0.0,0.0,0.0,0.0,0.0
2025/05/20 13:36:46.818631187,1747741006,816702344,mA1/imu,0.46222185717885167,-0.8867639028816661,-0.0008534997914188146,-8.264571604399553e-05,0.0,0.0,0.0,0.0,0.0,0.0,0.0,0.0,0.0,0.00046904859503299457,0.0021720754707649278,0.0007902963417512973,0.0,0.0,0.0,0.0,0.0,0.0,0.0,0.0,0.0,0.025556106639146203,0.007847117367498397,9.808812792304414,0.0,0.0,0.0,0.0,0.0,0.0,0.0,0.0,0.0
2025/05/20 13:36:46.868278671,1747741006,866568875,mA1/imu,0.4622027929219302,-0.8867738749927363,-0.0008188987321226151,-4.7438389294833744e-05,0.0,0.0,0.0,0.0,0.0,0.0,0.0,0.0,0.0,0.0008913114483559952,0.0016923978477433991,0.0009189896228469175,0.0,0.0,0.0,0.0,0.0,0.0,0.0,0.0,0.0,0.023667332040680573,-0.12695937249145337,9.808401015815232,0.0,0.0,0.0,0.0,0.0,0.0,0.0,0.0,0.0
2025/05/20 13:36:46.918445949,1747741006,917579510,mA1/imu,0.46218250648947173,-0.8867844756489135,-0.0007898222701661999,-2.497944166375321e-05,0.0,0.0,0.0,0.0,0.0,0.0,0.0,0.0,0.0,0.00045021673350553027,0.0010661197164059282,0.000898338081225178,0.0,0.0,0.0,0.0,0.0,0.0,0.0,0.0,0.0,0.02718750307033895,0.43552474533917335,9.811307285717053,0.0,0.0,0.0,0.0,0.0,0.0,0.0,0.0,0.0
2025/05/20 13:36:46.968553037,1747741006,967418469,mA1/imu,0.46216260884587185,-0.8867948603377125,-0.0007736056095308621,-1.4062549073911408e-05,0.0,0.0,0.0,0.0,0.0,0.0,0.0,0.0,0.0,-0.0005348109630840156,0.00044177425777799386,0.0009096454987634173,0.0,0.0,0.0,0.0,0.0,0.0,0.0,0.0,0.0,0.023814696007512272,0.47567859786438554,9.811652386753277,0.0,0.0,0.0,0.0,0.0,0.0,0.0,0.0,0.0
2025/05/20 13:36:47.19429157,1747741007,18414599,mA1/imu,0.4621420318867425,-0.8868055959407114,-0.0007595899067607392,-1.9874759216001936e-05,0.0,0.0,0.0,0.0,0.0,0.0,0.0,0.0,0.0,0.0003302010109962316,-0.00019525120173052098,0.000940600806887176,0.0,0.0,0.0,0.0,0.0,0.0,0.0,0.0,0.0,0.023474475594803146,-0.013048763849256578,9.809359808691438,0.0,0.0,0.0,0.0,0.0,0.0,0.0,0.0,0.0
2025/05/20 13:36:47.69517570,1747741007,68334794,mA1/imu,0.46212076224450094,-0.8868166852250726,-0.0007525791418582131,-3.916134557156996e-05,0.0,0.0,0.0,0.0,0.0,0.0,0.0,0.0,0.0,0.0005335527732291311,-0.0007874508266869908,0.0009709451544490742,0.0,0.0,0.0,0.0,0.0,0.0,0.0,0.0,0.0,0.02296157710665072,0.0049363238309952425,9.808679167341934,0.0,0.0,0.0,0.0,0.0,0.0,0.0,0.0,0.0
2025/05/20 13:36:47.121469191,1747741007,119918750,mA1/imu,0.4620987904563634,-0.8868281298885726,-0.0007557432709682196,-6.89145233129669e-05,0.0,0.0,0.0,0.0,0.0,0.0,0.0,0.0,0.0,-0.0003631093180948564,-0.0013187689725606252,0.0010029807285702008,0.0,0.0,0.0,0.0,0.0,0.0,0.0,0.0,0.0,0.022253512017013113,0.5781084440352712,9.810886741502411,0.0,0.0,0.0,0.0,0.0,0.0,0.0,0.0,0.0
2025/05/20 13:36:47.171348328,1747741007,169276013,mA1/imu,0.46207609133105554,-0.8868399424345562,-0.0007685924689693525,-0.00010764991261672538,0.0,0.0,0.0,0.0,0.0,0.0,0.0,0.0,0.0,-6.908748059575953e-06,-0.0017788880272870966,0.001035166919542738,0.0,0.0,0.0,0.0,0.0,0.0,0.0,0.0,0.0,0.02155593031643112,0.5306466393751251,9.811010137761397,0.0,0.0,0.0,0.0,0.0,0.0,0.0,0.0,0.0
2025/05/20 13:36:47.221135869,1747741007,220133767,mA1/imu,0.4620534365333222,-0.886851721328002,-0.0007892078401809744,-0.00015269673157526273,0.0,0.0,0.0,0.0,0.0,0.0,0.0,0.0,0.0,-0.0006969558516334078,-0.002090249245090954,0.0009801072747948314,0.0,0.0,0.0,0.0,0.0,0.0,0.0,0.0,0.0,0.02054077184782529,0.22889224168539743,9.809164421515735,0.0,0.0,0.0,0.0,0.0,0.0,0.0,0.0,0.0
2025/05/20 13:36:47.270887217,1747741007,270053044,mA1/imu,0.4620320613303298,-0.8868628241764958,-0.0008154676190423334,-0.00020102014494593015,0.0,0.0,0.0,0.0,0.0,0.0,0.0,0.0,0.0,-0.0012263786593115016,-0.0022419382761039697,0.0009679908334519272,0.0,0.0,0.0,0.0,0.0,0.0,0.0,0.0,0.0,0.01899779478350159,0.1828259556711147,9.809461674496411,0.0,0.0,0.0,0.0,0.0,0.0,0.0,0.0,0.0
2025/05/20 13:36:47.312610281,1747741007,310872795,mA1/imu,0.4620103358222933,-0.8868741030042598,-0.0008440966745786933,-0.00025002912866620765,0.0,0.0,0.0,0.0,0.0,0.0,0.0,0.0,0.0,-0.0012968925169007885,-0.002257280569892107,0.0009843556470502056,0.0,0.0,0.0,0.0,0.0,0.0,0.0,0.0,0.0,0.01910341320561015,-0.08441440381275046,9.810633566851884,0.0,0.0,0.0,0.0,0.0,0.0,0.0,0.0,0.0
2025/05/20 13:36:47.361863949,1747741007,360916631,mA1/imu,0.4619882431249185,-0.886885575148881,-0.000865620822461995,-0.00030084511214376503,0.0,0.0,0.0,0.0,0.0,0.0,0.0,0.0,0.0,2.8935474749950534e-05,-0.0021330018429107736,0.0010008916729309363,0.0,0.0,0.0,0.0,0.0,0.0,0.0,0.0,0.0,0.01779680673241644,0.015145093340711643,9.81088923363594,0.0,0.0,0.0,0.0,0.0,0.0,0.0,0.0,0.0
2025/05/20 13:36:47.414060124,1747741007,412707227,mA1/imu,0.46196576669113965,-0.8868972387528976,-0.0008953973009684,-0.00034141122817595785,0.0,0.0,0.0,0.0,0.0,0.0,0.0,0.0,0.0,-0.0007262529961411817,-0.001880293745905965,0.0010195476061015906,0.0,0.0,0.0,0.0,0.0,0.0,0.0,0.0,0.0,0.017105339419833394,0.30478062659122473,9.809408524016558,0.0,0.0,0.0,0.0,0.0,0.0,0.0,0.0,0.0
2025/05/20 13:36:47.462702534,1747741007,461640445,mA1/imu,0.4619428623029601,-0.8869091278468003,-0.0009224437120170611,-0.00037417505895691777,0.0,0.0,0.0,0.0,0.0,0.0,0.0,0.0,0.0,-0.0013701189451343658,-0.0015028490979344712,0.0010393370704409467,0.0,0.0,0.0,0.0,0.0,0.0,0.0,0.0,0.0,0.017059948344055248,0.42511019778031867,9.809241214550033,0.0,0.0,0.0,0.0,0.0,0.0,0.0,0.0,0.0
2025/05/20 13:36:47.514031422,1747741007,512568081,mA1/imu,0.4619138629617506,-0.8869242049993378,-0.0009417628300564224,-0.0003884235030550601,0.0,0.0,0.0,0.0,0.0,0.0,0.0,0.0,0.0,0.00028092773672587544,-0.00010205325181971012,0.0017082401087873244,0.0,0.0,0.0,0.0,0.0,0.0,0.0,0.0,0.0,-0.03559457174643296,-0.5851163411787011,9.809104219354536,0.0,0.0,0.0,0.0,0.0,0.0,0.0,0.0,0.0
2025/05/20 13:36:47.563309317,1747741007,562395063,mA1/imu,0.4618705703811869,-0.8869467528495671,-0.0009461614875660297,-0.00037229532033820765,0.0,0.0,0.0,0.0,0.0,0.0,0.0,0.0,0.0,-0.00037385390684636975,0.0006422770730222966,0.0019650387432341527,0.0,0.0,0.0,0.0,0.0,0.0,0.0,0.0,0.0,0.01877759142118702,-0.43122799536921597,9.810117091860237,0.0,0.0,0.0,0.0,0.0,0.0,0.0,0.0,0.0
2025/05/20 13:36:47.614445971,1747741007,613476304,mA1/imu,0.46182743238226975,-0.8869692237639089,-0.0009478713399580247,-0.0003468930265699618,0.0,0.0,0.0,0.0,0.0,0.0,0.0,0.0,0.0,-0.0009832276629594698,0.0010083539622086797,0.0019039646412656345,0.0,0.0,0.0,0.0,0.0,0.0,0.0,0.0,0.0,0.019015412198939464,-0.031197435169598012,9.80901574023763,0.0,0.0,0.0,0.0,0.0,0.0,0.0,0.0,0.0
2025/05/20 13:36:47.664330560,1747741007,663368581,mA1/imu,0.46178567604712045,-0.8869909798426577,-0.0009445854581123859,-0.0003143783993801656,0.0,0.0,0.0,0.0,0.0,0.0,0.0,0.0,0.0,9.002965993034903e-05,0.0013360699025710171,0.0018892800512392814,0.0,0.0,0.0,0.0,0.0,0.0,0.0,0.0,0.0,0.017643922840353904,-0.5818063124421399,9.808840539000146,0.0,0.0,0.0,0.0,0.0,0.0,0.0,0.0,0.0
2025/05/20 13:36:47.715489117,1747741007,714465021,mA1/imu,0.46174367431946456,-0.88701286219382,-0.0009416839616097674,-0.0002734227565490046,0.0,0.0,0.0,0.0,0.0,0.0,0.0,0.0,0.0,-0.0017642905088254546,0.0015998801367834866,0.0019000400033926791,0.0,0.0,0.0,0.0,0.0,0.0,0.0,0.0,0.0,0.018721967006778494,0.45754986040793605,9.81201237397788,0.0,0.0,0.0,0.0,0.0,0.0,0.0,0.0,0.0
2025/05/20 13:36:47.766724238,1747741007,764242727,mA1/imu,0.46170147177341375,-0.8870348547003456,-0.0009294108737584535,-0.00023174215873130892,0.0,0.0,0.0,0.0,0.0,0.0,0.0,0.0,0.0,-0.0007722049115652272,0.0017729871349362449,0.001908068082190038,0.0,0.0,0.0,0.0,0.0,0.0,0.0,0.0,0.0,0.01774498957722238,-0.01782773623748287,9.808768631281161,0.0,0.0,0.0,0.0,0.0,0.0,0.0,0.0,0.0
2025/05/20 13:36:47.817049091,1747741007,815331223,mA1/imu,0.46165948521863104,-0.8870567360939109,-0.0009119037255195477,-0.00018732240052849678,0.0,0.0,0.0,0.0,0.0,0.0,0.0,0.0,0.0,-2.4492894369852075e-06,0.0019854608158452547,0.0018666075714551876,0.0,0.0,0.0,0.0,0.0,0.0,0.0,0.0,0.0,0.013451417026735668,-0.11826514157841282,9.810094036090486,0.0,0.0,0.0,0.0,0.0,0.0,0.0,0.0,0.0
2025/05/20 13:36:47.867862825,1747741007,865173315,mA1/imu,0.46161945014781136,-0.8870775923888801,-0.0009001395618419866,-0.00013444534021722995,0.0,0.0,0.0,0.0,0.0,0.0,0.0,0.0,0.0,-0.0014297803598444093,0.0021621841490313,0.0017661832933943843,0.0,0.0,0.0,0.0,0.0,0.0,0.0,0.0,0.0,0.01205673487191944,0.37425005453570453,9.810016140790381,0.0,0.0,0.0,0.0,0.0,0.0,0.0,0.0,0.0
2025/05/20 13:36:47.917091705,1747741007,916085077,mA1/imu,0.4615789741383828,-0.8870986857841394,-0.0008751381395183048,-8.029101758471441e-05,0.0,0.0,0.0,0.0,0.0,0.0,0.0,0.0,0.0,0.00026833161614903226,0.002520777778380822,0.0018683029319629019,0.0,0.0,0.0,0.0,0.0,0.0,0.0,0.0,0.0,0.0029884572054832883,-0.5953756056049829,9.80984526597647,0.0,0.0,0.0,0.0,0.0,0.0,0.0,0.0,0.0
2025/05/20 13:36:47.967770531,1747741007,966013836,mA1/imu,0.46153694519723476,-0.8871205832590255,-0.0008476703630957674,-2.076358546091681e-05,0.0,0.0,0.0,0.0,0.0,0.0,0.0,0.0,0.0,0.0012540629323198815,0.0026289121498879334,0.0019038766537650268,0.0,0.0,0.0,0.0,0.0,0.0,0.0,0.0,0.0,0.007767877121285377,-0.5337630491474098,9.809794351553757,0.0,0.0,0.0,0.0,0.0,0.0,0.0,0.0,0.0
2025/05/20 13:36:48.18340905,1747741008,16960616,mA1/imu,0.4615000102235486,-0.8871398188654033,-0.0008254418654477478,3.15095313798791e-05,0.0,0.0,0.0,0.0,0.0,0.0,0.0,0.0,0.0,-0.00032501581136074677,0.0016982297681367056,0.0012971958456902152,0.0,0.0,0.0,0.0,0.0,0.0,0.0,0.0,0.0,0.05082403255715261,-0.07236626156626544,9.815233095453605,0.0,0.0,0.0,0.0,0.0,0.0,0.0,0.0,0.0
2025/05/20 13:36:48.68434137,1747741008,66882222,mA1/imu,0.46147603830115047,-0.8871523033368819,-0.000808020457881561,6.213597780197725e-05,0.0,0.0,0.0,0.0,0.0,0.0,0.0,0.0,0.0,-9.042873900576145e-05,0.0014066724413786136,0.0010810622009558442,0.0,0.0,0.0,0.0,0.0,0.0,0.0,0.0,0.0,0.003421921698447657,-0.0018021410548083993,9.810987412916942,0.0,0.0,0.0,0.0,0.0,0.0,0.0,0.0,0.0
2025/05/20 13:36:48.119472073,1747741008,118459254,mA1/imu,0.4614515989053169,-0.8871650279137354,-0.0007915025493066888,9.294225188762002e-05,0.0,0.0,0.0,0.0,0.0,0.0,0.0,0.0,0.0,-0.0001390969537239865,0.0014084795252976199,0.0011346050532310501,0.0,0.0,0.0,0.0,0.0,0.0,0.0,0.0,0.0,-7.951879542041247e-05,0.3542250336309323,9.810226927834545,0.0,0.0,0.0,0.0,0.0,0.0,0.0,0.0,0.0
