time,header_stamp_secs,header_stamp_nsecs,header_frame_id,orientation_x,orientation_y,orientation_z,orientation_w,orientation_covariance_0,orientation_covariance_1,orientation_covariance_2,orientation_covariance_3,orientation_covariance_4,orientation_covariance_5,orientation_covariance_6,orientation_covariance_7,orientation_covariance_8,angular_velocity_x,angular_velocity_y,angular_velocity_z,angular_velocity_covariance_0,angular_velocity_covariance_1,angular_velocity_covariance_2,angular_velocity_covariance_3,angular_velocity_covariance_4,angular_velocity_covariance_5,angular_velocity_covariance_6,angular_velocity_covariance_7,angular_velocity_covariance_8,linear_acceleration_x,linear_acceleration_y,linear_acceleration_z,linear_acceleration_covariance_0,linear_acceleration_covariance_1,linear_acceleration_covariance_2,linear_acceleration_covariance_3,linear_acceleration_covariance_4,linear_acceleration_covariance_5,linear_acceleration_covariance_6,linear_acceleration_covariance_7,linear_acceleration_covariance_8
2025/05/19 02:18:25.226137565,1747613905,222467061,mA1/imu,0.1959625945440906,0.9806110040268639,0.0007139336264868038,0.0004589332752544487,0.0,0.0,0.0,0.0,0.0,0.0,0.0,0.0,0.0,0.0016585835232318965,-0.0008608313751722335,4.8127974657727615e-05,0.0,0.0,0.0,0.0,0.0,0.0,0.0,0.0,0.0,0.008111125553094003,-0.5339934734698155,9.808884022457057,0.0,0.0,0.0,0.0,0.0,0.0,0.0,0.0,0.0
2025/05/19 02:18:25.281121222,1747613905,277688896,mA1/imu,0.1959637700370703,0.980610761732451,0.0007083906505447282,0.0004826904252952781,0.0,0.0,0.0,0.0,0.0,0.0,0.0,0.0,0.0,-8.006379421426217e-05,-0.0010437310182142402,4.667520192313011e-05,0.0,0.0,0.0,0.0,0.0,0.0,0.0,0.0,0.0,0.008872585810846226,0.6020391958014081,9.811115538307087,0.0,0.0,0.0,0.0,0.0,0.0,0.0,0.0,0.0
2025/05/19 02:18:25.337044213,1747613905,327896746,mA1/imu,0.19596491294226215,0.9806105179476521,0.0007094851336095399,0.0005114849112569334,0.0,0.0,0.0,0.0,0.0,0.0,0.0,0.0,0.0,-0.001549621587494074,-0.0011614689642681628,4.545056755296101e-05,0.0,0.0,0.0,0.0,0.0,0.0,0.0,0.0,0.0,0.008440167856792937,0.5026644077962945,9.810550690725327,0.0,0.0,0.0,0.0,0.0,0.0,0.0,0.0,0.0
2025/05/19 02:18:25.386650559,1747613905,379494955,mA1/imu,0.19596603498583665,0.9806102835603168,0.0007019436335622349,0.0005405393787702517,0.0,0.0,0.0,0.0,0.0,0.0,0.0,0.0,0.0,0.00017235208974330276,-0.001214052455463076,4.4491134185737715e-05,0.0,0.0,0.0,0.0,0.0,0.0,0.0,0.0,0.0,0.00742496417712952,-0.633353388783005,9.809276268591345,0.0,0.0,0.0,0.0,0.0,0.0,0.0,0.0,0.0
2025/05/19 02:18:25.427967740,1747613905,425644223,mA1/imu,0.19596713853918543,0.9806100575407957,0.0006874987231298089,0.000568338021569422,0.0,0.0,0.0,0.0,0.0,0.0,0.0,0.0,0.0,0.0016211001238929683,-0.001188751365583556,4.3667846857696585e-05,0.0,0.0,0.0,0.0,0.0,0.0,0.0,0.0,0.0,0.006924063059110768,-0.53397428596121,9.808850273294725,0.0,0.0,0.0,0.0,0.0,0.0,0.0,0.0,0.0
2025/05/19 02:18:25.480952071,1747613905,476477322,mA1/imu,0.19596821603478717,0.9806098292572403,0.0006822821007810541,0.0005962879876129176,0.0,0.0,0.0,0.0,0.0,0.0,0.0,0.0,0.0,-0.00013338291249312347,-0.0010939349074148936,4.2857805501618165e-05,0.0,0.0,0.0,0.0,0.0,0.0,0.0,0.0,0.0,0.007756713918276708,0.6014444085018298,9.811102442841195,0.0,0.0,0.0,0.0,0.0,0.0,0.0,0.0,0.0
2025/05/19 02:18:25.528277365,1747613905,527403506,mA1/imu,0.19596926904623135,0.9806096004672512,0.0006852449470514527,0.000622495225852635,0.0,0.0,0.0,0.0,0.0,0.0,0.0,0.0,0.0,-0.0016026777182566105,-0.0009359026345852502,4.2152367876909205e-05,0.0,0.0,0.0,0.0,0.0,0.0,0.0,0.0,0.0,0.007494770552629452,0.502429370491624,9.810572492446388,0.0,0.0,0.0,0.0,0.0,0.0,0.0,0.0,0.0
2025/05/19 02:18:25.585131274,1747613905,580282704,mA1/imu,0.19597030817336056,0.9806093829868384,0.0006808809567134707,0.0006424279981811977,0.0,0.0,0.0,0.0,0.0,0.0,0.0,0.0,0.0,0.00011919701810134321,-0.0007299316222468647,4.15654668511347e-05,0.0,0.0,0.0,0.0,0.0,0.0,0.0,0.0,0.0,0.0065806840602666665,-0.6334125390072224,9.80927157596677,0.0,0.0,0.0,0.0,0.0,0.0,0.0,0.0,0.0
2025/05/19 02:18:25.622681308,1747613905,621021984,mA1/imu,0.19597133206278677,0.9806091768552033,0.0006707657483011154,0.0006552482038249831,0.0,0.0,0.0,0.0,0.0,0.0,0.0,0.0,0.0,0.0015694377341600087,-0.0004815458712360707,4.093974842120759e-05,0.0,0.0,0.0,0.0,0.0,0.0,0.0,0.0,0.0,0.006421144319566214,-0.5340670891704966,9.808855282856637,0.0,0.0,0.0,0.0,0.0,0.0,0.0,0.0,0.0
2025/05/19 02:18:25.674942085,1747613905,671711570,mA1/imu,0.19597232986314023,0.9806089720284084,0.0006706869338497044,0.0006633886020071363,0.0,0.0,0.0,0.0,0.0,0.0,0.0,0.0,0.0,-0.00017327767345408864,-0.00021034920237117925,4.0305541738547896e-05,0.0,0.0,0.0,0.0,0.0,0.0,0.0,0.0,0.0,0.0073939989842145976,0.6020068255848319,9.81116653720149,0.0,0.0,0.0,0.0,0.0,0.0,0.0,0.0,0.0
2025/05/19 02:18:25.728057027,1747613905,724215322,mA1/imu,0.19597330347525452,0.9806087695241265,0.0006793360481859258,0.0006663031655122616,0.0,0.0,0.0,0.0,0.0,0.0,0.0,0.0,0.0,-0.001642688249752188,6.366176110093763e-05,3.96567293111622e-05,0.0,0.0,0.0,0.0,0.0,0.0,0.0,0.0,0.0,0.007592863830527676,0.5026748063431274,9.810623640156477,0.0,0.0,0.0,0.0,0.0,0.0,0.0,0.0,0.0
2025/05/19 02:18:25.777786695,1747613905,774589212,mA1/imu,0.1959742644289415,0.9806085799447141,0.000680981924611559,0.0006609719849773683,0.0,0.0,0.0,0.0,0.0,0.0,0.0,0.0,0.0,8.350750079099762e-05,0.00032547065966561067,3.91649714685978e-05,0.0,0.0,0.0,0.0,0.0,0.0,0.0,0.0,0.0,0.0067813158786028255,-0.6333404359463134,9.809290131245563,0.0,0.0,0.0,0.0,0.0,0.0,0.0,0.0,0.0
2025/05/19 02:18:25.832121236,1747613905,828914608,mA1/imu,0.19597521387319372,0.9806084016827834,0.0006768097445912145,0.0006480934056351807,0.0,0.0,0.0,0.0,0.0,0.0,0.0,0.0,0.0,0.0015406962672549463,0.0005645290505444108,3.872397309015564e-05,0.0,0.0,0.0,0.0,0.0,0.0,0.0,0.0,0.0,0.0070048181198829485,-0.533935590354564,9.808882812160267,0.0,0.0,0.0,0.0,0.0,0.0,0.0,0.0,0.0
2025/05/19 02:18:25.882888961,1747613905,878120418,mA1/imu,0.1959761421514212,0.9806082231794907,0.0006822637944117519,0.0006315507288037122,0.0,0.0,0.0,0.0,0.0,0.0,0.0,0.0,0.0,-0.0001932306850024302,0.0007705488199904574,3.821007165469783e-05,0.0,0.0,0.0,0.0,0.0,0.0,0.0,0.0,0.0,0.008013829821464988,0.6020767941572591,9.811200063236054,0.0,0.0,0.0,0.0,0.0,0.0,0.0,0.0,0.0
2025/05/19 02:18:25.925484383,1747613905,923039914,mA1/imu,0.195977050777162,0.9806080444262042,0.0006957305804649961,0.0006121554221411434,0.0,0.0,0.0,0.0,0.0,0.0,0.0,0.0,0.0,-0.0016527926912857105,0.0009245411894600461,3.7673489988983676e-05,0.0,0.0,0.0,0.0,0.0,0.0,0.0,0.0,0.0,0.008415774661395356,0.5027058746428987,9.810638987671162,0.0,0.0,0.0,0.0,0.0,0.0,0.0,0.0,0.0
2025/05/19 02:18:25.978284968,1747613905,973974814,mA1/imu,0.1959779495836645,0.9806078756146713,0.0007012284178384628,0.0005880800708456286,0.0,0.0,0.0,0.0,0.0,0.0,0.0,0.0,0.0,8.345771613512926e-05,0.0010216522930006767,3.7147118984269725e-05,0.0,0.0,0.0,0.0,0.0,0.0,0.0,0.0,0.0,0.0076056912076955165,-0.6333158568576335,9.809310975324609,0.0,0.0,0.0,0.0,0.0,0.0,0.0,0.0,0.0
2025/05/19 02:18:26.35680905,1747613906,31394366,mA1/imu,0.19597883639297126,0.9806077152885425,0.0006997357975814456,0.0005610458582191366,0.0,0.0,0.0,0.0,0.0,0.0,0.0,0.0,0.0,0.0015504453736026106,0.0010567784250437647,3.65267668232241e-05,0.0,0.0,0.0,0.0,0.0,0.0,0.0,0.0,0.0,0.007973222995397409,-0.533939284781593,9.808888026150726,0.0,0.0,0.0,0.0,0.0,0.0,0.0,0.0,0.0
2025/05/19 02:18:26.91740112,1747613906,80935435,mA1/imu,0.19597970073649265,0.9806075518399598,0.00070655506582128,0.0005356805150797785,0.0,0.0,0.0,0.0,0.0,0.0,0.0,0.0,0.0,-0.0001738821997553022,0.0010342555561723072,3.575011301979493e-05,0.0,0.0,0.0,0.0,0.0,0.0,0.0,0.0,0.0,0.008961200459682114,0.6020820281175892,9.811204556155309,0.0,0.0,0.0,0.0,0.0,0.0,0.0,0.0,0.0
2025/05/19 02:18:26.129033777,1747613906,123490116,mA1/imu,0.19598054285080818,0.9806073857558413,0.0007200013830009433,0.000513247509617526,0.0,0.0,0.0,0.0,0.0,0.0,0.0,0.0,0.0,-0.00162477152153331,0.000946445875531165,3.488616296079528e-05,0.0,0.0,0.0,0.0,0.0,0.0,0.0,0.0,0.0,0.009337640167099306,0.5027093526972258,9.810638691437383,0.0,0.0,0.0,0.0,0.0,0.0,0.0,0.0,0.0
2025/05/19 02:18:26.180512301,1747613906,178309195,mA1/imu,0.1959813703872123,0.9806072282267023,0.0007241047130896036,0.0004920193681500814,0.0,0.0,0.0,0.0,0.0,0.0,0.0,0.0,0.0,0.00011857516059497598,0.0008036861140261034,3.40158370221104e-05,0.0,0.0,0.0,0.0,0.0,0.0,0.0,0.0,0.0,0.008469300111526093,-0.6333246233042472,9.80930793817474,0.0,0.0,0.0,0.0,0.0,0.0,0.0,0.0,0.0
2025/05/19 02:18:26.238134834,1747613906,228825696,mA1/imu,0.19598218117798533,0.9806070783902927,0.0007199352595398284,0.00047346044796445837,0.0,0.0,0.0,0.0,0.0,0.0,0.0,0.0,0.0,0.0015909678435677588,0.0006160818459170343,3.3062378143889536e-05,0.0,0.0,0.0,0.0,0.0,0.0,0.0,0.0,0.0,0.008609561877370765,-0.5339382504940453,9.808893270591241,0.0,0.0,0.0,0.0,0.0,0.0,0.0,0.0,0.0
2025/05/19 02:18:26.285977567,1747613906,275013856,mA1/imu,0.19598296612687804,0.9806069249352445,0.0007229562613835232,0.0004616182391717025,0.0,0.0,0.0,0.0,0.0,0.0,0.0,0.0,0.0,-0.00012952907818533,0.00039929615823875066,3.196273635635872e-05,0.0,0.0,0.0,0.0,0.0,0.0,0.0,0.0,0.0,0.0094848623194979,0.6020926086652991,9.811194155435526,0.0,0.0,0.0,0.0,0.0,0.0,0.0,0.0,0.0
2025/05/19 02:18:26.332438615,1747613906,330826468,mA1/imu,0.19598372496681604,0.9806067690069656,0.0007317136936859481,0.00045685984879377344,0.0,0.0,0.0,0.0,0.0,0.0,0.0,0.0,0.0,-0.001578916344865398,0.0001596682184340156,3.0800399532907914e-05,0.0,0.0,0.0,0.0,0.0,0.0,0.0,0.0,0.0,0.009518858096361809,0.5027065307080472,9.81062137593238,0.0,0.0,0.0,0.0,0.0,0.0,0.0,0.0,0.0
2025/05/19 02:18:26.373999013,1747613906,370463563,mA1/imu,0.19598446451752716,0.9806066223443549,0.0007305205897799053,0.00045631331505270655,0.0,0.0,0.0,0.0,0.0,0.0,0.0,0.0,0.0,0.00016374312993783205,-8.586371930445282e-05,2.9706130678540505e-05,0.0,0.0,0.0,0.0,0.0,0.0,0.0,0.0,0.0,0.00852454113182903,-0.6333076461785615,9.809299201053618,0.0,0.0,0.0,0.0,0.0,0.0,0.0,0.0,0.0
2025/05/19 02:18:26.434856207,1747613906,422065493,mA1/imu,0.19598518520044791,0.9806064837591143,0.0007207672046832831,0.00046009365204346584,0.0,0.0,0.0,0.0,0.0,0.0,0.0,0.0,0.0,0.0016336707253160744,-0.0003164582931895819,2.868167289794415e-05,0.0,0.0,0.0,0.0,0.0,0.0,0.0,0.0,0.0,0.008255592363846861,-0.5340373098074559,9.808854679524755,0.0,0.0,0.0,0.0,0.0,0.0,0.0,0.0,0.0
2025/05/19 02:18:26.478620460,1747613906,477602968,mA1/imu,0.19598588015943633,0.9806063416989268,0.000718137951520389,0.00047082466098856803,0.0,0.0,0.0,0.0,0.0,0.0,0.0,0.0,0.0,-8.69906042252985e-05,-0.0005209977449157544,2.760126535989722e-05,0.0,0.0,0.0,0.0,0.0,0.0,0.0,0.0,0.0,0.00905765789131618,0.6023248127478797,9.811151994184607,0.0,0.0,0.0,0.0,0.0,0.0,0.0,0.0,0.0
2025/05/19 02:18:26.529744704,1747613906,528636566,mA1/imu,0.19598655135198234,0.9806061965958722,0.0007219156191168243,0.0004875702753534727,0.0,0.0,0.0,0.0,0.0,0.0,0.0,0.0,0.0,-0.0015597949223069428,-0.0006910565162442155,2.66716184912154e-05,0.0,0.0,0.0,0.0,0.0,0.0,0.0,0.0,0.0,0.008805156634223122,0.5018125924631501,9.810579705572502,0.0,0.0,0.0,0.0,0.0,0.0,0.0,0.0,0.0
2025/05/19 02:18:26.580732164,1747613906,579583018,mA1/imu,0.19598720956374313,0.9806060596619267,0.0007163943179064295,0.0005061826827600458,0.0,0.0,0.0,0.0,0.0,0.0,0.0,0.0,0.0,0.0001827462288364508,-0.0008217263163083529,2.596177436549142e-05,0.0,0.0,0.0,0.0,0.0,0.0,0.0,0.0,0.0,0.007786261752571083,-0.6336992739006273,9.80924068861471,0.0,0.0,0.0,0.0,0.0,0.0,0.0,0.0,0.0
2025/05/19 02:18:26.621672060,1747613906,620422993,mA1/imu,0.19598785670552288,0.9806059296838993,0.0007030832651714982,0.0005257058807430798,0.0,0.0,0.0,0.0,0.0,0.0,0.0,0.0,0.0,0.0016477911141194982,-0.0008969500660154723,2.5365394646068258e-05,0.0,0.0,0.0,0.0,0.0,0.0,0.0,0.0,0.0,0.007370077225545749,-0.5341120078102385,9.808804196947296,0.0,0.0,0.0,0.0,0.0,0.0,0.0,0.0,0.0
2025/05/19 02:18:26.672366904,1747613906,670256765,mA1/imu,0.19598848585266618,0.9806057953594091,0.0006980168591423112,0.0005479901317287609,0.0,0.0,0.0,0.0,0.0,0.0,0.0,0.0,0.0,-8.488852782674723e-05,-0.0009179820626802954,2.4782544523504822e-05,0.0,0.0,0.0,0.0,0.0,0.0,0.0,0.0,0.0,0.008200642750150469,0.6019842892615014,9.811160506893088,0.0,0.0,0.0,0.0,0.0,0.0,0.0,0.0,0.0
2025/05/19 02:18:26.722443891,1747613906,721205776,mA1/imu,0.1959890989320581,0.9806056578675353,0.0007002127810391716,0.0005714543197612021,0.0,0.0,0.0,0.0,0.0,0.0,0.0,0.0,0.0,-0.0015490594577494533,-0.0008845723184108423,2.4319305733237547e-05,0.0,0.0,0.0,0.0,0.0,0.0,0.0,0.0,0.0,0.007914490737276755,0.5026447810880585,9.810604656787753,0.0,0.0,0.0,0.0,0.0,0.0,0.0,0.0,0.0
2025/05/19 02:18:26.772824818,1747613906,771131597,mA1/imu,0.19598970664921445,0.980605528582811,0.0006943315656097221,0.0005916959165560461,0.0,0.0,0.0,0.0,0.0,0.0,0.0,0.0,0.0,0.00017834791094815188,-0.0008036936091354947,2.402985495195481e-05,0.0,0.0,0.0,0.0,0.0,0.0,0.0,0.0,0.0,0.006959540618572051,-0.6333385052035487,9.80922695873369,0.0,0.0,0.0,0.0,0.0,0.0,0.0,0.0,0.0
2025/05/19 02:18:26.829183725,1747613906,822474792,mA1/imu,0.19599030942761242,0.9806054069265117,0.0006820012163117835,0.0006077756987100168,0.0,0.0,0.0,0.0,0.0,0.0,0.0,0.0,0.0,0.00163203203520816,-0.0006726236449448587,2.3786008940982793e-05,0.0,0.0,0.0,0.0,0.0,0.0,0.0,0.0,0.0,0.0066911566208374285,-0.5339841158464769,9.808814821977522,0.0,0.0,0.0,0.0,0.0,0.0,0.0,0.0,0.0
2025/05/19 02:18:26.883733755,1747613906,877888986,mA1/imu,0.19599089760616004,0.9806052825583306,0.0006791236554038227,0.0006218241624704179,0.0,0.0,0.0,0.0,0.0,0.0,0.0,0.0,0.0,-0.00010952389564098671,-0.0005032164794860143,2.348375949021765e-05,0.0,0.0,0.0,0.0,0.0,0.0,0.0,0.0,0.0,0.007591114887207234,0.6020095745684978,9.811192690936466,0.0,0.0,0.0,0.0,0.0,0.0,0.0,0.0,0.0
2025/05/19 02:18:26.935884426,1747613906,930686489,mA1/imu,0.195991471898683,0.9806051569615442,0.0006845472511905633,0.0006328336859112171,0.0,0.0,0.0,0.0,0.0,0.0,0.0,0.0,0.0,-0.001580587617423922,-0.00030923749811145434,2.3223051447683513e-05,0.0,0.0,0.0,0.0,0.0,0.0,0.0,0.0,0.0,0.007594117959190738,0.5027525253226595,9.81063984858999,0.0,0.0,0.0,0.0,0.0,0.0,0.0,0.0,0.0
2025/05/19 02:18:26.980999322,1747613906,972164979,mA1/imu,0.19599204349090124,0.9806050411361206,0.0006827189746891216,0.0006372452350141862,0.0,0.0,0.0,0.0,0.0,0.0,0.0,0.0,0.0,0.00014155130425914415,-0.0001049895777373302,2.3115685606993814e-05,0.0,0.0,0.0,0.0,0.0,0.0,0.0,0.0,0.0,0.006731487155654055,-0.6332888186457415,9.809255320030081,0.0,0.0,0.0,0.0,0.0,0.0,0.0,0.0,0.0
2025/05/19 02:18:27.32697493,1747613907,26466278,mA1/imu,0.19599261221934433,0.9806049341478889,0.0006750104966551602,0.000635170120182276,0.0,0.0,0.0,0.0,0.0,0.0,0.0,0.0,0.0,0.001591803225840869,0.00010256312032062784,2.2961922291589664e-05,0.0,0.0,0.0,0.0,0.0,0.0,0.0,0.0,0.0,0.006789220709337055,-0.5339696113716537,9.808849335375566,0.0,0.0,0.0,0.0,0.0,0.0,0.0,0.0,0.0
2025/05/19 02:18:27.87820342,1747613907,81461466,mA1/imu,0.1959931666891143,0.9806048253359738,0.0006770500328397351,0.0006298747732658799,0.0,0.0,0.0,0.0,0.0,0.0,0.0,0.0,0.0,-0.0001512356336895676,0.00030216969836055566,2.2714243037277054e-05,0.0,0.0,0.0,0.0,0.0,0.0,0.0,0.0,0.0,0.007786147845514898,0.6020533548822097,9.811234212952481,0.0,0.0,0.0,0.0,0.0,0.0,0.0,0.0,0.0
2025/05/19 02:18:27.129978349,1747613907,125808827,mA1/imu,0.19599370842462113,0.9806047154396378,0.0006870866871392184,0.0006214719590928717,0.0,0.0,0.0,0.0,0.0,0.0,0.0,0.0,0.0,-0.0016131138392852175,0.00047730609990014706,2.2477501908432593e-05,0.0,0.0,0.0,0.0,0.0,0.0,0.0,0.0,0.0,0.008052541190758907,0.5032925769716432,9.810640430960026,0.0,0.0,0.0,0.0,0.0,0.0,0.0,0.0,0.0
2025/05/19 02:18:27.203485539,1747613907,181907822,mA1/imu,0.19599424763361228,0.9806046144613606,0.0006898060227070697,0.0006075847854178946,0.0,0.0,0.0,0.0,0.0,0.0,0.0,0.0,0.0,0.0001057411719673472,0.0006204606720968844,2.2299189982191584e-05,0.0,0.0,0.0,0.0,0.0,0.0,0.0,0.0,0.0,0.007239957450895567,-0.6330699765150939,9.809303836358156,0.0,0.0,0.0,0.0,0.0,0.0,0.0,0.0,0.0
2025/05/19 02:18:27.239128337,1747613907,227856734,mA1/imu,0.19599478294829523,0.9806045211082455,0.0006862329966798509,0.0005893414913384692,0.0,0.0,0.0,0.0,0.0,0.0,0.0,0.0,0.0,0.0015572530230496778,0.0007250988684294773,2.206553829678467e-05,0.0,0.0,0.0,0.0,0.0,0.0,0.0,0.0,0.0,0.007482349446832504,-0.5338256926504265,9.808899758282072,0.0,0.0,0.0,0.0,0.0,0.0,0.0,0.0,0.0
2025/05/19 02:18:27.279923578,1747613907,273224331,mA1/imu,0.19599530391759576,0.9806044240382003,0.0006917426041548361,0.0005708687487213613,0.0,0.0,0.0,0.0,0.0,0.0,0.0,0.0,0.0,-0.0001824616599784699,0.0007898534976032255,2.1699867960225004e-05,0.0,0.0,0.0,0.0,0.0,0.0,0.0,0.0,0.0,0.008471277391408807,0.6021017654262821,9.81120519339512,0.0,0.0,0.0,0.0,0.0,0.0,0.0,0.0,0.0
2025/05/19 02:18:27.329755333,1747613907,326039164,mA1/imu,0.19599581100204988,0.9806043236711638,0.0007047034322455643,0.0005530462373244175,0.0,0.0,0.0,0.0,0.0,0.0,0.0,0.0,0.0,-0.0016477410516383426,0.0008031085663533638,2.1272118892173124e-05,0.0,0.0,0.0,0.0,0.0,0.0,0.0,0.0,0.0,0.008806846072643879,0.5026979430006655,9.810637927843544,0.0,0.0,0.0,0.0,0.0,0.0,0.0,0.0,0.0
2025/05/19 02:18:27.421490150,1747613907,379721983,mA1/imu,0.1959963126986567,0.9806042307946661,0.000709157509677238,0.0005339023865419246,0.0,0.0,0.0,0.0,0.0,0.0,0.0,0.0,0.0,8.363930837658573e-05,0.0007681253249830138,2.0853054270809602e-05,0.0,0.0,0.0,0.0,0.0,0.0,0.0,0.0,0.0,0.007962744531590623,-0.6333083792546749,9.809314839514034,0.0,0.0,0.0,0.0,0.0,0.0,0.0,0.0,0.0
2025/05/19 02:18:27.429062201,1747613907,422395130,mA1/imu,0.19599680700101718,0.9806041443722808,0.0007061510827826869,0.000514816434413399,0.0,0.0,0.0,0.0,0.0,0.0,0.0,0.0,0.0,0.001545807512046523,0.0006890499207390312,2.0357007190985836e-05,0.0,0.0,0.0,0.0,0.0,0.0,0.0,0.0,0.0,0.008164077300736303,-0.5339182583347726,9.808891105085207,0.0,0.0,0.0,0.0,0.0,0.0,0.0,0.0,0.0
2025/05/19 02:18:27.472552751,1747613907,471064795,mA1/imu,0.19599728441215514,0.9806040530956219,0.000711086141632418,0.0004999119908794412,0.0,0.0,0.0,0.0,0.0,0.0,0.0,0.0,0.0,-0.00018394407519570252,0.0005746551840315057,1.9724378329278803e-05,0.0,0.0,0.0,0.0,0.0,0.0,0.0,0.0,0.0,0.009075800818321496,0.6020703705361311,9.81119208046945,0.0,0.0,0.0,0.0,0.0,0.0,0.0,0.0,0.0
2025/05/19 02:18:27.538981420,1747613907,531900547,mA1/imu,0.19599774525930952,0.9806039578223343,0.000722399371040608,0.0004897913727732372,0.0,0.0,0.0,0.0,0.0,0.0,0.0,0.0,0.0,-0.0016397036862958291,0.0004243906884628117,1.9043120959311093e-05,0.0,0.0,0.0,0.0,0.0,0.0,0.0,0.0,0.0,0.009247976324417142,0.5026910270971185,9.810628211218479,0.0,0.0,0.0,0.0,0.0,0.0,0.0,0.0,0.0
2025/05/19 02:18:27.585761726,1747613907,577033304,mA1/imu,0.19599819720854195,0.9806038700013257,0.0007242512696254761,0.000481964234353872,0.0,0.0,0.0,0.0,0.0,0.0,0.0,0.0,0.0,0.00010042303905323219,0.00025061896018264295,1.84024250069846e-05,0.0,0.0,0.0,0.0,0.0,0.0,0.0,0.0,0.0,0.008315549959048256,-0.6333020404094614,9.809297347880275,0.0,0.0,0.0,0.0,0.0,0.0,0.0,0.0,0.0
2025/05/19 02:18:27.648147151,1747613907,631114203,mA1/imu,0.1959986390096221,0.9806037887953668,0.0007178585051831386,0.0004770594449463935,0.0,0.0,0.0,0.0,0.0,0.0,0.0,0.0,0.0,0.0015704337305396303,6.772007906948271e-05,1.773727488619784e-05,0.0,0.0,0.0,0.0,0.0,0.0,0.0,0.0,0.0,0.008219036998285328,-0.5339645196285494,9.808863734698715,0.0,0.0,0.0,0.0,0.0,0.0,0.0,0.0,0.0
2025/05/19 02:18:27.677073580,1747613907,672803405,mA1/imu,0.19599906306200454,0.980603702722608,0.0007188344748289547,0.00047829125554097623,0.0,0.0,0.0,0.0,0.0,0.0,0.0,0.0,0.0,-0.00015265503622609794,-0.0001122574842567139,1.7030609392014208e-05,0.0,0.0,0.0,0.0,0.0,0.0,0.0,0.0,0.0,0.009056882132516838,0.6020041192361574,9.811161602797117,0.0,0.0,0.0,0.0,0.0,0.0,0.0,0.0,0.0
2025/05/19 02:18:27.733523287,1747613907,727277901,mA1/imu,0.19599947120573777,0.980603612561234,0.0007258566693155956,0.0004852329586232238,0.0,0.0,0.0,0.0,0.0,0.0,0.0,0.0,0.0,-0.0016031615046469927,-0.0002833882359537735,1.636467483312691e-05,0.0,0.0,0.0,0.0,0.0,0.0,0.0,0.0,0.0,0.008958294942898492,0.5027511847419487,9.810599355040662,0.0,0.0,0.0,0.0,0.0,0.0,0.0,0.0,0.0
2025/05/19 02:18:27.803018193,1747613907,779471446,mA1/imu,0.19599987163063876,0.98060352983212,0.0007233343888496528,0.0004943570790883179,0.0,0.0,0.0,0.0,0.0,0.0,0.0,0.0,0.0,0.00014034214023417104,-0.00043718930084996326,1.5814059210052505e-05,0.0,0.0,0.0,0.0,0.0,0.0,0.0,0.0,0.0,0.007971698014103901,-0.6332771448421048,9.809270346351635,0.0,0.0,0.0,0.0,0.0,0.0,0.0,0.0,0.0
2025/05/19 02:18:27.836057035,1747613907,828000553,mA1/imu,0.1960002647507931,0.9806034534552389,0.0007127326202307219,0.0005052736784721553,0.0,0.0,0.0,0.0,0.0,0.0,0.0,0.0,0.0,0.0016119361072910153,-0.0005579842131386841,1.5324786995214756e-05,0.0,0.0,0.0,0.0,0.0,0.0,0.0,0.0,0.0,0.0076544910122416645,-0.5339545387634144,9.808837296536462,0.0,0.0,0.0,0.0,0.0,0.0,0.0,0.0,0.0
2025/05/19 02:18:27.900533594,1747613907,879095673,mA1/imu,0.19600064344769633,0.9806033719674139,0.0007098889097603124,0.0005202998774450607,0.0,0.0,0.0,0.0,0.0,0.0,0.0,0.0,0.0,-0.00011113027234141196,-0.000642633421099049,1.4823739563362618e-05,0.0,0.0,0.0,0.0,0.0,0.0,0.0,0.0,0.0,0.008489007857115004,0.6020572211539827,9.81112342241895,0.0,0.0,0.0,0.0,0.0,0.0,0.0,0.0,0.0
2025/05/19 02:18:27.968336877,1747613907,926723489,mA1/imu,0.19600100951648586,0.9806032863535616,0.0007136805646867786,0.0005382575264286374,0.0,0.0,0.0,0.0,0.0,0.0,0.0,0.0,0.0,-0.0015637537635545115,-0.0006888880203515303,1.4424292881377509e-05,0.0,0.0,0.0,0.0,0.0,0.0,0.0,0.0,0.0,0.008272538568810921,0.5026922013963224,9.81057029592012,0.0,0.0,0.0,0.0,0.0,0.0,0.0,0.0,0.0
2025/05/19 02:18:27.996625425,1747613907,977946813,mA1/imu,0.19600137308856014,0.9806032079512774,0.0007086801724680329,0.0005550454719423217,0.0,0.0,0.0,0.0,0.0,0.0,0.0,0.0,0.0,0.00017577721806226882,-0.0006980033897029614,1.4190854977456266e-05,0.0,0.0,0.0,0.0,0.0,0.0,0.0,0.0,0.0,0.007309655089576345,-0.6333183233140026,9.809260632126225,0.0,0.0,0.0,0.0,0.0,0.0,0.0,0.0,0.0
2025/05/19 02:18:28.46253685,1747613908,25767336,mA1/imu,0.1960017347579807,0.9806031358888526,0.0006964701711447043,0.0005699000888419936,0.0,0.0,0.0,0.0,0.0,0.0,0.0,0.0,0.0,0.0016417538048280184,-0.0006615574853354177,1.4015299661538158e-05,0.0,0.0,0.0,0.0,0.0,0.0,0.0,0.0,0.0,0.007005205839452806,-0.5339626577745766,9.808846393751015,0.0,0.0,0.0,0.0,0.0,0.0,0.0,0.0,0.0
2025/05/19 02:18:28.83011035,1747613908,72700362,mA1/imu,0.1960020859638811,0.9806030593054547,0.0006929545144189095,0.0005849723337584358,0.0,0.0,0.0,0.0,0.0,0.0,0.0,0.0,0.0,-8.789824330179178e-05,-0.0005855120804634597,1.3808737837329016e-05,0.0,0.0,0.0,0.0,0.0,0.0,0.0,0.0,0.0,0.00788345402294493,0.6020472782375357,9.811140319626363,0.0,0.0,0.0,0.0,0.0,0.0,0.0,0.0,0.0
2025/05/19 02:18:28.135818612,1747613908,121994981,mA1/imu,0.19600242796535786,0.9806029795047729,0.0006970273891576188,0.0005991417739884975,0.0,0.0,0.0,0.0,0.0,0.0,0.0,0.0,0.0,-0.0015481506781577616,-0.00047723212414465133,1.3669597682417683e-05,0.0,0.0,0.0,0.0,0.0,0.0,0.0,0.0,0.0,0.007787305366531976,0.5027081260842262,9.810589119181758,0.0,0.0,0.0,0.0,0.0,0.0,0.0,0.0,0.0
2025/05/19 02:18:28.212461338,1747613908,178580746,mA1/imu,0.19600277114816284,0.980602907785441,0.0006932228697208123,0.0006085943077044453,0.0,0.0,0.0,0.0,0.0,0.0,0.0,0.0,0.0,0.0001830352438713052,-0.0003466412302599624,1.3653089581550541e-05,0.0,0.0,0.0,0.0,0.0,0.0,0.0,0.0,0.0,0.0068951984192747815,-0.6332908756148563,9.809285794462513,0.0,0.0,0.0,0.0,0.0,0.0,0.0,0.0,0.0
2025/05/19 02:18:28.266884340,1747613908,221721251,mA1/imu,0.19600311508027984,0.9806028433949265,0.0006830295586296511,0.0006130866447757432,0.0,0.0,0.0,0.0,0.0,0.0,0.0,0.0,0.0,0.0016403975833584382,-0.0001958376025349722,1.3641260063916837e-05,0.0,0.0,0.0,0.0,0.0,0.0,0.0,0.0,0.0,0.006802554355096149,-0.5340440972358643,9.808879022078274,0.0,0.0,0.0,0.0,0.0,0.0,0.0,0.0,0.0
2025/05/19 02:18:28.290195780,1747613908,276166389,mA1/imu,0.19600345020689994,0.9806027754932867,0.0006822126643869951,0.0006154573378430056,0.0,0.0,0.0,0.0,0.0,0.0,0.0,0.0,0.0,-9.749551028583873e-05,-3.456481395425789e-05,1.3590159055024e-05,0.0,0.0,0.0,0.0,0.0,0.0,0.0,0.0,0.0,0.007740228997669945,0.6019977213732929,9.811176024529754,0.0,0.0,0.0,0.0,0.0,0.0,0.0,0.0,0.0
2025/05/19 02:18:28.329258879,1747613908,325290667,mA1/imu,0.196003838197182,0.9806026930513152,0.0006895694210566375,0.0006150499935134149,0.0,0.0,0.0,0.0,0.0,0.0,0.0,0.0,0.0,-0.0015667641422966341,0.00016642356646865404,2.5725970586574367e-05,0.0,0.0,0.0,0.0,0.0,0.0,0.0,0.0,0.0,0.003987514803686943,0.5017685549418514,9.810608253028658,0.0,0.0,0.0,0.0,0.0,0.0,0.0,0.0,0.0
2025/05/19 02:18:28.384598903,1747613908,374267290,mA1/imu,0.1960048557950797,0.9806024942196488,0.0006898099991244846,0.000607451330284974,0.0,0.0,0.0,0.0,0.0,0.0,0.0,0.0,0.0,0.00015508008771081036,0.000373157675845642,4.3276583869688075e-05,0.0,0.0,0.0,0.0,0.0,0.0,0.0,0.0,0.0,0.005893366357074032,-0.6332886567211452,9.809328240115955,0.0,0.0,0.0,0.0,0.0,0.0,0.0,0.0,0.0
2025/05/19 02:18:28.433662370,1747613908,426233977,mA1/imu,0.1960059101594094,0.9806022956488057,0.0006839463329822872,0.0005942796372657452,0.0,0.0,0.0,0.0,0.0,0.0,0.0,0.0,0.0,0.001606920103335657,0.0005297890929283953,4.3073017544845824e-05,0.0,0.0,0.0,0.0,0.0,0.0,0.0,0.0,0.0,0.0061055253752341325,-0.5339150107952864,9.808904176801326,0.0,0.0,0.0,0.0,0.0,0.0,0.0,0.0,0.0
2025/05/19 02:18:28.509407398,1747613908,478692281,mA1/imu,0.1960069509349288,0.980602094006779,0.0006874772269723941,0.0005794737053213746,0.0,0.0,0.0,0.0,0.0,0.0,0.0,0.0,0.0,-0.00013472541877216957,0.0006557009413612695,4.280391512539379e-05,0.0,0.0,0.0,0.0,0.0,0.0,0.0,0.0,0.0,0.0071148864280932665,0.6021036711431988,9.811193967886595,0.0,0.0,0.0,0.0,0.0,0.0,0.0,0.0,0.0
2025/05/19 02:18:28.547803955,1747613908,528533511,mA1/imu,0.19600797967470227,0.9806018894888814,0.000698878643849936,0.0005637404705878425,0.0,0.0,0.0,0.0,0.0,0.0,0.0,0.0,0.0,-0.0016047404718715114,0.000736316342853401,4.2517660021951996e-05,0.0,0.0,0.0,0.0,0.0,0.0,0.0,0.0,0.0,0.007483440044963501,0.5027160333288152,9.810638206793458,0.0,0.0,0.0,0.0,0.0,0.0,0.0,0.0,0.0
2025/05/19 02:18:28.594959388,1747613908,573236283,mA1/imu,0.19600900571119434,0.9806016925580819,0.0007022714511805042,0.0005450203140881268,0.0,0.0,0.0,0.0,0.0,0.0,0.0,0.0,0.0,0.00011891211306660049,0.0007710393054487089,4.226499497710258e-05,0.0,0.0,0.0,0.0,0.0,0.0,0.0,0.0,0.0,0.006671441541601529,-0.6333149343321589,9.809327699808707,0.0,0.0,0.0,0.0,0.0,0.0,0.0,0.0,0.0
2025/05/19 02:18:28.637998839,1747613908,626671753,mA1/imu,0.1960100273409524,0.9806015019437212,0.0006987432834301922,0.0005247145329984904,0.0,0.0,0.0,0.0,0.0,0.0,0.0,0.0,0.0,0.0015717605636379247,0.0007595465968287215,4.194401022193235e-05,0.0,0.0,0.0,0.0,0.0,0.0,0.0,0.0,0.0,0.0069312435443092575,-0.5339279980152176,9.808901600179745,0.0,0.0,0.0,0.0,0.0,0.0,0.0,0.0,0.0
2025/05/19 02:18:28.698487588,1747613908,679224453,mA1/imu,0.19601103495308314,0.9806013062795151,0.000703703356321968,0.0005070513938447394,0.0,0.0,0.0,0.0,0.0,0.0,0.0,0.0,0.0,-0.0001672554957226403,0.0007071265973692515,4.148236094661557e-05,0.0,0.0,0.0,0.0,0.0,0.0,0.0,0.0,0.0,0.007901933730826417,0.6021047254348357,9.811185227269332,0.0,0.0,0.0,0.0,0.0,0.0,0.0,0.0,0.0
2025/05/19 02:18:28.750055339,1747613908,725674458,mA1/imu,0.19601202881549878,0.9806011062768621,0.0007155696161999706,0.000492837042719648,0.0,0.0,0.0,0.0,0.0,0.0,0.0,0.0,0.0,-0.001633080784075919,0.0006092473754338809,4.0959987208747663e-05,0.0,0.0,0.0,0.0,0.0,0.0,0.0,0.0,0.0,0.008183145315404802,0.5027249293600249,9.810632114553073,0.0,0.0,0.0,0.0,0.0,0.0,0.0,0.0,0.0
2025/05/19 02:18:28.802898637,1747613908,776366622,mA1/imu,0.1960130163786516,0.9806009131881569,0.0007184607963369847,0.00047987371184373155,0.0,0.0,0.0,0.0,0.0,0.0,0.0,0.0,0.0,9.55693973757492e-05,0.00047499658717894326,4.045486364841813e-05,0.0,0.0,0.0,0.0,0.0,0.0,0.0,0.0,0.0,0.007300396081558751,-0.633317097244549,9.809304067003659,0.0,0.0,0.0,0.0,0.0,0.0,0.0,0.0,0.0
2025/05/19 02:18:28.835687614,1747613908,831439689,mA1/imu,0.19601405791701154,0.9806007140490345,0.0007138070239490565,0.0004681719369800331,0.0,0.0,0.0,0.0,0.0,0.0,0.0,0.0,0.0,0.0015513896519706767,0.00042481126578645885,5.22426629616112e-05,0.0,0.0,0.0,0.0,0.0,0.0,0.0,0.0,0.0,0.0003209676065704164,-0.53488640531062,9.808886969532628,0.0,0.0,0.0,0.0,0.0,0.0,0.0,0.0,0.0
2025/05/19 02:18:28.884552059,1747613908,879152035,mA1/imu,0.1960157152728164,0.9806003849378918,0.0007174564414201445,0.0004579104709779412,0.0,0.0,0.0,0.0,0.0,0.0,0.0,0.0,0.0,-0.00017078833766695611,0.0004181816109387089,6.952577221897623e-05,0.0,0.0,0.0,0.0,0.0,0.0,0.0,0.0,0.0,0.004056049864556588,0.6028099655255703,9.811161224836008,0.0,0.0,0.0,0.0,0.0,0.0,0.0,0.0,0.0
2025/05/19 02:18:28.928897549,1747613908,923046382,mA1/imu,0.19601743306824226,0.9806000373533075,0.0007280773376534895,0.00045008823532089663,0.0,0.0,0.0,0.0,0.0,0.0,0.0,0.0,0.0,-0.0016307024322468435,0.00037226172590319935,7.45052943316466e-05,0.0,0.0,0.0,0.0,0.0,0.0,0.0,0.0,0.0,0.005926956471403994,0.504901777876169,9.810619435019529,0.0,0.0,0.0,0.0,0.0,0.0,0.0,0.0,0.0
2025/05/19 02:18:28.998579972,1747613908,976589951,mA1/imu,0.19601954459338464,0.9805996176982864,0.0007296014738818866,0.0004422545259226054,0.0,0.0,0.0,0.0,0.0,0.0,0.0,0.0,0.0,0.00011372772327195866,0.00031447695674132457,8.965632892407795e-05,0.0,0.0,0.0,0.0,0.0,0.0,0.0,0.0,0.0,-0.0002514030488585117,-0.6332006189376588,9.809301811476447,0.0,0.0,0.0,0.0,0.0,0.0,0.0,0.0,0.0
2025/05/19 02:18:29.76386765,1747613909,32664196,mA1/imu,0.19602166209334332,0.9805992028657525,0.0007238257914677906,0.0004329034968642124,0.0,0.0,0.0,0.0,0.0,0.0,0.0,0.0,0.0,0.001577380501422634,0.0002977403328556835,7.129900821846897e-05,0.0,0.0,0.0,0.0,0.0,0.0,0.0,0.0,0.0,0.005380135306438976,-0.535630730120999,9.808869665812821,0.0,0.0,0.0,0.0,0.0,0.0,0.0,0.0,0.0
2025/05/19 02:18:29.107325020,1747613909,73191173,mA1/imu,0.1960219829156805,0.9805991391283345,0.0007260771731080206,0.0004282131624243495,0.0,0.0,0.0,0.0,0.0,0.0,0.0,0.0,0.0,-0.00016347961796417537,0.00013833568951262913,-2.517956922303213e-05,0.0,0.0,0.0,0.0,0.0,0.0,0.0,0.0,0.0,0.006025846074822147,0.6005414581055017,9.811126895857115,0.0,0.0,0.0,0.0,0.0,0.0,0.0,0.0,0.0
2025/05/19 02:18:29.143556540,1747613909,130322343,mA1/imu,0.196020483375366,0.9805994322824267,0.0007349821550734503,0.00042814238506244076,0.0,0.0,0.0,0.0,0.0,0.0,0.0,0.0,0.0,-0.0016262164441966766,3.78469522052263e-05,-7.89750326269625e-05,0.0,0.0,0.0,0.0,0.0,0.0,0.0,0.0,0.0,0.006322282778885084,0.5011351923879743,9.81054611217992,0.0,0.0,0.0,0.0,0.0,0.0,0.0,0.0,0.0
2025/05/19 02:18:29.178674171,1747613909,174431197,mA1/imu,0.19601745653136593,0.980600036912084,0.0007348440280654797,0.00042935678412967654,0.0,0.0,0.0,0.0,0.0,0.0,0.0,0.0,0.0,0.00010624753039859978,-7.277310767082121e-05,-0.0001329753025191488,0.0,0.0,0.0,0.0,0.0,0.0,0.0,0.0,0.0,9.781602166584157e-05,-0.632930867339512,9.809299569361336,0.0,0.0,0.0,0.0,0.0,0.0,0.0,0.0,0.0
2025/05/19 02:18:29.242822073,1747613909,229193207,mA1/imu,0.1960141795417314,0.9806006969856967,0.0007277604256617182,0.0004299471023017978,0.0,0.0,0.0,0.0,0.0,0.0,0.0,0.0,0.0,0.0015581860508769225,-8.385518159983286e-05,-0.0001500804507903654,0.0,0.0,0.0,0.0,0.0,0.0,0.0,0.0,0.0,0.00020512886547914208,-0.5380134742374435,9.808804001254453,0.0,0.0,0.0,0.0,0.0,0.0,0.0,0.0,0.0
2025/05/19 02:18:29.287984049,1747613909,270433920,mA1/imu,0.1960092180296118,0.9806016867487456,0.0007289223537851509,0.0004325102740496352,0.0,0.0,0.0,0.0,0.0,0.0,0.0,0.0,0.0,-0.00016998001374178752,-9.85235346171457e-05,-0.0002133072406960854,0.0,0.0,0.0,0.0,0.0,0.0,0.0,0.0,0.0,0.0014930229872072908,0.6020864729517669,9.81115649394154,0.0,0.0,0.0,0.0,0.0,0.0,0.0,0.0,0.0
2025/05/19 02:18:29.358587768,1747613909,325491217,mA1/imu,0.19600410956482814,0.9806027000314883,0.0007367856369560217,0.00043688852030401967,0.0,0.0,0.0,0.0,0.0,0.0,0.0,0.0,0.0,-0.001613497246667066,-0.00011603031529062453,-0.00020503683964595706,0.0,0.0,0.0,0.0,0.0,0.0,0.0,0.0,0.0,0.001526057544307514,0.5028829397647551,9.810608285049296,0.0,0.0,0.0,0.0,0.0,0.0,0.0,0.0,0.0
2025/05/19 02:18:29.406493152,1747613909,378289253,mA1/imu,0.19599845679181363,0.980603828968734,0.0007355005680422923,0.00044111903125745286,0.0,0.0,0.0,0.0,0.0,0.0,0.0,0.0,0.0,0.00013005490050409582,-0.00021046477477000477,-0.00024563219752046675,0.0,0.0,0.0,0.0,0.0,0.0,0.0,0.0,0.0,0.0017395609527228427,-0.6333912564936892,9.809258073673986,0.0,0.0,0.0,0.0,0.0,0.0,0.0,0.0,0.0
2025/05/19 02:18:29.442664097,1747613909,422751960,mA1/imu,0.1959925783598063,0.9806050089584186,0.0007265160184162808,0.00044475612436317295,0.0,0.0,0.0,0.0,0.0,0.0,0.0,0.0,0.0,0.0016083609846684888,-0.00021545942632311457,-0.00023646783166538166,0.0,0.0,0.0,0.0,0.0,0.0,0.0,0.0,0.0,0.0008135612225025554,-0.5336757074713451,9.808850991153207,0.0,0.0,0.0,0.0,0.0,0.0,0.0,0.0,0.0
2025/05/19 02:18:29.478393445,1747613909,475804605,mA1/imu,0.19598691236250335,0.9806061396538045,0.0007256246151249946,0.00045002754756761135,0.0,0.0,0.0,0.0,0.0,0.0,0.0,0.0,0.0,-0.00010874351530241585,-0.00021148503260865525,-0.0002278389432998033,0.0,0.0,0.0,0.0,0.0,0.0,0.0,0.0,0.0,0.0017957422654441627,0.6022810374186154,9.811196191998445,0.0,0.0,0.0,0.0,0.0,0.0,0.0,0.0,0.0
2025/05/19 02:18:29.530688418,1747613909,528183695,mA1/imu,0.19598110900829888,0.9806072919356477,0.0007314615798888255,0.00045703224153266524,0.0,0.0,0.0,0.0,0.0,0.0,0.0,0.0,0.0,-0.0015577853282343853,-0.0003136158197274559,-0.0002890401553602872,0.0,0.0,0.0,0.0,0.0,0.0,0.0,0.0,0.0,0.01962681631406808,0.501935148021186,9.810565229174305,0.0,0.0,0.0,0.0,0.0,0.0,0.0,0.0,0.0
2025/05/19 02:18:29.581074784,1747613909,579057390,mA1/imu,0.1959701041976012,0.9806094881962921,0.0007269252019384614,0.00047063779936139575,0.0,0.0,0.0,0.0,0.0,0.0,0.0,0.0,0.0,0.00018385380302422715,-0.0006205352673786731,-0.00048543057634002314,0.0,0.0,0.0,0.0,0.0,0.0,0.0,0.0,0.0,0.0006100245034363367,-0.6330234794139432,9.80928595963823,0.0,0.0,0.0,0.0,0.0,0.0,0.0,0.0,0.0
2025/05/19 02:18:29.629951653,1747613909,623169396,mA1/imu,0.19595850365049797,0.9806118092442688,0.0007149323859532375,0.000483000437979467,0.0,0.0,0.0,0.0,0.0,0.0,0.0,0.0,0.0,0.0016539113435210795,-0.0005369794649457522,-0.00045809127696492266,0.0,0.0,0.0,0.0,0.0,0.0,0.0,0.0,0.0,-0.0020332835217866246,-0.5346013299233969,9.808886180627857,0.0,0.0,0.0,0.0,0.0,0.0,0.0,0.0,0.0
2025/05/19 02:18:29.679492976,1747613909,674921656,mA1/imu,0.19594789424905948,0.9806139259719064,0.0007118751654771658,0.0004941285993342943,0.0,0.0,0.0,0.0,0.0,0.0,0.0,0.0,0.0,-7.346464267438558e-05,-0.0004188518334011264,-0.00042546400647279384,0.0,0.0,0.0,0.0,0.0,0.0,0.0,0.0,0.0,0.0016040420178721057,0.602299529934996,9.811215080856767,0.0,0.0,0.0,0.0,0.0,0.0,0.0,0.0,0.0
2025/05/19 02:18:29.730394929,1747613909,727475839,mA1/imu,0.19593767965660805,0.9806159586788764,0.0007163638935905272,0.000504081208186501,0.0,0.0,0.0,0.0,0.0,0.0,0.0,0.0,0.0,-0.0015305030782320408,-0.0003091821790461582,-0.0004110029052615556,0.0,0.0,0.0,0.0,0.0,0.0,0.0,0.0,0.0,0.0016790157418427936,0.5029351713778004,9.810650924196688,0.0,0.0,0.0,0.0,0.0,0.0,0.0,0.0,0.0
2025/05/19 02:18:29.783215884,1747613909,777370381,mA1/imu,0.1959278200507815,0.9806179284402846,0.0007128585528181903,0.0005094941775483224,0.0,0.0,0.0,0.0,0.0,0.0,0.0,0.0,0.0,0.00020382301553771947,-0.00019165215395588732,-0.0003967959757613785,0.0,0.0,0.0,0.0,0.0,0.0,0.0,0.0,0.0,0.0008824157856518163,-0.6330556470504373,9.809295294873387,0.0,0.0,0.0,0.0,0.0,0.0,0.0,0.0,0.0
2025/05/19 02:18:29.823064959,1747613909,821650054,mA1/imu,0.19591829669372438,0.9806198378999291,0.0007027974464302769,0.0005105031792952328,0.0,0.0,0.0,0.0,0.0,0.0,0.0,0.0,0.0,0.001663344591539895,-7.872628132569842e-05,-0.00038363782624303096,0.0,0.0,0.0,0.0,0.0,0.0,0.0,0.0,0.0,0.002808529281070493,-0.5337866268986723,9.808874135819522,0.0,0.0,0.0,0.0,0.0,0.0,0.0,0.0,0.0
2025/05/19 02:18:29.878193457,1747613909,875266182,mA1/imu,0.19590906044028086,0.9806216835415728,0.0007017122899562377,0.0005112781632229529,0.0,0.0,0.0,0.0,0.0,0.0,0.0,0.0,0.0,-7.44280292463936e-05,-1.1906992032267035e-05,-0.0003722802040555556,0.0,0.0,0.0,0.0,0.0,0.0,0.0,0.0,0.0,0.003769539604955896,0.6021945670098243,9.811212318291565,0.0,0.0,0.0,0.0,0.0,0.0,0.0,0.0,0.0
2025/05/19 02:18:29.930542009,1747613909,929131596,mA1/imu,0.1959001876533053,0.9806234511116886,0.0007082823265641848,0.0005118040128718622,0.0,0.0,0.0,0.0,0.0,0.0,0.0,0.0,0.0,-0.0015408478351346209,8.225319931006495e-05,-0.00034170122938153506,0.0,0.0,0.0,0.0,0.0,0.0,0.0,0.0,0.0,-0.0012397076886919408,0.5047199316560219,9.810657417405043,0.0,0.0,0.0,0.0,0.0,0.0,0.0,0.0,0.0
2025/05/19 02:18:29.982823192,1747613909,979471865,mA1/imu,0.19589259188323924,0.980624971579459,0.0007070474814502882,0.0005075863579399588,0.0,0.0,0.0,0.0,0.0,0.0,0.0,0.0,0.0,0.00018631544042625422,0.0001794486636698549,-0.0003034092474434067,0.0,0.0,0.0,0.0,0.0,0.0,0.0,0.0,0.0,0.0031997502420099584,-0.6331450800523847,9.809278010413749,0.0,0.0,0.0,0.0,0.0,0.0,0.0,0.0,0.0
2025/05/19 02:18:30.28095334,1747613910,22034976,mA1/imu,0.1958852832165902,0.9806264407039513,0.0006991551041108713,0.0005007929676502395,0.0,0.0,0.0,0.0,0.0,0.0,0.0,0.0,0.0,0.001635272483214653,0.00021828693734016,-0.0002946734159215956,0.0,0.0,0.0,0.0,0.0,0.0,0.0,0.0,0.0,0.0033353145527588593,-0.533866889328843,9.808852223041397,0.0,0.0,0.0,0.0,0.0,0.0,0.0,0.0,0.0
2025/05/19 02:18:30.77575169,1747613910,71894679,mA1/imu,0.1958781780775431,0.980627862127194,0.0007002429575222448,0.0004950077489496954,0.0,0.0,0.0,0.0,0.0,0.0,0.0,0.0,0.0,-0.00011191705060303601,0.00024504449947323613,-0.0002863183327265998,0.0,0.0,0.0,0.0,0.0,0.0,0.0,0.0,0.0,0.00431812729768616,0.602136389878496,9.811208980960265,0.0,0.0,0.0,0.0,0.0,0.0,0.0,0.0,0.0
2025/05/19 02:18:30.131408297,1747613910,128879782,mA1/imu,0.19587127011865174,0.9806292380316161,0.0007089315545278783,0.000490383206633234,0.0,0.0,0.0,0.0,0.0,0.0,0.0,0.0,0.0,-0.0015885604312374216,0.0002523186697265828,-0.00027826203921549976,0.0,0.0,0.0,0.0,0.0,0.0,0.0,0.0,0.0,0.004496772162202122,0.5028869030362716,9.810642989131459,0.0,0.0,0.0,0.0,0.0,0.0,0.0,0.0,0.0
2025/05/19 02:18:30.183583249,1747613910,179159273,mA1/imu,0.19586456109134437,0.9806305807366407,0.0007094944386749611,0.00048420063565952074,0.0,0.0,0.0,0.0,0.0,0.0,0.0,0.0,0.0,0.00012864916453087565,0.00024166192531615356,-0.0002703866883402633,0.0,0.0,0.0,0.0,0.0,0.0,0.0,0.0,0.0,0.0036647825737364196,-0.6331087614016867,9.809247659173938,0.0,0.0,0.0,0.0,0.0,0.0,0.0,0.0,0.0
2025/05/19 02:18:30.232787495,1747613910,230196244,mA1/imu,0.19585804415246244,0.9806318903822215,0.000703182388318005,0.00047711706239862445,0.0,0.0,0.0,0.0,0.0,0.0,0.0,0.0,0.0,0.0015745876374278463,0.00021647350697093248,-0.0002627645689086584,0.0,0.0,0.0,0.0,0.0,0.0,0.0,0.0,0.0,0.003826161735827849,-0.533857731431035,9.808825468972051,0.0,0.0,0.0,0.0,0.0,0.0,0.0,0.0,0.0
2025/05/19 02:18:30.272852813,1747613910,270281101,mA1/imu,0.1958517057549962,0.9806331567801763,0.0007055671641380486,0.0004726004462212389,0.0,0.0,0.0,0.0,0.0,0.0,0.0,0.0,0.0,-0.0001724725000485144,0.00018042657174650954,-0.0002554420355474526,0.0,0.0,0.0,0.0,0.0,0.0,0.0,0.0,0.0,0.004789140472378175,0.6021373320988072,9.81120808465476,0.0,0.0,0.0,0.0,0.0,0.0,0.0,0.0,0.0
2025/05/19 02:18:30.324593315,1747613910,322458663,mA1/imu,0.1958455414159028,0.9806343818265824,0.0007152165674589283,0.0004706934992698886,0.0,0.0,0.0,0.0,0.0,0.0,0.0,0.0,0.0,-0.0016460476477242482,0.00013073333576920783,-0.0002483543163083604,0.0,0.0,0.0,0.0,0.0,0.0,0.0,0.0,0.0,0.004878313825617007,0.502896215863045,9.81063618920577,0.0,0.0,0.0,0.0,0.0,0.0,0.0,0.0,0.0
2025/05/19 02:18:30.377445364,1747613910,373763468,mA1/imu,0.19583955434827907,0.9806355777059996,0.0007163699910534343,0.00046851245849958983,0.0,0.0,0.0,0.0,0.0,0.0,0.0,0.0,0.0,7.652225485163548e-05,7.020347867554072e-05,-0.00024137252041559818,0.0,0.0,0.0,0.0,0.0,0.0,0.0,0.0,0.0,0.004020567948599944,-0.6331105634611002,9.809227386943478,0.0,0.0,0.0,0.0,0.0,0.0,0.0,0.0,0.0
2025/05/19 02:18:30.427360122,1747613910,424716256,mA1/imu,0.19583373950809804,0.9806367443659659,0.0007102668084277845,0.0004664661339631003,0.0,0.0,0.0,0.0,0.0,0.0,0.0,0.0,0.0,0.0015301589785141007,5.988222759199247e-06,-0.0002345596402733434,0.0,0.0,0.0,0.0,0.0,0.0,0.0,0.0,0.0,0.0041244572669356305,-0.5338612982306978,9.808810167355817,0.0,0.0,0.0,0.0,0.0,0.0,0.0,0.0,0.0
2025/05/19 02:18:30.479207383,1747613910,475939735,mA1/imu,0.1958280849348188,0.9806378713645907,0.0007124874051826665,0.00046771570787099224,0.0,0.0,0.0,0.0,0.0,0.0,0.0,0.0,0.0,-0.00020721602234000864,-5.6659106089840886e-05,-0.00022799094361173299,0.0,0.0,0.0,0.0,0.0,0.0,0.0,0.0,0.0,0.005058211836680732,0.602137645548167,9.811209524058398,0.0,0.0,0.0,0.0,0.0,0.0,0.0,0.0,0.0
2025/05/19 02:18:30.528926081,1747613910,528221346,mA1/imu,0.1958225835750788,0.980638961330715,0.0007215123618144766,0.0004719132435599647,0.0,0.0,0.0,0.0,0.0,0.0,0.0,0.0,0.0,-0.0016660961023153534,-0.00011624601559920396,-0.00022197955265936044,0.0,0.0,0.0,0.0,0.0,0.0,0.0,0.0,0.0,0.0049697508537696646,0.5031599741531572,9.81063158968051,0.0,0.0,0.0,0.0,0.0,0.0,0.0,0.0,0.0
2025/05/19 02:18:30.579512537,1747613910,578106622,mA1/imu,0.1958172285068222,0.9806400285628157,0.0007218084775925907,0.00047580746999696254,0.0,0.0,0.0,0.0,0.0,0.0,0.0,0.0,0.0,6.694571675117625e-05,-0.00017162913131848147,-0.00021626332126124142,0.0,0.0,0.0,0.0,0.0,0.0,0.0,0.0,0.0,0.004099982842748117,-0.6329812293337288,9.809226584505774,0.0,0.0,0.0,0.0,0.0,0.0,0.0,0.0,0.0
2025/05/19 02:18:30.632109841,1747613910,629117867,mA1/imu,0.195812015428036,0.9806410730009041,0.0007146368951655489,0.0004794285704194102,0.0,0.0,0.0,0.0,0.0,0.0,0.0,0.0,0.0,0.0015325346981377656,-0.00021568451629619154,-0.00021066218988656299,0.0,0.0,0.0,0.0,0.0,0.0,0.0,0.0,0.0,0.004109164916751873,-0.533792815858886,9.808820846299485,0.0,0.0,0.0,0.0,0.0,0.0,0.0,0.0,0.0
2025/05/19 02:18:30.675551407,1747613910,671663512,mA1/imu,0.19580693325126064,0.9806420840179271,0.000715626536068387,0.0004856154590005919,0.0,0.0,0.0,0.0,0.0,0.0,0.0,0.0,0.0,-0.0001927601835112186,-0.00024590202755293963,-0.00020526131104240723,0.0,0.0,0.0,0.0,0.0,0.0,0.0,0.0,0.0,0.005014013737845697,0.6021800233426281,9.811205084961685,0.0,0.0,0.0,0.0,0.0,0.0,0.0,0.0,0.0
2025/05/19 02:18:30.727551176,1747613910,724252971,mA1/imu,0.19580198362177914,0.9806430625094041,0.0007234410153086737,0.0004937560641049913,0.0,0.0,0.0,0.0,0.0,0.0,0.0,0.0,0.0,-0.001643742646106005,-0.0002623158670359878,-0.00019956031826469446,0.0,0.0,0.0,0.0,0.0,0.0,0.0,0.0,0.0,0.004929663230147129,0.5029008134010128,9.81064655805278,0.0,0.0,0.0,0.0,0.0,0.0,0.0,0.0,0.0
2025/05/19 02:18:30.779146494,1747613910,776186343,mA1/imu,0.19579718400542157,0.9806440182156402,0.0007224434251389732,0.0005003488061713962,0.0,0.0,0.0,0.0,0.0,0.0,0.0,0.0,0.0,0.00010103989752396035,-0.00026680336667939505,-0.00019360421084786776,0.0,0.0,0.0,0.0,0.0,0.0,0.0,0.0,0.0,0.004054057206113652,-0.6331097821869901,9.80924650976981,0.0,0.0,0.0,0.0,0.0,0.0,0.0,0.0,0.0
2025/05/19 02:18:30.832197031,1747613910,828231405,mA1/imu,0.19579261581917562,0.980644933642351,0.0007138154662830701,0.0005061420292465876,0.0,0.0,0.0,0.0,0.0,0.0,0.0,0.0,0.0,0.0015780825630492543,-0.0003258961844440298,-0.00016942921464553712,0.0,0.0,0.0,0.0,0.0,0.0,0.0,0.0,0.0,0.0038145913003039666,-0.5320417718471581,9.808845370121551,0.0,0.0,0.0,0.0,0.0,0.0,0.0,0.0,0.0
2025/05/19 02:18:30.882183151,1747613910,878547961,mA1/imu,0.195788873652679,0.9806456765952817,0.0007127362659033155,0.0005156896476002587,0.0,0.0,0.0,0.0,0.0,0.0,0.0,0.0,0.0,-0.00013285114781753357,-0.00045677656435481423,-0.00016774120957782138,0.0,0.0,0.0,0.0,0.0,0.0,0.0,0.0,0.0,0.012447759523159971,0.6029259771566854,9.811229341237038,0.0,0.0,0.0,0.0,0.0,0.0,0.0,0.0,0.0
2025/05/19 02:18:30.922258960,1747613910,920423811,mA1/imu,0.19578481121437158,0.9806464763378628,0.0007177148380458621,0.0005301219648004215,0.0,0.0,0.0,0.0,0.0,0.0,0.0,0.0,0.0,-0.0015807991105776114,-0.0005670606674508032,-0.00016469729580023007,0.0,0.0,0.0,0.0,0.0,0.0,0.0,0.0,0.0,0.009649031243011417,0.5026904473681385,9.810662687072913,0.0,0.0,0.0,0.0,0.0,0.0,0.0,0.0,0.0
2025/05/19 02:18:30.971100678,1747613910,970073958,mA1/imu,0.19578083285240497,0.9806472656406469,0.0007133595500071056,0.0005449745807993431,0.0,0.0,0.0,0.0,0.0,0.0,0.0,0.0,0.0,0.0001729268179564058,-0.0006448051666870006,-0.00016146704871787066,0.0,0.0,0.0,0.0,0.0,0.0,0.0,0.0,0.0,0.00867057443701461,-0.6326637201322127,9.809251566610957,0.0,0.0,0.0,0.0,0.0,0.0,0.0,0.0,0.0
2025/05/19 02:18:31.23118059,1747613911,21854685,mA1/imu,0.1957770337521964,0.9806480246706171,0.0007013106214071675,0.0005593998752834307,0.0,0.0,0.0,0.0,0.0,0.0,0.0,0.0,0.0,0.0016414965515091065,-0.0006447135919788932,-0.00013861540982099526,0.0,0.0,0.0,0.0,0.0,0.0,0.0,0.0,0.0,0.0030313394248402577,-0.5318884665763478,9.808862517566489,0.0,0.0,0.0,0.0,0.0,0.0,0.0,0.0,0.0
2025/05/19 02:18:31.74325441,1747613911,71655314,mA1/imu,0.19577432018553464,0.980648560509362,0.0006977674947586141,0.000573975026817385,0.0,0.0,0.0,0.0,0.0,0.0,0.0,0.0,0.0,-8.115281042335416e-05,-0.0005879205698316862,-0.00010752276857841153,0.0,0.0,0.0,0.0,0.0,0.0,0.0,0.0,0.0,0.009054000439456904,0.6020051486678997,9.811212111156836,0.0,0.0,0.0,0.0,0.0,0.0,0.0,0.0,0.0
2025/05/19 02:18:31.125975628,1747613911,122639423,mA1/imu,0.1957737107070114,0.9806486721421309,0.0007020100203425443,0.0005858359958985056,0.0,0.0,0.0,0.0,0.0,0.0,0.0,0.0,0.0,-0.0015321853757508082,-0.00021128248847859668,9.761898497712051e-05,0.0,0.0,0.0,0.0,0.0,0.0,0.0,0.0,0.0,-0.008235406274950322,0.5035901806534306,9.810576362158383,0.0,0.0,0.0,0.0,0.0,0.0,0.0,0.0,0.0
2025/05/19 02:18:31.177958600,1747613911,172819436,mA1/imu,0.19577775565874295,0.9806478656944847,0.0006993152153497639,0.0005872446738260465,0.0,0.0,0.0,0.0,0.0,0.0,0.0,0.0,0.0,0.00020423828817863612,-6.256816944788772e-05,0.00016399605827335039,0.0,0.0,0.0,0.0,0.0,0.0,0.0,0.0,0.0,0.008598337442800405,-0.6332847457084003,9.809286370307333,0.0,0.0,0.0,0.0,0.0,0.0,0.0,0.0,0.0
2025/05/19 02:18:31.226757385,1747613911,223796191,mA1/imu,0.19578140029817204,0.9806471453385822,0.0006895073106504135,0.0005866994505917812,0.0,0.0,0.0,0.0,0.0,0.0,0.0,0.0,0.0,0.0016685854654729564,-6.888044320041133e-05,0.00012600988085727984,0.0,0.0,0.0,0.0,0.0,0.0,0.0,0.0,0.0,0.010843159478248588,-0.533123469972413,9.808884171650831,0.0,0.0,0.0,0.0,0.0,0.0,0.0,0.0,0.0
2025/05/19 02:18:31.278314206,1747613911,273692292,mA1/imu,0.19578416697130566,0.9806465932713112,0.0006881719239027522,0.0005877823805466667,0.0,0.0,0.0,0.0,0.0,0.0,0.0,0.0,0.0,-6.656143431158912e-05,-2.9656456918277813e-05,0.00011209147629651588,0.0,0.0,0.0,0.0,0.0,0.0,0.0,0.0,0.0,0.009041756137642777,0.601900317079502,9.811211692499011,0.0,0.0,0.0,0.0,0.0,0.0,0.0,0.0,0.0
2025/05/19 02:18:31.327593967,1747613911,325878207,mA1/imu,0.19578688771196984,0.9806460449577852,0.0006944140902532416,0.0005889802927976,0.0,0.0,0.0,0.0,0.0,0.0,0.0,0.0,0.0,-0.001534918305392538,2.5362949732069812e-05,0.00011050586702859291,0.0,0.0,0.0,0.0,0.0,0.0,0.0,0.0,0.0,0.00933133782248471,0.5026973349421862,9.81064701606955,0.0,0.0,0.0,0.0,0.0,0.0,0.0,0.0,0.0
2025/05/19 02:18:31.379628265,1747613911,376552887,mA1/imu,0.19578957658399584,0.9806455104482205,0.0006926469790248653,0.0005871788237758811,0.0,0.0,0.0,0.0,0.0,0.0,0.0,0.0,0.0,0.00018798457330874416,7.660548079559926e-05,0.00010907856517329903,0.0,0.0,0.0,0.0,0.0,0.0,0.0,0.0,0.0,0.008422428151965871,-0.6332934029138672,9.809274215353446,0.0,0.0,0.0,0.0,0.0,0.0,0.0,0.0,0.0
2025/05/19 02:18:31.435865032,1747613911,431577830,mA1/imu,0.19579422864899743,0.9806445916575113,0.0006848608739092781,0.0005795223899525901,0.0,0.0,0.0,0.0,0.0,0.0,0.0,0.0,0.0,0.0016406302629809585,0.00045151447794543526,0.0003109513333128861,0.0,0.0,0.0,0.0,0.0,0.0,0.0,0.0,0.0,-0.008943943540354897,-0.5329344443822776,9.80893620348321,0.0,0.0,0.0,0.0,0.0,0.0,0.0,0.0,0.0
2025/05/19 02:18:31.472957047,1747613911,471447318,mA1/imu,0.19580341805925294,0.9806427631844693,0.000687350016966936,0.000565720952609782,0.0,0.0,0.0,0.0,0.0,0.0,0.0,0.0,0.0,-0.00010381176873187529,0.0005522349395065971,0.0003726711242433208,0.0,0.0,0.0,0.0,0.0,0.0,0.0,0.0,0.0,0.009839441329362758,0.6019150749257042,9.811200375196078,0.0,0.0,0.0,0.0,0.0,0.0,0.0,0.0,0.0
2025/05/19 02:18:31.532111971,1747613911,523628460,mA1/imu,0.19581224985193998,0.9806409998743253,0.0006965245653093578,0.0005541001129251053,0.0,0.0,0.0,0.0,0.0,0.0,0.0,0.0,0.0,-0.0015259377856051298,0.0005297592056840571,0.0003473581179798375,0.0,0.0,0.0,0.0,0.0,0.0,0.0,0.0,0.0,0.0077860640238180175,0.5091238345580293,9.810697578309586,0.0,0.0,0.0,0.0,0.0,0.0,0.0,0.0,0.0
2025/05/19 02:18:31.580934970,1747613911,574752472,mA1/imu,0.19582024600830536,0.9806394115293476,0.0006954872162647185,0.0005404684575301919,0.0,0.0,0.0,0.0,0.0,0.0,0.0,0.0,0.0,0.00030076730348725184,0.0005178784338645251,0.00031222624765208615,0.0,0.0,0.0,0.0,0.0,0.0,0.0,0.0,0.0,0.007111458427444438,-0.6241084006273191,9.809280376410067,0.0,0.0,0.0,0.0,0.0,0.0,0.0,0.0,0.0
2025/05/19 02:18:31.628344518,1747613911,627037211,mA1/imu,0.1958265207664947,0.9806381733447787,0.0006848528338266446,0.000526991557220437,0.0,0.0,0.0,0.0,0.0,0.0,0.0,0.0,0.0,0.0018411550264231863,0.0004224978006035718,0.0002373634925816169,0.0,0.0,0.0,0.0,0.0,0.0,0.0,0.0,0.0,0.006701877412003751,-0.5182719764624839,9.808820944590929,0.0,0.0,0.0,0.0,0.0,0.0,0.0,0.0,0.0
2025/05/19 02:18:31.678548538,1747613911,677438575,mA1/imu,0.19582846055489445,0.9806377931042457,0.000678868362182739,0.0005214499798489483,0.0,0.0,0.0,0.0,0.0,0.0,0.0,0.0,0.0,0.00021091784897910574,-6.506032612114654e-05,-6.991057508576075e-05,0.0,0.0,0.0,0.0,0.0,0.0,0.0,0.0,0.0,0.024573943571781755,0.6160688956780905,9.811207449981035,0.0,0.0,0.0,0.0,0.0,0.0,0.0,0.0,0.0
2025/05/19 02:18:31.731268610,1747613911,729045111,mA1/imu,0.19581308145792764,0.980640856338957,0.0006714541730414648,0.0005451220427508235,0.0,0.0,0.0,0.0,0.0,0.0,0.0,0.0,0.0,-0.0011282710812862827,-0.002288513229183139,-0.0014559629034412978,0.0,0.0,0.0,0.0,0.0,0.0,0.0,0.0,0.0,0.12099452950688003,0.5169335062019231,9.810271644270971,0.0,0.0,0.0,0.0,0.0,0.0,0.0,0.0,0.0
2025/05/19 02:18:31.776097074,1747613911,773038435,mA1/imu,0.19576306699156132,0.9806508177241157,0.0006426851420046498,0.0006182676514795936,0.0,0.0,0.0,0.0,0.0,0.0,0.0,0.0,0.0,0.0007028465045464129,-0.003159860838596383,-0.002168854499367445,0.0,0.0,0.0,0.0,0.0,0.0,0.0,0.0,0.0,0.016341809396040023,-0.6164390181843115,9.809170012802447,0.0,0.0,0.0,0.0,0.0,0.0,0.0,0.0,0.0
2025/05/19 02:18:31.828827630,1747613911,825036211,mA1/imu,0.19571034444788657,0.9806613215681914,0.0006043418437888385,0.0006842712574041941,0.0,0.0,0.0,0.0,0.0,0.0,0.0,0.0,0.0,0.002315044116580232,-0.0026476324298818563,-0.0021469362345021793,0.0,0.0,0.0,0.0,0.0,0.0,0.0,0.0,0.0,-0.003142093255592719,-0.5122170488721842,9.80869011697195,0.0,0.0,0.0,0.0,0.0,0.0,0.0,0.0,0.0
2025/05/19 02:18:31.880148445,1747613911,874906570,mA1/imu,0.19565458120680246,0.9806724271402085,0.0005722809235201272,0.0007402663490600064,0.0,0.0,0.0,0.0,0.0,0.0,0.0,0.0,0.0,0.0005758256129157251,-0.0023606623871851896,-0.0024113003515601463,0.0,0.0,0.0,0.0,0.0,0.0,0.0,0.0,0.0,0.015268152203356252,0.6194316991531688,9.811498368844507,0.0,0.0,0.0,0.0,0.0,0.0,0.0,0.0,0.0
2025/05/19 02:18:31.929598460,1747613911,928570555,mA1/imu,0.19559551783400944,0.9806841849642398,0.0005525920591986412,0.0007857520515706359,0.0,0.0,0.0,0.0,0.0,0.0,0.0,0.0,0.0,-0.0008589790183487477,-0.001578696037935661,-0.0023932668365068328,0.0,0.0,0.0,0.0,0.0,0.0,0.0,0.0,0.0,-0.005339315467580407,0.5185383689816151,9.810687938758122,0.0,0.0,0.0,0.0,0.0,0.0,0.0,0.0,0.0
2025/05/19 02:18:31.981152502,1747613911,978599852,mA1/imu,0.1955364277214864,0.9806959630122818,0.0005288262607835736,0.0008086458550566313,0.0,0.0,0.0,0.0,0.0,0.0,0.0,0.0,0.0,0.0008440062780967242,-0.0007786907475752384,-0.0024459061611017165,0.0,0.0,0.0,0.0,0.0,0.0,0.0,0.0,0.0,0.0018512738530874328,-0.617733948192643,9.80925531482341,0.0,0.0,0.0,0.0,0.0,0.0,0.0,0.0,0.0
2025/05/19 02:18:32.31369674,1747613912,29676915,mA1/imu,0.19547805177910044,0.9807076170482641,0.0005005987338355355,0.0008065587829165319,0.0,0.0,0.0,0.0,0.0,0.0,0.0,0.0,0.0,0.002412557266953585,0.00042950073347104055,-0.0022445624331131923,0.0,0.0,0.0,0.0,0.0,0.0,0.0,0.0,0.0,-0.020534971805378728,-0.5089395944438092,9.809360201459409,0.0,0.0,0.0,0.0,0.0,0.0,0.0,0.0,0.0
2025/05/19 02:18:32.73908160,1747613912,71900026,mA1/imu,0.19542896754435998,0.9807174272956504,0.0004982741749638324,0.0007734119166669845,0.0,0.0,0.0,0.0,0.0,0.0,0.0,0.0,0.0,0.001769780612441976,0.0018219974258548216,-0.0018193406335462456,0.0,0.0,0.0,0.0,0.0,0.0,0.0,0.0,0.0,-0.02181667713672547,-0.33090646398411483,9.806668698223332,0.0,0.0,0.0,0.0,0.0,0.0,0.0,0.0,0.0
2025/05/19 02:18:32.126047815,1747613912,122824506,mA1/imu,0.1953895310361542,0.9807253328985482,0.0005031514814024437,0.000706690236463014,0.0,0.0,0.0,0.0,0.0,0.0,0.0,0.0,0.0,0.001638633978941985,0.0031377328099984475,-0.0014626546377017398,0.0,0.0,0.0,0.0,0.0,0.0,0.0,0.0,0.0,-0.016923864828333742,-0.5404264129797128,9.809715495829792,0.0,0.0,0.0,0.0,0.0,0.0,0.0,0.0,0.0
2025/05/19 02:18:32.177287675,1747613912,172806444,mA1/imu,0.19535892134787822,0.9807314813567239,0.0005254618559917439,0.0006141787012088123,0.0,0.0,0.0,0.0,0.0,0.0,0.0,0.0,0.0,-0.0007930470044838745,0.004191318579556721,-0.0010805359823838079,0.0,0.0,0.0,0.0,0.0,0.0,0.0,0.0,0.0,-0.017469070528901152,-0.068969530175826,9.807000883869517,0.0,0.0,0.0,0.0,0.0,0.0,0.0,0.0,0.0
2025/05/19 02:18:32.225913554,1747613912,223751454,mA1/imu,0.19533480081860624,0.9807363476510901,0.0005322109270063103,0.0004987350848717293,0.0,0.0,0.0,0.0,0.0,0.0,0.0,0.0,0.0,-0.0015020635551948073,0.004934404098267621,-0.0008455126387891582,0.0,0.0,0.0,0.0,0.0,0.0,0.0,0.0,0.0,-0.011007242000157753,0.5227477952795072,9.809709016796305,0.0,0.0,0.0,0.0,0.0,0.0,0.0,0.0,0.0
2025/05/19 02:18:32.279646808,1747613912,275145382,mA1/imu,0.19531990718918837,0.9807393507318339,0.0005662288090143289,0.0003730504571332043,0.0,0.0,0.0,0.0,0.0,0.0,0.0,0.0,0.0,-5.8958199283997846e-05,0.005340976798310265,-0.00045231276646771744,0.0,0.0,0.0,0.0,0.0,0.0,0.0,0.0,0.0,-0.011638384931570638,0.010388950815485588,9.811296437027417,0.0,0.0,0.0,0.0,0.0,0.0,0.0,0.0,0.0
2025/05/19 02:18:32.328822935,1747613912,326289771,mA1/imu,0.19531350740955836,0.980740647857609,0.0005977061706732847,0.00024126862104164413,0.0,0.0,0.0,0.0,0.0,0.0,0.0,0.0,0.0,0.0008660799752553185,0.0054178318051521,-0.00012395028566345573,0.0,0.0,0.0,0.0,0.0,0.0,0.0,0.0,0.0,-0.008677974756922606,-0.5442736419418259,9.808635585199502,0.0,0.0,0.0,0.0,0.0,0.0,0.0,0.0,0.0
2025/05/19 02:18:32.380195996,1747613912,376530566,mA1/imu,0.19531536947803552,0.9807402746782279,0.0006380016290340289,0.00011412122450912548,0.0,0.0,0.0,0.0,0.0,0.0,0.0,0.0,0.0,-0.0003714651453519854,0.005193780525719192,0.0002098341008446599,0.0,0.0,0.0,0.0,0.0,0.0,0.0,0.0,0.0,-0.00799574702200503,0.010834958512167224,9.81065525679804,0.0,0.0,0.0,0.0,0.0,0.0,0.0,0.0,0.0
2025/05/19 02:18:32.429205054,1747613912,427637210,mA1/imu,0.1953214891855476,0.9807390361848226,0.00067731485866645,3.1917888935832075e-06,0.0,0.0,0.0,0.0,0.0,0.0,0.0,0.0,0.0,-0.0007043266132115665,0.004377035653868444,0.00036071224846767516,0.0,0.0,0.0,0.0,0.0,0.0,0.0,0.0,0.0,-0.004331900085595382,-0.006426946615859882,9.810233058039445,0.0,0.0,0.0,0.0,0.0,0.0,0.0,0.0,0.0
2025/05/19 02:18:32.478122278,1747613912,471308230,mA1/imu,0.1953307689939662,0.9807371590688773,0.0007131920565491072,-8.284216306999348e-05,0.0,0.0,0.0,0.0,0.0,0.0,0.0,0.0,0.0,-0.0007499349931386191,0.0030698094307143277,0.00034019493192000074,0.0,0.0,0.0,0.0,0.0,0.0,0.0,0.0,0.0,0.01378014949060319,-0.0023143878403494127,9.810597398889527,0.0,0.0,0.0,0.0,0.0,0.0,0.0,0.0,0.0
2025/05/19 02:18:32.525650584,1747613912,522293279,mA1/imu,0.19534001432200765,0.9807352925679635,0.0007390522339714213,-0.0001360812409362009,0.0,0.0,0.0,0.0,0.0,0.0,0.0,0.0,0.0,-0.0002724307052925482,0.0018924305850084831,0.0004878437465086583,0.0,0.0,0.0,0.0,0.0,0.0,0.0,0.0,0.0,-0.006371600700925431,0.029113159512140045,9.810959783914635,0.0,0.0,0.0,0.0,0.0,0.0,0.0,0.0,0.0
2025/05/19 02:18:32.573408702,1747613912,572104529,mA1/imu,0.1953523148462522,0.9807328241045649,0.0007587829227181457,-0.00015829267737373228,0.0,0.0,0.0,0.0,0.0,0.0,0.0,0.0,0.0,-0.0004270828525124989,0.00034967773613318534,0.00045351789873282646,0.0,0.0,0.0,0.0,0.0,0.0,0.0,0.0,0.0,0.013956940020954321,0.10841534146404214,9.809868461475157,0.0,0.0,0.0,0.0,0.0,0.0,0.0,0.0,0.0
2025/05/19 02:18:32.629283758,1747613912,625161334,mA1/imu,0.1953638511288818,0.9807305114904662,0.0007807682231055341,-0.00014108409721671922,0.0,0.0,0.0,0.0,0.0,0.0,0.0,0.0,0.0,-0.0018659281216006501,-0.0009332013811363874,0.0005691886170612709,0.0,0.0,0.0,0.0,0.0,0.0,0.0,0.0,0.0,-0.0049818367028188525,0.4632138704350061,9.811209503947895,0.0,0.0,0.0,0.0,0.0,0.0,0.0,0.0,0.0
2025/05/19 02:18:32.678095537,1747613912,676131712,mA1/imu,0.19537728909858304,0.9807278364907137,0.0007853510422689317,-9.413008472430894e-05,0.0,0.0,0.0,0.0,0.0,0.0,0.0,0.0,0.0,-0.0001440024968363139,-0.0024636944548009966,0.00046673368303516726,0.0,0.0,0.0,0.0,0.0,0.0,0.0,0.0,0.0,0.015262889419396977,-0.5941509320908194,9.809514087583244,0.0,0.0,0.0,0.0,0.0,0.0,0.0,0.0,0.0
2025/05/19 02:18:32.730302017,1747613912,727402427,mA1/imu,0.19538619874223237,0.9807260721158078,0.0007776299925111453,-1.0244770738686027e-05,0.0,0.0,0.0,0.0,0.0,0.0,0.0,0.0,0.0,0.0007556181928556712,-0.00389259924469568,0.00030769593805355045,0.0,0.0,0.0,0.0,0.0,0.0,0.0,0.0,0.0,0.010133390000363637,-0.3051504849084623,9.80924970973979,0.0,0.0,0.0,0.0,0.0,0.0,0.0,0.0,0.0
2025/05/19 02:18:32.781368581,1747613912,778678996,mA1/imu,0.19539260551638807,0.9807247972565298,0.0007687161107392821,0.00010407303606770293,0.0,0.0,0.0,0.0,0.0,0.0,0.0,0.0,0.0,-0.0006025022855386523,-0.00493612720690759,0.00023072476841054477,0.0,0.0,0.0,0.0,0.0,0.0,0.0,0.0,0.0,0.006226829668286659,0.3639953333470985,9.809860836410712,0.0,0.0,0.0,0.0,0.0,0.0,0.0,0.0,0.0
2025/05/19 02:18:32.830526596,1747613912,829750754,mA1/imu,0.195400084779061,0.9807233005904334,0.0007481412296005618,0.00023416242852250313,0.0,0.0,0.0,0.0,0.0,0.0,0.0,0.0,0.0,-0.00011380381050721819,-0.005526303549411022,0.0002679879145646223,0.0,0.0,0.0,0.0,0.0,0.0,0.0,0.0,0.0,0.0065194542328212216,0.005476744050360546,9.811305739079545,0.0,0.0,0.0,0.0,0.0,0.0,0.0,0.0,0.0
2025/05/19 02:18:32.872910435,1747613912,871623674,mA1/imu,0.1954064992601869,0.9807219984796923,0.0007208499474082325,0.00037698836852376546,0.0,0.0,0.0,0.0,0.0,0.0,0.0,0.0,0.0,1.5857113203166165e-05,-0.005957829828690827,0.00027142619385443425,0.0,0.0,0.0,0.0,0.0,0.0,0.0,0.0,0.0,0.005015638332892527,0.0059232937352964345,9.811081872026385,0.0,0.0,0.0,0.0,0.0,0.0,0.0,0.0,0.0
2025/05/19 02:18:32.924543250,1747613912,922873240,mA1/imu,0.19541174900646666,0.9807209069354037,0.0006885728655308753,0.0005262294571647592,0.0,0.0,0.0,0.0,0.0,0.0,0.0,0.0,0.0,0.00015424994135450066,-0.006116143617126817,0.00016551609411490298,0.0,0.0,0.0,0.0,0.0,0.0,0.0,0.0,0.0,0.0031615330499061315,0.0002219399422267003,9.808168137764488,0.0,0.0,0.0,0.0,0.0,0.0,0.0,0.0,0.0
2025/05/19 02:18:32.974541141,1747613912,972697623,mA1/imu,0.19541578489982375,0.9807200383486907,0.0006531962393705734,0.0006713627941956652,0.0,0.0,0.0,0.0,0.0,0.0,0.0,0.0,0.0,0.0003190920541964378,-0.005827669272555329,0.00017635206803743282,0.0,0.0,0.0,0.0,0.0,0.0,0.0,0.0,0.0,0.002637657444203652,0.0036031132505310835,9.807678323168831,0.0,0.0,0.0,0.0,0.0,0.0,0.0,0.0,0.0
2025/05/19 02:18:33.27441998,1747613913,23827345,mA1/imu,0.1954188541730983,0.9807193497680582,0.0006162384877396844,0.000805403201326911,0.0,0.0,0.0,0.0,0.0,0.0,0.0,0.0,0.0,0.00045175996823535337,-0.005278644485115646,8.033282104915744e-05,0.0,0.0,0.0,0.0,0.0,0.0,0.0,0.0,0.0,0.0012994406694817624,-0.002289066362897798,9.811315693701433,0.0,0.0,0.0,0.0,0.0,0.0,0.0,0.0,0.0
2025/05/19 02:18:33.77678048,1747613913,73685170,mA1/imu,0.19541953472086848,0.9807191355493122,0.0005781807255260353,0.0009210450248119384,0.0,0.0,0.0,0.0,0.0,0.0,0.0,0.0,0.0,0.0008964618782434308,-0.004522513887664653,-9.314834167749494e-06,0.0,0.0,0.0,0.0,0.0,0.0,0.0,0.0,0.0,0.007018559508440761,-0.11599243721091018,9.810324205817908,0.0,0.0,0.0,0.0,0.0,0.0,0.0,0.0,0.0
2025/05/19 02:18:33.127975639,1747613913,126528511,mA1/imu,0.19541777275828884,0.9807194165017672,0.0005395297936914026,0.0010144428151726101,0.0,0.0,0.0,0.0,0.0,0.0,0.0,0.0,0.0,0.001186419177553138,-0.003583410449683993,-0.0001311054032414398,0.0,0.0,0.0,0.0,0.0,0.0,0.0,0.0,0.0,0.008454175737554765,0.03710151553686687,9.808886446542152,0.0,0.0,0.0,0.0,0.0,0.0,0.0,0.0,0.0
2025/05/19 02:18:33.183520110,1747613913,177635965,mA1/imu,0.1954131074959169,0.9807202880025586,0.0005110768819891475,0.0010830140297362028,0.0,0.0,0.0,0.0,0.0,0.0,0.0,0.0,0.0,-0.00017547363444260324,-0.002423071009363667,-0.00022480147460937042,0.0,0.0,0.0,0.0,0.0,0.0,0.0,0.0,0.0,0.006021955276509158,0.5521304558370017,9.809743261709,0.0,0.0,0.0,0.0,0.0,0.0,0.0,0.0,0.0
2025/05/19 02:18:33.229918484,1747613913,228808903,mA1/imu,0.1954071463936218,0.9807214467046882,0.0004877002476167913,0.0011194910601798867,0.0,0.0,0.0,0.0,0.0,0.0,0.0,0.0,0.0,0.0002671243664239277,-0.0010240227451280203,-0.0002345501948386393,0.0,0.0,0.0,0.0,0.0,0.0,0.0,0.0,0.0,0.0007971016808819252,-0.13098314782824075,9.810458820911112,0.0,0.0,0.0,0.0,0.0,0.0,0.0,0.0,0.0
2025/05/19 02:18:33.280450645,1747613913,279492041,mA1/imu,0.19540088331277203,0.9807227064211337,0.0004629526501320276,0.0011196362975881122,0.0,0.0,0.0,0.0,0.0,0.0,0.0,0.0,0.0,0.0012127395393176851,0.0003241528587661273,-0.0002861306146291299,0.0,0.0,0.0,0.0,0.0,0.0,0.0,0.0,0.0,0.006592738565501782,-0.39344861213804205,9.810160087709855,0.0,0.0,0.0,0.0,0.0,0.0,0.0,0.0,0.0
2025/05/19 02:18:33.327249249,1747613913,322390120,mA1/imu,0.19539069100897685,0.980724776018521,0.000448272471421263,0.001091156380856428,0.0,0.0,0.0,0.0,0.0,0.0,0.0,0.0,0.0,0.0009136158269589751,0.0014039136693851562,-0.0005412146280126154,0.0,0.0,0.0,0.0,0.0,0.0,0.0,0.0,0.0,0.008887211495458116,0.027216073331572006,9.80906406962994,0.0,0.0,0.0,0.0,0.0,0.0,0.0,0.0,0.0
2025/05/19 02:18:33.373788328,1747613913,372118709,mA1/imu,0.1953759067366798,0.9807277791507363,0.00044879649292758276,0.0010377141190269464,0.0,0.0,0.0,0.0,0.0,0.0,0.0,0.0,0.0,2.5475200481062523e-05,0.0025631497809652476,-0.0006321635465478741,0.0,0.0,0.0,0.0,0.0,0.0,0.0,0.0,0.0,0.007261611964471939,-0.032432703281282095,9.809444383954496,0.0,0.0,0.0,0.0,0.0,0.0,0.0,0.0,0.0
2025/05/19 02:18:33.428174090,1747613913,422976385,mA1/imu,0.19536147263790493,0.9807307374896405,0.00045279869218808205,0.0009542143991407068,0.0,0.0,0.0,0.0,0.0,0.0,0.0,0.0,0.0,0.00015985308205097157,0.003892022103529499,-0.00048545576193801223,0.0,0.0,0.0,0.0,0.0,0.0,0.0,0.0,0.0,-0.008225906187088319,-0.01702148973613179,9.811160506313177,0.0,0.0,0.0,0.0,0.0,0.0,0.0,0.0,0.0
2025/05/19 02:18:33.475655425,1747613913,472802079,mA1/imu,0.19535020353910967,0.9807330751048142,0.00047063219743124455,0.0008437286402195094,0.0,0.0,0.0,0.0,0.0,0.0,0.0,0.0,0.0,-0.0002958708410262211,0.00473839907909203,-0.00048687458520230305,0.0,0.0,0.0,0.0,0.0,0.0,0.0,0.0,0.0,0.010784282949685706,-0.13375347532252094,9.811043262334762,0.0,0.0,0.0,0.0,0.0,0.0,0.0,0.0,0.0
2025/05/19 02:18:33.527274363,1747613913,524897165,mA1/imu,0.19533676373859465,0.9807358442995668,0.00048483677742048247,0.0007192853729108726,0.0,0.0,0.0,0.0,0.0,0.0,0.0,0.0,0.0,0.0010583031959917697,0.005106721821352079,-0.0005979494755797896,0.0,0.0,0.0,0.0,0.0,0.0,0.0,0.0,0.0,0.014935741880014201,-0.563052581800991,9.809764191250947,0.0,0.0,0.0,0.0,0.0,0.0,0.0,0.0,0.0
2025/05/19 02:18:33.578433349,1747613913,575620358,mA1/imu,0.19532070806339677,0.9807391156491782,0.0005080010197183593,0.0005915845206975589,0.0,0.0,0.0,0.0,0.0,0.0,0.0,0.0,0.0,0.0006233775796835726,0.005211201155720127,-0.0006802421109165235,0.0,0.0,0.0,0.0,0.0,0.0,0.0,0.0,0.0,0.01267622297974336,-0.5348354966957168,9.810418686635561,0.0,0.0,0.0,0.0,0.0,0.0,0.0,0.0,0.0
2025/05/19 02:18:33.627959866,1747613913,626652955,mA1/imu,0.19530292467072286,0.9807427047993171,0.0005436728379604426,0.00046799340467320065,0.0,0.0,0.0,0.0,0.0,0.0,0.0,0.0,0.0,5.220946738375099e-05,0.00502482572164841,-0.000750557180479212,0.0,0.0,0.0,0.0,0.0,0.0,0.0,0.0,0.0,0.014419912390180097,-0.11913235709913106,9.810613244636265,0.0,0.0,0.0,0.0,0.0,0.0,0.0,0.0,0.0
2025/05/19 02:18:33.682796173,1747613913,678180151,mA1/imu,0.1952834393830367,0.980746621465873,0.0005655175082155948,0.00035067927726684025,0.0,0.0,0.0,0.0,0.0,0.0,0.0,0.0,0.0,-0.001347385718492573,0.004568901481390598,-0.0008197553300001349,0.0,0.0,0.0,0.0,0.0,0.0,0.0,0.0,0.0,0.01489633917225546,0.3348360017705276,9.809738697304587,0.0,0.0,0.0,0.0,0.0,0.0,0.0,0.0,0.0
2025/05/19 02:18:33.721614864,1747613913,720454615,mA1/imu,0.19526290187635761,0.9807507192603556,0.0006020548231547733,0.0002516964612647362,0.0,0.0,0.0,0.0,0.0,0.0,0.0,0.0,0.0,-0.0007557861837000178,0.0039183719055178295,-0.0008211862436711501,0.0,0.0,0.0,0.0,0.0,0.0,0.0,0.0,0.0,0.009908707070908584,0.4061656581396566,9.810205258342563,0.0,0.0,0.0,0.0,0.0,0.0,0.0,0.0,0.0
2025/05/19 02:18:33.771913593,1747613913,770248657,mA1/imu,0.19524234227974427,0.9807548090803,0.0006347643708176145,0.00017123427555913284,0.0,0.0,0.0,0.0,0.0,0.0,0.0,0.0,0.0,-0.0010497363769864682,0.003025602903414324,-0.0008616695271987134,0.0,0.0,0.0,0.0,0.0,0.0,0.0,0.0,0.0,0.015746334948394464,-0.024358146891411282,9.809325387559785,0.0,0.0,0.0,0.0,0.0,0.0,0.0,0.0,0.0
2025/05/19 02:18:33.822904399,1747613913,821186248,mA1/imu,0.19523347287880255,0.9807565632267529,0.0006673720263718425,9.679828677608373e-05,0.0,0.0,0.0,0.0,0.0,0.0,0.0,0.0,0.0,0.0002445859984189784,0.003930130507472251,0.00042839419532476577,0.0,0.0,0.0,0.0,0.0,0.0,0.0,0.0,0.0,-0.08928969597762587,-0.5598297955113336,9.809488516542755,0.0,0.0,0.0,0.0,0.0,0.0,0.0,0.0,0.0
2025/05/19 02:18:33.881322081,1747613913,872953892,mA1/imu,0.19526493469092493,0.9807502763671101,0.0007075506164406352,-7.6230713867216256e-06,0.0,0.0,0.0,0.0,0.0,0.0,0.0,0.0,0.0,0.0002731196838364029,0.004342163281516849,0.0017047579747859224,0.0,0.0,0.0,0.0,0.0,0.0,0.0,0.0,0.0,-0.02389454121206005,-0.5577447475659071,9.80679935259513,0.0,0.0,0.0,0.0,0.0,0.0,0.0,0.0,0.0
2025/05/19 02:18:33.928219211,1747613913,925187583,mA1/imu,0.19531160231933722,0.9807409510049505,0.0007459150627344305,-9.29089746921852e-05,0.0,0.0,0.0,0.0,0.0,0.0,0.0,0.0,0.0,-0.0014366407549089182,0.003461777780544321,0.002271206518901555,0.0,0.0,0.0,0.0,0.0,0.0,0.0,0.0,0.0,-0.028827195785430706,-0.039645121192613965,9.80593727337662,0.0,0.0,0.0,0.0,0.0,0.0,0.0,0.0,0.0
2025/05/19 02:18:33.977633318,1747613913,974291330,mA1/imu,0.19538234998051032,0.9807268249745491,0.000776764427020879,-0.00016949471480697334,0.0,0.0,0.0,0.0,0.0,0.0,0.0,0.0,0.0,-0.0014731365138646402,0.0030683118199054497,0.0032805442626392834,0.0,0.0,0.0,0.0,0.0,0.0,0.0,0.0,0.0,-0.023992702892404405,-0.043437646081192424,9.810292743361497,0.0,0.0,0.0,0.0,0.0,0.0,0.0,0.0,0.0
2025/05/19 02:18:34.31876599,1747613914,26339323,mA1/imu,0.19547433039588746,0.9807084680978068,0.000797317909346657,-0.00022592406742386883,0.0,0.0,0.0,0.0,0.0,0.0,0.0,0.0,0.0,-0.0004677283080407721,0.0016964023581667986,0.003920431400133455,0.0,0.0,0.0,0.0,0.0,0.0,0.0,0.0,0.0,0.011428514903927062,0.01927985162482598,9.810167912010352,0.0,0.0,0.0,0.0,0.0,0.0,0.0,0.0,0.0
2025/05/19 02:18:34.78889561,1747613914,77063452,mA1/imu,0.19557521338478343,0.9806883372986824,0.0008155136120074212,-0.00023650241182805165,0.0,0.0,0.0,0.0,0.0,0.0,0.0,0.0,0.0,-0.0005243547876878896,-0.00019485790989613074,0.004231220283108224,0.0,0.0,0.0,0.0,0.0,0.0,0.0,0.0,0.0,0.011124947234662105,0.6336530409205956,9.812436857529367,0.0,0.0,0.0,0.0,0.0,0.0,0.0,0.0,0.0
2025/05/19 02:18:34.130523657,1747613914,128102876,mA1/imu,0.19567500826532655,0.9806684304277148,0.0008277893929532185,-0.00018832824519482566,0.0,0.0,0.0,0.0,0.0,0.0,0.0,0.0,0.0,-0.00019782984917705813,-0.0029329089352342326,0.0038767114729858316,0.0,0.0,0.0,0.0,0.0,0.0,0.0,0.0,0.0,0.0403789972437701,-0.009458712568806992,9.811126168226028,0.0,0.0,0.0,0.0,0.0,0.0,0.0,0.0,0.0
2025/05/19 02:18:34.182245693,1747613914,179664650,mA1/imu,0.19576691508432564,0.9806501033027523,0.000826816418217999,-7.89004324873128e-05,0.0,0.0,0.0,0.0,0.0,0.0,0.0,0.0,0.0,-5.868644614199091e-06,-0.005131561348260819,0.003713290112684184,0.0,0.0,0.0,0.0,0.0,0.0,0.0,0.0,0.0,0.024875691405864438,-0.5897315006559505,9.808692815444367,0.0,0.0,0.0,0.0,0.0,0.0,0.0,0.0,0.0
2025/05/19 02:18:34.221837550,1747613914,220700287,mA1/imu,0.19585876347068035,0.9806317781302725,0.000809486631806455,7.227854996340289e-05,0.0,0.0,0.0,0.0,0.0,0.0,0.0,0.0,0.0,8.842196461437883e-06,-0.006599222245534503,0.003797087143593732,0.0,0.0,0.0,0.0,0.0,0.0,0.0,0.0,0.0,0.01791500294170913,-0.5948612062722477,9.808578087697523,0.0,0.0,0.0,0.0,0.0,0.0,0.0,0.0,0.0
2025/05/19 02:18:34.273048031,1747613914,270520284,mA1/imu,0.19595141052354323,0.9806132593868544,0.0007840475488998752,0.00025592570140675386,0.0,0.0,0.0,0.0,0.0,0.0,0.0,0.0,0.0,-0.0016842559799875195,-0.007886452311442417,0.0037455915144898404,0.0,0.0,0.0,0.0,0.0,0.0,0.0,0.0,0.0,0.020958709432714193,0.5393257727671833,9.811418497550951,0.0,0.0,0.0,0.0,0.0,0.0,0.0,0.0,0.0
2025/05/19 02:18:34.323901752,1747613914,321458583,mA1/imu,0.196040090574657,0.980595484608282,0.0007493531933724764,0.0004657500621823266,0.0,0.0,0.0,0.0,0.0,0.0,0.0,0.0,0.0,-0.0016268150978148632,-0.008907093310004879,0.0034436776853538726,0.0,0.0,0.0,0.0,0.0,0.0,0.0,0.0,0.0,0.02961264735465016,0.5318118047294302,9.811477244091336,0.0,0.0,0.0,0.0,0.0,0.0,0.0,0.0,0.0
2025/05/19 02:18:34.375610485,1747613914,371333565,mA1/imu,0.1961219827265984,0.9805790098258174,0.0007045780338451547,0.0006906158132084765,0.0,0.0,0.0,0.0,0.0,0.0,0.0,0.0,0.0,0.0002347942614740011,-0.009214525446968918,0.0033113917111488984,0.0,0.0,0.0,0.0,0.0,0.0,0.0,0.0,0.0,0.01455482704326015,0.02387245798917803,9.811180131648888,0.0,0.0,0.0,0.0,0.0,0.0,0.0,0.0,0.0
2025/05/19 02:18:34.424340994,1747613914,422273845,mA1/imu,0.19620253013808833,0.9805627480024922,0.0006580026926418213,0.0009118276537207783,0.0,0.0,0.0,0.0,0.0,0.0,0.0,0.0,0.0,0.002018425394549751,-0.008864097567609985,0.003258650171452188,0.0,0.0,0.0,0.0,0.0,0.0,0.0,0.0,0.0,0.010554585808422659,-0.49275824694196063,9.809645949245182,0.0,0.0,0.0,0.0,0.0,0.0,0.0,0.0,0.0
2025/05/19 02:18:34.475245691,1747613914,472474097,mA1/imu,0.19628179554525618,0.9805466958010179,0.000620024839674934,0.00111788212004496,0.0,0.0,0.0,0.0,0.0,0.0,0.0,0.0,0.0,0.0006355019795078549,-0.008010294622332615,0.0032083429742515773,0.0,0.0,0.0,0.0,0.0,0.0,0.0,0.0,0.0,0.011133616848277492,0.026253138584207112,9.809880550012704,0.0,0.0,0.0,0.0,0.0,0.0,0.0,0.0,0.0
2025/05/19 02:18:34.528117312,1747613914,523594017,mA1/imu,0.1963604650616886,0.9805307517645059,0.0005822945364577369,0.0012936529530470796,0.0,0.0,0.0,0.0,0.0,0.0,0.0,0.0,0.0,-0.00025407348052171194,-0.006571328665440706,0.00322640571805031,0.0,0.0,0.0,0.0,0.0,0.0,0.0,0.0,0.0,0.0029634038244916797,-0.2424830732337029,9.809323936101487,0.0,0.0,0.0,0.0,0.0,0.0,0.0,0.0,0.0
2025/05/19 02:18:34.577139661,1747613914,573450765,mA1/imu,0.19643964265615937,0.980514728774055,0.000543451232954987,0.0014276242569102365,0.0,0.0,0.0,0.0,0.0,0.0,0.0,0.0,0.0,-0.001127609946577518,-0.004863506055258716,0.003209554308103704,0.0,0.0,0.0,0.0,0.0,0.0,0.0,0.0,0.0,0.009130997375637408,0.5153996060211731,9.810974011094943,0.0,0.0,0.0,0.0,0.0,0.0,0.0,0.0,0.0
2025/05/19 02:18:34.628527584,1747613914,626844406,mA1/imu,0.1965170312784044,0.9804991101371073,0.0005052561150525343,0.0015153066096504947,0.0,0.0,0.0,0.0,0.0,0.0,0.0,0.0,0.0,0.00012101276267117815,-0.0029435092546431824,0.003088073754585888,0.0,0.0,0.0,0.0,0.0,0.0,0.0,0.0,0.0,0.007406773062386421,0.3578808573904061,9.809909190130615,0.0,0.0,0.0,0.0,0.0,0.0,0.0,0.0,0.0
2025/05/19 02:18:34.680641811,1747613914,678089327,mA1/imu,0.19659145349324986,0.9804841404965452,0.0004836388760270069,0.0015545872763542599,0.0,0.0,0.0,0.0,0.0,0.0,0.0,0.0,0.0,0.0008251897441953923,-0.0008825461277340149,0.003017452215726931,0.0,0.0,0.0,0.0,0.0,0.0,0.0,0.0,0.0,0.007979044692003716,0.010578038875968901,9.810621568283697,0.0,0.0,0.0,0.0,0.0,0.0,0.0,0.0,0.0
2025/05/19 02:18:34.723261343,1747613914,720499260,mA1/imu,0.19667191658478148,0.9804680423272039,0.000473984315677607,0.0015331473501787086,0.0,0.0,0.0,0.0,0.0,0.0,0.0,0.0,0.0,0.0005499511288532471,0.002166933107408627,0.0036874018280897893,0.0,0.0,0.0,0.0,0.0,0.0,0.0,0.0,0.0,-0.04083166390372278,-0.0035219406454974657,9.812488485814042,0.0,0.0,0.0,0.0,0.0,0.0,0.0,0.0,0.0
2025/05/19 02:18:34.771878035,1747613914,770601130,mA1/imu,0.19676697101793608,0.9804491137243975,0.000469009668657876,0.0014403275324725647,0.0,0.0,0.0,0.0,0.0,0.0,0.0,0.0,0.0,0.001348875447795389,0.004292507737599204,0.0038568463699468754,0.0,0.0,0.0,0.0,0.0,0.0,0.0,0.0,0.0,0.012839374800415217,0.0379076267469248,9.808337262744864,0.0,0.0,0.0,0.0,0.0,0.0,0.0,0.0,0.0
2025/05/19 02:18:34.825318780,1747613914,821531209,mA1/imu,0.19686034978144434,0.9804305428968367,0.0004841519129505548,0.0013110438079883139,0.0,0.0,0.0,0.0,0.0,0.0,0.0,0.0,0.0,0.0015052769780880032,0.005699362836099141,0.0037664851281082583,0.0,0.0,0.0,0.0,0.0,0.0,0.0,0.0,0.0,0.019262599089470714,-0.5742712952229692,9.807574619623923,0.0,0.0,0.0,0.0,0.0,0.0,0.0,0.0,0.0
2025/05/19 02:18:34.873965498,1747613914,871325296,mA1/imu,0.1969514645155488,0.9804124326011783,0.0005046336875570456,0.0011523762675489091,0.0,0.0,0.0,0.0,0.0,0.0,0.0,0.0,0.0,0.0002716846272635325,0.006797928127864024,0.0037009493170833976,0.0,0.0,0.0,0.0,0.0,0.0,0.0,0.0,0.0,0.01604955213967088,-0.199159668778722,9.810817931098239,0.0,0.0,0.0,0.0,0.0,0.0,0.0,0.0,0.0
2025/05/19 02:18:34.930268499,1747613914,926919542,mA1/imu,0.19704139291003372,0.9803945509128815,0.0005215030612985915,0.0009705951577603003,0.0,0.0,0.0,0.0,0.0,0.0,0.0,0.0,0.0,0.0007801316407298992,0.007508706048624524,0.0036527390092939782,0.0,0.0,0.0,0.0,0.0,0.0,0.0,0.0,0.0,0.01854183187225762,-0.3465291170536627,9.808997410764725,0.0,0.0,0.0,0.0,0.0,0.0,0.0,0.0,0.0
2025/05/19 02:18:34.979802941,1747613914,977633888,mA1/imu,0.19713014479265817,0.9803768656198261,0.0005477574030394528,0.0007793159168277967,0.0,0.0,0.0,0.0,0.0,0.0,0.0,0.0,0.0,0.0013975016019639622,0.007773461772841892,0.0036063684429061904,0.0,0.0,0.0,0.0,0.0,0.0,0.0,0.0,0.0,0.018862626805610565,-0.5616284965063624,9.808366409988585,0.0,0.0,0.0,0.0,0.0,0.0,0.0,0.0,0.0
2025/05/19 02:18:35.32007407,1747613915,30105508,mA1/imu,0.1972169412246492,0.9803595250932556,0.000576860123002099,0.0005889697088975537,0.0,0.0,0.0,0.0,0.0,0.0,0.0,0.0,0.0,0.0010357656855001804,0.007570306156594867,0.0034886176823781287,0.0,0.0,0.0,0.0,0.0,0.0,0.0,0.0,0.0,0.020909292563609967,-0.02016967357707609,9.810453756079616,0.0,0.0,0.0,0.0,0.0,0.0,0.0,0.0,0.0
2025/05/19 02:18:35.72835924,1747613915,70402510,mA1/imu,0.19730142597766104,0.980342594647282,0.0006126706379523891,0.00041117162573174365,0.0,0.0,0.0,0.0,0.0,0.0,0.0,0.0,0.0,-0.0007697028078689063,0.006989293120097012,0.0034323136394688006,0.0,0.0,0.0,0.0,0.0,0.0,0.0,0.0,0.0,0.021486715935480537,0.568323778525533,9.811149369953805,0.0,0.0,0.0,0.0,0.0,0.0,0.0,0.0,0.0
2025/05/19 02:18:35.122992066,1747613915,121390015,mA1/imu,0.19738702443842013,0.98032539546282,0.0006472079213912398,0.00025043146510751,0.0,0.0,0.0,0.0,0.0,0.0,0.0,0.0,0.0,0.00046645892395365073,0.0063653789937280075,0.0036188552002379307,0.0,0.0,0.0,0.0,0.0,0.0,0.0,0.0,0.0,0.004531210332370899,-0.5967820253477055,9.807948656526266,0.0,0.0,0.0,0.0,0.0,0.0,0.0,0.0,0.0
2025/05/19 02:18:35.172587986,1747613915,171201807,mA1/imu,0.19747698352186716,0.9803072879930631,0.0006707626664583518,0.00011029159209226177,0.0,0.0,0.0,0.0,0.0,0.0,0.0,0.0,0.0,0.0013570810267472917,0.005098395979449541,0.0036582283996246597,0.0,0.0,0.0,0.0,0.0,0.0,0.0,0.0,0.0,0.02394053545562302,-0.39307176571770136,9.80966603650068,0.0,0.0,0.0,0.0,0.0,0.0,0.0,0.0,0.0
2025/05/19 02:18:35.225708740,1747613915,223075537,mA1/imu,0.19756600831758436,0.9802893350502142,0.0007013084359826648,1.0523441566598899e-05,0.0,0.0,0.0,0.0,0.0,0.0,0.0,0.0,0.0,-0.0006640444168652152,0.00348361507956124,0.003621653571148582,0.0,0.0,0.0,0.0,0.0,0.0,0.0,0.0,0.0,0.024125087976219955,0.6051437603171818,9.810666516227773,0.0,0.0,0.0,0.0,0.0,0.0,0.0,0.0,0.0
2025/05/19 02:18:35.276747216,1747613915,273330965,mA1/imu,0.1976542266470173,0.980271531789636,0.0007269878605752517,-4.62603578059623e-05,0.0,0.0,0.0,0.0,0.0,0.0,0.0,0.0,0.0,-0.001474966057743342,0.0017194134415931335,0.003587936157648606,0.0,0.0,0.0,0.0,0.0,0.0,0.0,0.0,0.0,0.023360319767404915,0.5565763837934338,9.810296972898211,0.0,0.0,0.0,0.0,0.0,0.0,0.0,0.0,0.0
2025/05/19 02:18:35.327269915,1747613915,324328078,mA1/imu,0.1977393363177586,0.980254355342297,0.0007419676611447083,-5.647175998780475e-05,0.0,0.0,0.0,0.0,0.0,0.0,0.0,0.0,0.0,-0.0006893341837756914,-0.00037140781718414514,0.003314374004125698,0.0,0.0,0.0,0.0,0.0,0.0,0.0,0.0,0.0,0.03748660425520026,-0.16518580597315258,9.80847605418414,0.0,0.0,0.0,0.0,0.0,0.0,0.0,0.0,0.0
2025/05/19 02:18:35.377461762,1747613915,375475694,mA1/imu,0.1978182101775738,0.9802384435815563,0.0007410190561560222,-1.8376831967249313e-05,0.0,0.0,0.0,0.0,0.0,0.0,0.0,0.0,0.0,5.063391490171716e-05,-0.002175805185455086,0.0032092681722367456,0.0,0.0,0.0,0.0,0.0,0.0,0.0,0.0,0.0,0.020972753004771465,0.038677212248898196,9.809921300333846,0.0,0.0,0.0,0.0,0.0,0.0,0.0,0.0,0.0
2025/05/19 02:18:35.428735679,1747613915,426562764,mA1/imu,0.19789667447079165,0.980222609636372,0.0007336919759789671,5.9052067280428505e-05,0.0,0.0,0.0,0.0,0.0,0.0,0.0,0.0,0.0,-0.0003716638253115732,-0.0036755274057808764,0.0031932627408562102,0.0,0.0,0.0,0.0,0.0,0.0,0.0,0.0,0.0,0.01804172292076933,0.6425982634065485,9.810494829337324,0.0,0.0,0.0,0.0,0.0,0.0,0.0,0.0,0.0
2025/05/19 02:18:35.477810974,1747613915,476329560,mA1/imu,0.1979748165814774,0.9802068199464828,0.0007297944637828774,0.00017184287728829768,0.0,0.0,0.0,0.0,0.0,0.0,0.0,0.0,0.0,-0.0001224821703079498,-0.0049405322963774895,0.003180790902144495,0.0,0.0,0.0,0.0,0.0,0.0,0.0,0.0,0.0,0.017339446342259205,0.026620011505633326,9.810625054367266,0.0,0.0,0.0,0.0,0.0,0.0,0.0,0.0,0.0
2025/05/19 02:18:35.530002315,1747613915,527360575,mA1/imu,0.19805502663665678,0.9801905926449651,0.0007175147019322784,0.0003060831880431036,0.0,0.0,0.0,0.0,0.0,0.0,0.0,0.0,0.0,0.0003903902792927798,-0.005491515873723362,0.003407309764630186,0.0,0.0,0.0,0.0,0.0,0.0,0.0,0.0,0.0,-0.0028144450548900765,-0.5731471383394395,9.808191585470468,0.0,0.0,0.0,0.0,0.0,0.0,0.0,0.0,0.0
2025/05/19 02:18:35.586034457,1747613915,580139967,mA1/imu,0.1981403923870438,0.9801732920251695,0.0007064261827470916,0.000451073495723987,0.0,0.0,0.0,0.0,0.0,0.0,0.0,0.0,0.0,-0.0009287056871246444,-0.006005829418940265,0.0034779186827680574,0.0,0.0,0.0,0.0,0.0,0.0,0.0,0.0,0.0,0.015367653727204255,-0.6695578562176441,9.809902023352993,0.0,0.0,0.0,0.0,0.0,0.0,0.0,0.0,0.0
2025/05/19 02:18:35.622125873,1747613915,621036948,mA1/imu,0.19822568413019515,0.9801559900223474,0.0006718962717636171,0.0006016060404992615,0.0,0.0,0.0,0.0,0.0,0.0,0.0,0.0,0.0,-0.002089900597113439,-0.006231124722239368,0.0034752479795871617,0.0,0.0,0.0,0.0,0.0,0.0,0.0,0.0,0.0,0.013459543236748972,0.497794612633538,9.811263071667113,0.0,0.0,0.0,0.0,0.0,0.0,0.0,0.0,0.0
2025/05/19 02:18:35.673814068,1747613915,671764713,mA1/imu,0.1983109399933906,0.9801386598645992,0.0006409519223621358,0.0007534576287362397,0.0,0.0,0.0,0.0,0.0,0.0,0.0,0.0,0.0,-0.0005899505504170837,-0.0061178499260243656,0.0034746812796307884,0.0,0.0,0.0,0.0,0.0,0.0,0.0,0.0,0.0,0.011659290536054917,-0.033461637929768466,9.808812585284418,0.0,0.0,0.0,0.0,0.0,0.0,0.0,0.0,0.0
2025/05/19 02:18:35.731517867,1747613915,724271961,mA1/imu,0.19838063732557235,0.9801244400241117,0.0006039644064789974,0.0009165308052111976,0.0,0.0,0.0,0.0,0.0,0.0,0.0,0.0,0.0,-0.000685739228495095,-0.00776321404502622,0.0019130554744868308,0.0,0.0,0.0,0.0,0.0,0.0,0.0,0.0,0.0,0.12948399880865138,-0.0715926317870863,9.808094008736902,0.0,0.0,0.0,0.0,0.0,0.0,0.0,0.0,0.0
2025/05/19 02:18:35.779671527,1747613915,775632318,mA1/imu,0.1984141249346215,0.9801174867901511,0.0005605548376695768,0.001110357086822522,0.0,0.0,0.0,0.0,0.0,0.0,0.0,0.0,0.0,0.000230443225487457,-0.007465108385975056,0.0013016871998283363,0.0,0.0,0.0,0.0,0.0,0.0,0.0,0.0,0.0,0.004619432766528549,-0.4840152069567365,9.810741797846452,0.0,0.0,0.0,0.0,0.0,0.0,0.0,0.0,0.0
2025/05/19 02:18:35.829234299,1747613915,826843190,mA1/imu,0.19844613657536242,0.9801108376778896,0.0005160120958076824,0.0012690453794953712,0.0,0.0,0.0,0.0,0.0,0.0,0.0,0.0,0.0,-0.0003116533918317399,-0.005934991262493301,0.0013026663889550948,0.0,0.0,0.0,0.0,0.0,0.0,0.0,0.0,0.0,0.00337237505850093,-0.04547468310565315,9.810067683652097,0.0,0.0,0.0,0.0,0.0,0.0,0.0,0.0,0.0
2025/05/19 02:18:35.880961603,1747613915,878642824,mA1/imu,0.19847816823764472,0.9801042163388829,0.0004743203419142375,0.0013845100168229727,0.0,0.0,0.0,0.0,0.0,0.0,0.0,0.0,0.0,0.00033059393611548305,-0.00408487600077594,0.0013044177254846092,0.0,0.0,0.0,0.0,0.0,0.0,0.0,0.0,0.0,0.0021417394172253933,-0.007591337845689545,9.808338016377432,0.0,0.0,0.0,0.0,0.0,0.0,0.0,0.0,0.0
2025/05/19 02:18:35.931747760,1747613915,930163662,mA1/imu,0.19851024392591549,0.9800976405367396,0.000440052981126913,0.0014506633528596562,0.0,0.0,0.0,0.0,0.0,0.0,0.0,0.0,0.0,0.001738872538461822,-0.0020280237498393164,0.0013078554484506682,0.0,0.0,0.0,0.0,0.0,0.0,0.0,0.0,0.0,0.0018645349553002427,0.08029313636504522,9.808822569246866,0.0,0.0,0.0,0.0,0.0,0.0,0.0,0.0,0.0
2025/05/19 02:18:35.971231635,1747613915,969878867,mA1/imu,0.1985423680018723,0.9800911200903335,0.00042029525026591373,0.0014655306844981156,0.0,0.0,0.0,0.0,0.0,0.0,0.0,0.0,0.0,0.0018599926083055862,0.00011332705918894618,0.0013109747278552924,0.0,0.0,0.0,0.0,0.0,0.0,0.0,0.0,0.0,0.0029381484526858175,0.07904049243150967,9.810482622096192,0.0,0.0,0.0,0.0,0.0,0.0,0.0,0.0,0.0
2025/05/19 02:18:36.22540527,1747613916,20815789,mA1/imu,0.1985745261547615,0.9800846617469728,0.00041466745472837444,0.0014287832710041498,0.0,0.0,0.0,0.0,0.0,0.0,0.0,0.0,0.0,0.0008214498744342056,0.002223180344555414,0.0013131444398021988,0.0,0.0,0.0,0.0,0.0,0.0,0.0,0.0,0.0,0.003996505126885971,0.006405914053086622,9.809940012837146,0.0,0.0,0.0,0.0,0.0,0.0,0.0,0.0,0.0
2025/05/19 02:18:36.72886716,1747613916,70721785,mA1/imu,0.19860671611025743,0.9800782663386496,0.0004091307054302114,0.0013404397011711154,0.0,0.0,0.0,0.0,0.0,0.0,0.0,0.0,0.0,0.0006470249471814743,0.004179981417491167,0.001314463248663455,0.0,0.0,0.0,0.0,0.0,0.0,0.0,0.0,0.0,0.004857949342257889,-0.008229077796726571,9.810810873778893,0.0,0.0,0.0,0.0,0.0,0.0,0.0,0.0,0.0
2025/05/19 02:18:36.124708733,1747613916,122210840,mA1/imu,0.19863789866243753,0.980072113594314,0.0004173212395341049,0.0012096333032649614,0.0,0.0,0.0,0.0,0.0,0.0,0.0,0.0,0.0,0.0007226328193707182,0.00582498352836157,0.0012139339919767737,0.0,0.0,0.0,0.0,0.0,0.0,0.0,0.0,0.0,0.006835513339426896,-0.0031569791795992216,9.810877323259255,0.0,0.0,0.0,0.0,0.0,0.0,0.0,0.0,0.0
2025/05/19 02:18:36.173926104,1747613916,172152242,mA1/imu,0.19866672925344425,0.9800664594388657,0.000425166387423345,0.0010416353718407918,0.0,0.0,0.0,0.0,0.0,0.0,0.0,0.0,0.0,0.0008534187812056598,0.0071447468744649766,0.0011746219306598886,0.0,0.0,0.0,0.0,0.0,0.0,0.0,0.0,0.0,0.007380159037617193,0.015576703516642962,9.808395166752716,0.0,0.0,0.0,0.0,0.0,0.0,0.0,0.0,0.0
2025/05/19 02:18:36.227547240,1747613916,223127476,mA1/imu,0.1986948489656402,0.9800609353454134,0.00044429599730146964,0.0008500620338679014,0.0,0.0,0.0,0.0,0.0,0.0,0.0,0.0,0.0,0.0008515342955433923,0.00793027799332349,0.001117281816224195,0.0,0.0,0.0,0.0,0.0,0.0,0.0,0.0,0.0,0.013621327058710813,0.6534480628383461,9.81124067863967,0.0,0.0,0.0,0.0,0.0,0.0,0.0,0.0,0.0
2025/05/19 02:18:36.277788212,1747613916,272914045,mA1/imu,0.19872153970395684,0.9800556612147545,0.0004799096036960076,0.0006482787759845925,0.0,0.0,0.0,0.0,0.0,0.0,0.0,0.0,0.0,-0.0009930093501142958,0.008319156658936129,0.0010888269509094538,0.0,0.0,0.0,0.0,0.0,0.0,0.0,0.0,0.0,0.010998112962338075,0.4109893299907233,9.81053617295254,0.0,0.0,0.0,0.0,0.0,0.0,0.0,0.0,0.0
2025/05/19 02:18:36.326742633,1747613916,324011836,mA1/imu,0.19874796212271975,0.9800504027425078,0.0005090933121870325,0.00044323843893320677,0.0,0.0,0.0,0.0,0.0,0.0,0.0,0.0,0.0,0.0005104816646845242,0.008180138364449098,0.0010775943645788735,0.0,0.0,0.0,0.0,0.0,0.0,0.0,0.0,0.0,0.01460580908988559,-0.6146643759694989,9.810078854872375,0.0,0.0,0.0,0.0,0.0,0.0,0.0,0.0,0.0
2025/05/19 02:18:36.379321755,1747613916,376583825,mA1/imu,0.19877408940333796,0.9800451594349558,0.0005342932126044345,0.00024775138521895834,0.0,0.0,0.0,0.0,0.0,0.0,0.0,0.0,0.0,0.0017562021125115755,0.007579479020433212,0.0010654524795572448,0.0,0.0,0.0,0.0,0.0,0.0,0.0,0.0,0.0,0.01518900506415108,-0.5181909160409826,9.809770363231136,0.0,0.0,0.0,0.0,0.0,0.0,0.0,0.0,0.0
2025/05/19 02:18:36.431355401,1747613916,428002024,mA1/imu,0.19879990451552748,0.9800399322745215,0.0005686222651680067,7.603083697867161e-05,0.0,0.0,0.0,0.0,0.0,0.0,0.0,0.0,0.0,-0.00017064075466990673,0.006557217244521363,0.0010524027038788075,0.0,0.0,0.0,0.0,0.0,0.0,0.0,0.0,0.0,0.016641197413271046,0.6235617782695811,9.81127657917843,0.0,0.0,0.0,0.0,0.0,0.0,0.0,0.0,0.0
2025/05/19 02:18:36.478508367,1747613916,477294905,mA1/imu,0.19882541048164906,0.9800347373250986,0.0006047726880555246,-6.350531133313799e-05,0.0,0.0,0.0,0.0,0.0,0.0,0.0,0.0,0.0,-0.001586592836528438,0.005190116891498473,0.0010390168241150722,0.0,0.0,0.0,0.0,0.0,0.0,0.0,0.0,0.0,0.016544920791750448,0.48236074013829194,9.810345814733438,0.0,0.0,0.0,0.0,0.0,0.0,0.0,0.0,0.0
2025/05/19 02:18:36.531005365,1747613916,528315787,mA1/imu,0.19885060476258912,0.9800295992349882,0.0006278124289850542,-0.00016571184272004167,0.0,0.0,0.0,0.0,0.0,0.0,0.0,0.0,0.0,0.0002630151736997904,0.003505308116444331,0.0010253916992072124,0.0,0.0,0.0,0.0,0.0,0.0,0.0,0.0,0.0,0.017844197480787805,-0.47452263633678404,9.80941611596199,0.0,0.0,0.0,0.0,0.0,0.0,0.0,0.0,0.0
2025/05/19 02:18:36.584907774,1747613916,579675186,mA1/imu,0.19887549694421142,0.9800245258974142,0.0006444314048146458,-0.00022374741614275816,0.0,0.0,0.0,0.0,0.0,0.0,0.0,0.0,0.0,0.001548768373067567,0.001650411558037382,0.001012389553749976,0.0,0.0,0.0,0.0,0.0,0.0,0.0,0.0,0.0,0.01767820456901531,-0.4826262375057749,9.8094490796474,0.0,0.0,0.0,0.0,0.0,0.0,0.0,0.0,0.0
2025/05/19 02:18:36.626956931,1747613916,620810070,mA1/imu,0.19890010078759182,0.9800195155368829,0.0006670275421230103,-0.0002326967920024145,0.0,0.0,0.0,0.0,0.0,0.0,0.0,0.0,0.0,-0.00019455266052631137,-0.00023839178769040028,0.0009994688958344267,0.0,0.0,0.0,0.0,0.0,0.0,0.0,0.0,0.0,0.016883881715456905,0.03735469390207715,9.810824518322518,0.0,0.0,0.0,0.0,0.0,0.0,0.0,0.0,0.0
2025/05/19 02:18:36.674584034,1747613916,672913239,mA1/imu,0.19892443326462175,0.9800145760638904,0.0006800012950798833,-0.00019532255649669825,0.0,0.0,0.0,0.0,0.0,0.0,0.0,0.0,0.0,-0.0007140004633624026,-0.0021007486083971416,0.00098724628747296,0.0,0.0,0.0,0.0,0.0,0.0,0.0,0.0,0.0,0.016523124009016215,0.00894985972039246,9.81110967381124,0.0,0.0,0.0,0.0,0.0,0.0,0.0,0.0,0.0
2025/05/19 02:18:36.734291739,1747613916,726584422,mA1/imu,0.198948509678257,0.9800096986524454,0.0006840680588387212,-0.00011443266337399506,0.0,0.0,0.0,0.0,0.0,0.0,0.0,0.0,0.0,-0.0008521721779501518,-0.0038037219422351505,0.0009759456061936297,0.0,0.0,0.0,0.0,0.0,0.0,0.0,0.0,0.0,0.014853672755447349,0.0045931178027884614,9.809264375161284,0.0,0.0,0.0,0.0,0.0,0.0,0.0,0.0,0.0
2025/05/19 02:18:36.783909825,1747613916,779466084,mA1/imu,0.19897234946308412,0.9800048647918806,0.000684908785404512,5.77438049025679e-06,0.0,0.0,0.0,0.0,0.0,0.0,0.0,0.0,0.0,-0.0008929415581117023,-0.005271220008535238,0.0009655866701095863,0.0,0.0,0.0,0.0,0.0,0.0,0.0,0.0,0.0,0.014199475275832322,-0.08718618208469238,9.808985258262615,0.0,0.0,0.0,0.0,0.0,0.0,0.0,0.0,0.0
2025/05/19 02:18:36.821808359,1747613916,820409807,mA1/imu,0.19900866529229674,0.9799974860336313,0.0006780546603428706,0.00013692413428590736,0.0,0.0,0.0,0.0,0.0,0.0,0.0,0.0,0.0,-0.0008227372083352007,-0.004365871864199859,0.0022914423749756823,0.0,0.0,0.0,0.0,0.0,0.0,0.0,0.0,0.0,-0.10223336952291236,0.011223370757647665,9.816198951079972,0.0,0.0,0.0,0.0,0.0,0.0,0.0,0.0,0.0
2025/05/19 02:18:36.872459842,1747613916,870251143,mA1/imu,0.19909778840729306,0.9799793684101435,0.0006806381853502829,0.00021183352362292248,0.0,0.0,0.0,0.0,0.0,0.0,0.0,0.0,0.0,0.00045234952227989707,-0.002052192833378121,0.0044931208943002395,0.0,0.0,0.0,0.0,0.0,0.0,0.0,0.0,0.0,-0.08399313691862507,-0.120377477444495,9.81047412905545,0.0,0.0,0.0,0.0,0.0,0.0,0.0,0.0,0.0
2025/05/19 02:18:36.926618338,1747613916,923573125,mA1/imu,0.19924130197217024,0.9799501722514622,0.0007149055900652208,0.00022891649360658607,0.0,0.0,0.0,0.0,0.0,0.0,0.0,0.0,0.0,-0.001961448693329581,0.00043456354281113004,0.006746573667251863,0.0,0.0,0.0,0.0,0.0,0.0,0.0,0.0,0.0,-0.08583125522856043,-0.07691202784157417,9.802883164160944,0.0,0.0,0.0,0.0,0.0,0.0,0.0,0.0,0.0
2025/05/19 02:18:36.978633177,1747613916,975981979,mA1/imu,0.19942606847662614,0.979912576984782,0.000734777412356995,0.00021161558097177098,0.0,0.0,0.0,0.0,0.0,0.0,0.0,0.0,0.0,-0.000712176937831424,0.0008204066033011556,0.007863727940522479,0.0,0.0,0.0,0.0,0.0,0.0,0.0,0.0,0.0,-0.0154671389738772,-0.5635383870950476,9.809914427279933,0.0,0.0,0.0,0.0,0.0,0.0,0.0,0.0,0.0
2025/05/19 02:18:37.30957412,1747613917,28741102,mA1/imu,0.19962962297875464,0.9798711110502638,0.0007614733639157354,0.00019878832446248895,0.0,0.0,0.0,0.0,0.0,0.0,0.0,0.0,0.0,-0.0006308422279574562,0.0013827313604441165,0.009085208523439367,0.0,0.0,0.0,0.0,0.0,0.0,0.0,0.0,0.0,-0.08053002497209355,0.023095789432088558,9.81171145455659,0.0,0.0,0.0,0.0,0.0,0.0,0.0,0.0,0.0
2025/05/19 02:18:37.80440162,1747613917,79001518,mA1/imu,0.19986462179906286,0.9798231852951073,0.0007925763708407437,0.00017416648241727983,0.0,0.0,0.0,0.0,0.0,0.0,0.0,0.0,0.0,-0.0014447147984386268,0.0006257315367246718,0.009671631872510314,0.0,0.0,0.0,0.0,0.0,0.0,0.0,0.0,0.0,0.024598602330483454,0.42140243337406424,9.810926359814026,0.0,0.0,0.0,0.0,0.0,0.0,0.0,0.0,0.0
2025/05/19 02:18:37.132615747,1747613917,130269649,mA1/imu,0.20010174824140914,0.9797747674745955,0.0008119320641003497,0.0001900977578144829,0.0,0.0,0.0,0.0,0.0,0.0,0.0,0.0,0.0,-0.0013461321053540158,-0.00119258458289358,0.00968662600774161,0.0,0.0,0.0,0.0,0.0,0.0,0.0,0.0,0.0,0.03434311378055278,0.23179594840853124,9.80977639268966,0.0,0.0,0.0,0.0,0.0,0.0,0.0,0.0,0.0
2025/05/19 02:18:37.171151385,1747613917,170022116,mA1/imu,0.2003395296413667,0.9797261499121594,0.0008255676373419187,0.0002499588942254117,0.0,0.0,0.0,0.0,0.0,0.0,0.0,0.0,0.0,-0.0004724603669790653,-0.002935354091412241,0.009723801908918916,0.0,0.0,0.0,0.0,0.0,0.0,0.0,0.0,0.0,0.03428340347721731,-0.3663953542135528,9.809061417504289,0.0,0.0,0.0,0.0,0.0,0.0,0.0,0.0,0.0
2025/05/19 02:18:37.222008666,1747613917,221035993,mA1/imu,0.20057906054740113,0.9796771096311436,0.0008253548489824046,0.0003465891852935107,0.0,0.0,0.0,0.0,0.0,0.0,0.0,0.0,0.0,-0.0008035263488492217,-0.004333540999025312,0.009824672109321335,0.0,0.0,0.0,0.0,0.0,0.0,0.0,0.0,0.0,0.02961559187199317,-0.00396979652496731,9.810712983641315,0.0,0.0,0.0,0.0,0.0,0.0,0.0,0.0,0.0
2025/05/19 02:18:37.274037505,1747613917,271581181,mA1/imu,0.20082148247681667,0.979627397736607,0.0008183123278235102,0.00047343906804773496,0.0,0.0,0.0,0.0,0.0,0.0,0.0,0.0,0.0,-0.0006919150632305946,-0.005457580228284575,0.00994855969766248,0.0,0.0,0.0,0.0,0.0,0.0,0.0,0.0,0.0,0.02902573600545508,-0.0032775804020288533,9.806472959105365,0.0,0.0,0.0,0.0,0.0,0.0,0.0,0.0,0.0
2025/05/19 02:18:37.323574304,1747613917,322485114,mA1/imu,0.20106596852917855,0.9795771784699459,0.0008009492632001495,0.0006214503687781823,0.0,0.0,0.0,0.0,0.0,0.0,0.0,0.0,0.0,-0.0005427634480760681,-0.006209169306103174,0.010029933306233996,0.0,0.0,0.0,0.0,0.0,0.0,0.0,0.0,0.0,0.026394408077265393,0.5677773700935574,9.808343329880985,0.0,0.0,0.0,0.0,0.0,0.0,0.0,0.0,0.0
2025/05/19 02:18:37.373670570,1747613917,372369369,mA1/imu,0.2013126122138374,0.9795264240584527,0.0007787764547456406,0.0007811799633298821,0.0,0.0,0.0,0.0,0.0,0.0,0.0,0.0,0.0,0.0007473038519149515,-0.006565091085925032,0.01006816226379625,0.0,0.0,0.0,0.0,0.0,0.0,0.0,0.0,0.0,0.024872326141150515,-0.32986736267709,9.809663146533412,0.0,0.0,0.0,0.0,0.0,0.0,0.0,0.0,0.0
2025/05/19 02:18:37.427428100,1747613917,423578621,mA1/imu,0.2015567571540437,0.9794760900754839,0.0007534477252985924,0.0009460087282132845,0.0,0.0,0.0,0.0,0.0,0.0,0.0,0.0,0.0,0.0002156722785325633,-0.006778362095650022,0.009812932332034955,0.0,0.0,0.0,0.0,0.0,0.0,0.0,0.0,0.0,0.035458016023629135,0.017675975815888277,9.81136443654969,0.0,0.0,0.0,0.0,0.0,0.0,0.0,0.0,0.0
2025/05/19 02:18:37.480209344,1747613917,474822263,mA1/imu,0.20179504444182514,0.9794268729144978,0.0007282868311797768,0.0011091663271927035,0.0,0.0,0.0,0.0,0.0,0.0,0.0,0.0,0.0,-0.0004231428174329636,-0.006385346590416554,0.00972736872531559,0.0,0.0,0.0,0.0,0.0,0.0,0.0,0.0,0.0,0.02065765581930213,-0.3788786334023905,9.810659676123905,0.0,0.0,0.0,0.0,0.0,0.0,0.0,0.0,0.0
2025/05/19 02:18:37.529329880,1747613917,526754846,mA1/imu,0.20203226551824802,0.9793778197598231,0.0006947981759117662,0.0012518416649993011,0.0,0.0,0.0,0.0,0.0,0.0,0.0,0.0,0.0,-0.0003154127441261853,-0.0054623554376196,0.009621135892948622,0.0,0.0,0.0,0.0,0.0,0.0,0.0,0.0,0.0,0.017795261377824684,-0.04711884454512802,9.81111906693688,0.0,0.0,0.0,0.0,0.0,0.0,0.0,0.0,0.0
2025/05/19 02:18:37.580999696,1747613917,577750408,mA1/imu,0.2022669851038313,0.9793292404457878,0.0006616133000996491,0.001366679451740416,0.0,0.0,0.0,0.0,0.0,0.0,0.0,0.0,0.0,-0.0006645208067077871,-0.004276386237008685,0.009576005236741755,0.0,0.0,0.0,0.0,0.0,0.0,0.0,0.0,0.0,0.018050372150385574,0.02849358265446245,9.80958632977447,0.0,0.0,0.0,0.0,0.0,0.0,0.0,0.0,0.0
2025/05/19 02:18:37.631856974,1747613917,628771702,mA1/imu,0.20250070583814017,0.97928083908406,0.0006331588212025252,0.0014496371206201408,0.0,0.0,0.0,0.0,0.0,0.0,0.0,0.0,0.0,-0.0005141961623213369,-0.0029443495817655526,0.009503254850289924,0.0,0.0,0.0,0.0,0.0,0.0,0.0,0.0,0.0,0.021446951292865852,0.551469231858135,9.81037558603606,0.0,0.0,0.0,0.0,0.0,0.0,0.0,0.0,0.0
2025/05/19 02:18:37.680928116,1747613917,679753536,mA1/imu,0.202732730844021,0.9792327809100114,0.0006030259831598153,0.001495658863085166,0.0,0.0,0.0,0.0,0.0,0.0,0.0,0.0,0.0,0.0004364959202055813,-0.0014194730640988366,0.00946722598304019,0.0,0.0,0.0,0.0,0.0,0.0,0.0,0.0,0.0,0.017556748497841317,0.605371710714419,9.812225811181852,0.0,0.0,0.0,0.0,0.0,0.0,0.0,0.0,0.0
2025/05/19 02:18:37.722612929,1747613917,720781240,mA1/imu,0.2029646578918205,0.9791847326787378,0.0005896216867906697,0.0015030908128362231,0.0,0.0,0.0,0.0,0.0,0.0,0.0,0.0,0.0,0.0010471466041937587,0.00023749429072810174,0.009436531496136593,0.0,0.0,0.0,0.0,0.0,0.0,0.0,0.0,0.0,0.02698492485846606,-0.5672084067953597,9.81196989062447,0.0,0.0,0.0,0.0,0.0,0.0,0.0,0.0,0.0
2025/05/19 02:18:37.774018318,1747613917,771672650,mA1/imu,0.20319027139989057,0.9791379944288264,0.0005758671555482734,0.0014730415314837184,0.0,0.0,0.0,0.0,0.0,0.0,0.0,0.0,0.0,0.0002932585948810211,0.0016121223274059109,0.009080192672563622,0.0,0.0,0.0,0.0,0.0,0.0,0.0,0.0,0.0,0.02431151511156395,-0.0031260487972854696,9.809577182196456,0.0,0.0,0.0,0.0,0.0,0.0,0.0,0.0,0.0
2025/05/19 02:18:37.831103175,1747613917,826413953,mA1/imu,0.2034023943836691,0.9790940376400109,0.000569442962512081,0.0014167397375285066,0.0,0.0,0.0,0.0,0.0,0.0,0.0,0.0,0.0,0.00033451151283021217,0.0027611780771699154,0.00855261902970367,0.0,0.0,0.0,0.0,0.0,0.0,0.0,0.0,0.0,0.012191731181099268,0.29378533108342036,9.810884004957028,0.0,0.0,0.0,0.0,0.0,0.0,0.0,0.0,0.0
2025/05/19 02:18:37.880407021,1747613917,878297842,mA1/imu,0.20360747795956205,0.979051536010801,0.0005746989860777236,0.0013245659338132405,0.0,0.0,0.0,0.0,0.0,0.0,0.0,0.0,0.0,-6.349732462136671e-05,0.004263148041445947,0.008263996462518994,0.0,0.0,0.0,0.0,0.0,0.0,0.0,0.0,0.0,0.010274442672282346,0.5741321091019983,9.811393827867432,0.0,0.0,0.0,0.0,0.0,0.0,0.0,0.0,0.0
2025/05/19 02:18:37.933063873,1747613917,930476982,mA1/imu,0.20380524724288285,0.9790105370167185,0.0005909740599754354,0.0012001483925993819,0.0,0.0,0.0,0.0,0.0,0.0,0.0,0.0,0.0,0.0016396386469335331,0.005462304784646821,0.00795241338759511,0.0,0.0,0.0,0.0,0.0,0.0,0.0,0.0,0.0,0.013821097636853363,-0.5614807671243253,9.807127606464949,0.0,0.0,0.0,0.0,0.0,0.0,0.0,0.0,0.0
2025/05/19 02:18:37.980577083,1747613917,979294334,mA1/imu,0.20399505567640822,0.9789711622554571,0.0006159847106770326,0.0010494258500060249,0.0,0.0,0.0,0.0,0.0,0.0,0.0,0.0,0.0,0.0015783036359179711,0.0063896012702301845,0.0075962044217635595,0.0,0.0,0.0,0.0,0.0,0.0,0.0,0.0,0.0,0.018550493781353036,-0.567680931021079,9.81037355531588,0.0,0.0,0.0,0.0,0.0,0.0,0.0,0.0,0.0
2025/05/19 02:18:38.22497300,1747613918,21307973,mA1/imu,0.20417546418737412,0.9789336968310236,0.0006488578583161151,0.0008809177575661558,0.0,0.0,0.0,0.0,0.0,0.0,0.0,0.0,0.0,-0.00016493155518814358,0.007044627630863691,0.007206342510894075,0.0,0.0,0.0,0.0,0.0,0.0,0.0,0.0,0.0,0.01747211073493392,-0.04632424615804255,9.813705246212818,0.0,0.0,0.0,0.0,0.0,0.0,0.0,0.0,0.0
2025/05/19 02:18:38.73121839,1747613918,71142358,mA1/imu,0.2043452114651979,0.9788983946235551,0.0006864193132003066,0.0007045446730509674,0.0,0.0,0.0,0.0,0.0,0.0,0.0,0.0,0.0,-0.0019265900034640645,0.007320035228647425,0.006773304859112147,0.0,0.0,0.0,0.0,0.0,0.0,0.0,0.0,0.0,0.01243577462537893,0.4778253272726893,9.810478645171715,0.0,0.0,0.0,0.0,0.0,0.0,0.0,0.0,0.0
2025/05/19 02:18:38.124259009,1747613918,122110380,mA1/imu,0.20450238478417343,0.9788656588452598,0.0007183719342468759,0.0005296156960216687,0.0,0.0,0.0,0.0,0.0,0.0,0.0,0.0,0.0,-0.0005721938857933121,0.00697776292664661,0.006209150438706091,0.0,0.0,0.0,0.0,0.0,0.0,0.0,0.0,0.0,0.021466104175713784,-0.05337526384516221,9.806946542344908,0.0,0.0,0.0,0.0,0.0,0.0,0.0,0.0,0.0
2025/05/19 02:18:38.175806845,1747613918,172869415,mA1/imu,0.204645821845248,0.9788357313486117,0.0007505752752826202,0.0003677951434520604,0.0,0.0,0.0,0.0,0.0,0.0,0.0,0.0,0.0,0.000801562873444613,0.00630429227337328,0.005639486340678312,0.0,0.0,0.0,0.0,0.0,0.0,0.0,0.0,0.0,0.01930064764542238,0.05059780355042582,9.80692183081946,0.0,0.0,0.0,0.0,0.0,0.0,0.0,0.0,0.0
2025/05/19 02:18:38.226429730,1747613918,224207290,mA1/imu,0.20477386319681468,0.9788089648799168,0.0007889890111992647,0.00022960509132219294,0.0,0.0,0.0,0.0,0.0,0.0,0.0,0.0,0.0,0.000762235373313252,0.005246327648752888,0.00494188424772814,0.0,0.0,0.0,0.0,0.0,0.0,0.0,0.0,0.0,0.019914950300151436,0.06115362313228619,9.808889864839331,0.0,0.0,0.0,0.0,0.0,0.0,0.0,0.0,0.0
2025/05/19 02:18:38.276600442,1747613918,274982149,mA1/imu,0.20488433569780468,0.9787858311894024,0.0008309261401084179,0.00012333000294569797,0.0,0.0,0.0,0.0,0.0,0.0,0.0,0.0,0.0,-0.0006703718759295858,0.003943492105485338,0.004222584647451804,0.0,0.0,0.0,0.0,0.0,0.0,0.0,0.0,0.0,0.02211616605259368,-0.04137818203717534,9.811818316913227,0.0,0.0,0.0,0.0,0.0,0.0,0.0,0.0,0.0
2025/05/19 02:18:38.329703432,1747613918,328205506,mA1/imu,0.2049769602585872,0.9787664203598445,0.0008588373596309838,5.0373757544441524e-05,0.0,0.0,0.0,0.0,0.0,0.0,0.0,0.0,0.0,-0.0005823593834227895,0.002608150807735202,0.0035554735216761736,0.0,0.0,0.0,0.0,0.0,0.0,0.0,0.0,0.0,-6.632215576374842e-05,-0.6582659330098437,9.809946987589948,0.0,0.0,0.0,0.0,0.0,0.0,0.0,0.0,0.0
2025/05/19 02:18:38.378069357,1747613918,375736524,mA1/imu,0.20506021524984178,0.9787489699991992,0.0008728385680735591,1.713732339488289e-07,0.0,0.0,0.0,0.0,0.0,0.0,0.0,0.0,0.0,-0.0006796438343685405,0.0017205443978197468,0.003331648347030205,0.0,0.0,0.0,0.0,0.0,0.0,0.0,0.0,0.0,-0.0005123383231234175,-0.03348933419165164,9.807264201269055,0.0,0.0,0.0,0.0,0.0,0.0,0.0,0.0,0.0
2025/05/19 02:18:38.430868288,1747613918,426930463,mA1/imu,0.20513916531343787,0.9787324204800858,0.0008781578419639803,-2.8186929096388235e-05,0.0,0.0,0.0,0.0,0.0,0.0,0.0,0.0,0.0,-0.0007247344747368472,0.0007735350361008933,0.003157664300624605,0.0,0.0,0.0,0.0,0.0,0.0,0.0,0.0,0.0,-0.0012341396088723158,0.5827508204868792,9.809436090919734,0.0,0.0,0.0,0.0,0.0,0.0,0.0,0.0,0.0
2025/05/19 02:18:38.478542843,1747613918,477296234,mA1/imu,0.20521404959402142,0.9787167192278947,0.0008810885564728014,-3.2186399359174304e-05,0.0,0.0,0.0,0.0,0.0,0.0,0.0,0.0,0.0,-0.0004910151798196912,-0.00020480558340375154,0.002994504325877608,0.0,0.0,0.0,0.0,0.0,0.0,0.0,0.0,0.0,-0.0014457868137353665,0.5872128604488992,9.809800043651103,0.0,0.0,0.0,0.0,0.0,0.0,0.0,0.0,0.0
2025/05/19 02:18:38.532644540,1747613918,530002377,mA1/imu,0.20529145614326227,0.9787004902355039,0.0008762901096854311,-2.3727771401436243e-05,0.0,0.0,0.0,0.0,0.0,0.0,0.0,0.0,0.0,0.0014660582666509595,-0.00015622872738704023,0.003492787791611487,0.0,0.0,0.0,0.0,0.0,0.0,0.0,0.0,0.0,-0.05229105642960669,-0.5529169637215748,9.804857426846514,0.0,0.0,0.0,0.0,0.0,0.0,0.0,0.0,0.0
2025/05/19 02:18:38.572370311,1747613918,570314458,mA1/imu,0.20537978889326775,0.9786819643155182,0.0008688129009831584,-1.4206283713982083e-05,0.0,0.0,0.0,0.0,0.0,0.0,0.0,0.0,0.0,0.0016600549450253895,-0.0008575495265810907,0.003548785495459425,0.0,0.0,0.0,0.0,0.0,0.0,0.0,0.0,0.0,0.000540661200860792,-0.5486801782024627,9.808549799868302,0.0,0.0,0.0,0.0,0.0,0.0,0.0,0.0,0.0
2025/05/19 02:18:38.622589458,1747613918,621355039,mA1/imu,0.2054706549272245,0.9786629025167757,0.000856223489950127,9.085852823994162e-06,0.0,0.0,0.0,0.0,0.0,0.0,0.0,0.0,0.0,0.0001342456165367564,-0.0007989366013620501,0.004043961119371867,0.0,0.0,0.0,0.0,0.0,0.0,0.0,0.0,0.0,-0.05417498122118633,-0.033965064321022476,9.814066811419535,0.0,0.0,0.0,0.0,0.0,0.0,0.0,0.0,0.0
2025/05/19 02:18:38.675380021,1747613918,672296156,mA1/imu,0.20557256669147672,0.978641515802449,0.0008381060620853261,3.082194496212794e-05,0.0,0.0,0.0,0.0,0.0,0.0,0.0,0.0,0.0,-0.0013210183784330748,-0.0013537741297726315,0.004097787437549106,0.0,0.0,0.0,0.0,0.0,0.0,0.0,0.0,0.0,0.00033400359681887625,0.49441086885978747,9.811148227211614,0.0,0.0,0.0,0.0,0.0,0.0,0.0,0.0,0.0
2025/05/19 02:18:38.728084722,1747613918,723606560,mA1/imu,0.20567129722092137,0.9786207915645362,0.0008114051264012276,7.374811740384362e-05,0.0,0.0,0.0,0.0,0.0,0.0,0.0,0.0,0.0,4.445494456498744e-05,-0.0021797988343282074,0.004049421991513907,0.0,0.0,0.0,0.0,0.0,0.0,0.0,0.0,0.0,-0.005813596230564469,-0.04226214155525143,9.808169424987238,0.0,0.0,0.0,0.0,0.0,0.0,0.0,0.0,0.0
2025/05/19 02:18:38.778687790,1747613918,774899991,mA1/imu,0.20577354109030657,0.9785993178353011,0.0007799368160714428,0.00012891083098449206,0.0,0.0,0.0,0.0,0.0,0.0,0.0,0.0,0.0,-0.0011623238981648453,-0.0023319446929696533,0.004387600150399291,0.0,0.0,0.0,0.0,0.0,0.0,0.0,0.0,0.0,-0.03662468439627277,0.49642501663650007,9.811516794637997,0.0,0.0,0.0,0.0,0.0,0.0,0.0,0.0,0.0
2025/05/19 02:18:38.829902977,1747613918,825786342,mA1/imu,0.2058991052699351,0.9785729345983948,0.0007371124986202425,0.00016366334389885965,0.0,0.0,0.0,0.0,0.0,0.0,0.0,0.0,0.0,-0.00020487452231363642,-0.0008441992065427736,0.005819624072500263,0.0,0.0,0.0,0.0,0.0,0.0,0.0,0.0,0.0,-0.08752070832511184,0.547738237864916,9.812650017588787,0.0,0.0,0.0,0.0,0.0,0.0,0.0,0.0,0.0
2025/05/19 02:18:38.882881620,1747613918,879400278,mA1/imu,0.2060705554188722,0.9785368633247328,0.0007146489882364988,0.0001502690060504727,0.0,0.0,0.0,0.0,0.0,0.0,0.0,0.0,0.0,0.0012808483600833722,0.0011595352207038792,0.007774133309012675,0.0,0.0,0.0,0.0,0.0,0.0,0.0,0.0,0.0,-0.0858070549574609,0.6614128928378541,9.815424717845907,0.0,0.0,0.0,0.0,0.0,0.0,0.0,0.0,0.0
2025/05/19 02:18:38.921447853,1747613918,920440636,mA1/imu,0.20625609592211178,0.9784977811953153,0.0007036802316611338,0.00014115574782812553,0.0,0.0,0.0,0.0,0.0,0.0,0.0,0.0,0.0,0.001163227975605617,-0.00022959522572381548,0.007557515208131825,0.0,0.0,0.0,0.0,0.0,0.0,0.0,0.0,0.0,0.013096151080858114,-0.10439805323807738,9.8128615502645,0.0,0.0,0.0,0.0,0.0,0.0,0.0,0.0,0.0
2025/05/19 02:18:38.971020135,1747613918,970008433,mA1/imu,0.20643948824267946,0.9784591144652042,0.00068746081410255,0.00016251676158077685,0.0,0.0,0.0,0.0,0.0,0.0,0.0,0.0,0.0,0.001186435906374957,-0.0015675326565607135,0.007395289245937491,0.0,0.0,0.0,0.0,0.0,0.0,0.0,0.0,0.0,0.027095525772600017,-0.5938864013825148,9.80955504340328,0.0,0.0,0.0,0.0,0.0,0.0,0.0,0.0,0.0
2025/05/19 02:18:39.23349634,1747613919,21109310,mA1/imu,0.20661822986636685,0.9784213926320551,0.0006625029228596934,0.00021590904704229982,0.0,0.0,0.0,0.0,0.0,0.0,0.0,0.0,0.0,0.0009439322099759098,-0.002699995589440017,0.007336175516167061,0.0,0.0,0.0,0.0,0.0,0.0,0.0,0.0,0.0,0.010440389433042081,-0.5918428095896976,9.80865490279833,0.0,0.0,0.0,0.0,0.0,0.0,0.0,0.0,0.0
2025/05/19 02:18:39.74192956,1747613919,71086215,mA1/imu,0.20679966366252112,0.9783830573008339,0.0006377008007534336,0.0002926319021243736,0.0,0.0,0.0,0.0,0.0,0.0,0.0,0.0,0.0,-0.0010082408013959516,-0.0035270328136597427,0.007459583037742737,0.0,0.0,0.0,0.0,0.0,0.0,0.0,0.0,0.0,0.01372592119166275,0.5423816449510234,9.812783066641511,0.0,0.0,0.0,0.0,0.0,0.0,0.0,0.0,0.0
2025/05/19 02:18:39.124063195,1747613919,122047931,mA1/imu,0.20698616390733834,0.9783436014167906,0.0006127422010820692,0.0003873819090066176,0.0,0.0,0.0,0.0,0.0,0.0,0.0,0.0,0.0,-0.0012655693657692478,-0.004105666178117157,0.0077366831093941945,0.0,0.0,0.0,0.0,0.0,0.0,0.0,0.0,0.0,0.009809103549178959,0.5370899884207981,9.812327322509303,0.0,0.0,0.0,0.0,0.0,0.0,0.0,0.0,0.0
2025/05/19 02:18:39.173820034,1747613919,171857900,mA1/imu,0.20717999129626305,0.9783025381518754,0.0005926527814059801,0.0004937760216119527,0.0,0.0,0.0,0.0,0.0,0.0,0.0,0.0,0.0,-0.0007579005346257081,-0.004426179221176952,0.008056555587735619,0.0,0.0,0.0,0.0,0.0,0.0,0.0,0.0,0.0,0.007713715910102601,-0.041961863258913636,9.812484519708324,0.0,0.0,0.0,0.0,0.0,0.0,0.0,0.0,0.0
2025/05/19 02:18:39.225501335,1747613919,222862339,mA1/imu,0.20738869864679643,0.9782582734618983,0.0005695564216506909,0.0005947120449475109,0.0,0.0,0.0,0.0,0.0,0.0,0.0,0.0,0.0,0.0006807737438480044,-0.0041086568822336356,0.008733028916256096,0.0,0.0,0.0,0.0,0.0,0.0,0.0,0.0,0.0,0.008153927832549491,-0.5635162520506286,9.808339765389968,0.0,0.0,0.0,0.0,0.0,0.0,0.0,0.0,0.0
2025/05/19 02:18:39.278172736,1747613919,272967018,mA1/imu,0.20760454933615174,0.9782124277093048,0.0005534528588082985,0.0007007566870985075,0.0,0.0,0.0,0.0,0.0,0.0,0.0,0.0,0.0,0.00022962529408645895,-0.004478574201911619,0.008806655061102805,0.0,0.0,0.0,0.0,0.0,0.0,0.0,0.0,0.0,0.029939098735953705,0.039817716596355225,9.809767248204762,0.0,0.0,0.0,0.0,0.0,0.0,0.0,0.0,0.0
2025/05/19 02:18:39.327757124,1747613919,325363409,mA1/imu,0.20781884922261828,0.9781668337469276,0.0005492157352453943,0.0008183076275681775,0.0,0.0,0.0,0.0,0.0,0.0,0.0,0.0,0.0,-0.0015848034649810219,-0.0047161097423484314,0.008731722462933392,0.0,0.0,0.0,0.0,0.0,0.0,0.0,0.0,0.0,0.027081670527937415,0.5629155845890068,9.811344932596977,0.0,0.0,0.0,0.0,0.0,0.0,0.0,0.0,0.0
2025/05/19 02:18:39.379401305,1747613919,376001189,mA1/imu,0.2080313694191251,0.9781215516215664,0.0005470991064500657,0.0009382289649472711,0.0,0.0,0.0,0.0,0.0,0.0,0.0,0.0,0.0,-0.0013083803585095945,-0.004667479458104248,0.008660561717132753,0.0,0.0,0.0,0.0,0.0,0.0,0.0,0.0,0.0,0.02559672963335165,-0.1636817506343509,9.810083799750625,0.0,0.0,0.0,0.0,0.0,0.0,0.0,0.0,0.0
2025/05/19 02:18:39.430371778,1747613919,427109059,mA1/imu,0.2082404433094865,0.9780769490601627,0.0005395561130708542,0.0010527899283200538,0.0,0.0,0.0,0.0,0.0,0.0,0.0,0.0,0.0,0.00032737508212185074,-0.004485521345752481,0.008412229134825672,0.0,0.0,0.0,0.0,0.0,0.0,0.0,0.0,0.0,0.03211054141184479,-0.5452544567811469,9.807681690573377,0.0,0.0,0.0,0.0,0.0,0.0,0.0,0.0,0.0
2025/05/19 02:18:39.480210577,1747613919,477416277,mA1/imu,0.20844385379115493,0.9780334972598453,0.0005410449265008416,0.0011598813538827816,0.0,0.0,0.0,0.0,0.0,0.0,0.0,0.0,0.0,-0.00104429710011902,-0.00390107011645851,0.00829435323403758,0.0,0.0,0.0,0.0,0.0,0.0,0.0,0.0,0.0,0.023047895943609974,0.6260467430245926,9.810313041510634,0.0,0.0,0.0,0.0,0.0,0.0,0.0,0.0,0.0
2025/05/19 02:18:39.531194520,1747613919,528487636,mA1/imu,0.20864580580004655,0.9779903136892236,0.0005571234872614184,0.0012504661224491311,0.0,0.0,0.0,0.0,0.0,0.0,0.0,0.0,0.0,-0.0006410321855764462,-0.0030740129185843562,0.008233172215005411,0.0,0.0,0.0,0.0,0.0,0.0,0.0,0.0,0.0,0.021457435727217495,-0.03134712620778056,9.808755820564887,0.0,0.0,0.0,0.0,0.0,0.0,0.0,0.0,0.0
2025/05/19 02:18:39.583323895,1747613919,579021715,mA1/imu,0.20884633028055616,0.9779474196775471,0.0005693128135865168,0.0013155064776131024,0.0,0.0,0.0,0.0,0.0,0.0,0.0,0.0,0.0,-0.0012421635307882381,-0.002014653668492821,0.008183269398270195,0.0,0.0,0.0,0.0,0.0,0.0,0.0,0.0,0.0,0.020908428340671376,-0.016386048199094456,9.808641946260888,0.0,0.0,0.0,0.0,0.0,0.0,0.0,0.0,0.0
2025/05/19 02:18:39.630981390,1747613919,629718309,mA1/imu,0.2090456324062071,0.9779047758638653,0.0005852831974613945,0.0013529072810592674,0.0,0.0,0.0,0.0,0.0,0.0,0.0,0.0,0.0,-0.00043347900178477406,-0.0008741028973176416,0.008133471254124126,0.0,0.0,0.0,0.0,0.0,0.0,0.0,0.0,0.0,0.020617755673547025,-0.34445719992352725,9.808487331588033,0.0,0.0,0.0,0.0,0.0,0.0,0.0,0.0,0.0
2025/05/19 02:18:39.680675602,1747613919,679827212,mA1/imu,0.20924360435275452,0.9778624062562893,0.0006101304394509761,0.001362427603428899,0.0,0.0,0.0,0.0,0.0,0.0,0.0,0.0,0.0,-0.0023445830808750618,0.0003143678549670299,0.00806929887484742,0.0,0.0,0.0,0.0,0.0,0.0,0.0,0.0,0.0,0.02156039655986133,0.4616245542201189,9.80939297195977,0.0,0.0,0.0,0.0,0.0,0.0,0.0,0.0,0.0
2025/05/19 02:18:39.723054444,1747613919,720669326,mA1/imu,0.2094381135484107,0.9778207833882818,0.0006263695346795752,0.0013415768394062528,0.0,0.0,0.0,0.0,0.0,0.0,0.0,0.0,0.0,-0.0007582820477579893,0.0013605454743607628,0.007845593033347335,0.0,0.0,0.0,0.0,0.0,0.0,0.0,0.0,0.0,0.02419738613831882,-0.013318585025242597,9.808420663155195,0.0,0.0,0.0,0.0,0.0,0.0,0.0,0.0,0.0
2025/05/19 02:18:39.771547359,1747613919,770524562,mA1/imu,0.2096286128414235,0.9777800127714085,0.0006449466904950446,0.0012943518421826652,0.0,0.0,0.0,0.0,0.0,0.0,0.0,0.0,0.0,-0.0010256629468983402,0.0024308361886701884,0.0077691619088658985,0.0,0.0,0.0,0.0,0.0,0.0,0.0,0.0,0.0,0.02141053018101319,0.5845559119989451,9.80869926331874,0.0,0.0,0.0,0.0,0.0,0.0,0.0,0.0,0.0
2025/05/19 02:18:39.825787874,1747613919,822078085,mA1/imu,0.20981946152933095,0.9777391541434782,0.0006696370200776943,0.0012213126539316306,0.0,0.0,0.0,0.0,0.0,0.0,0.0,0.0,0.0,-0.0007284676924999071,0.0035321609384334593,0.00790986339593994,0.0,0.0,0.0,0.0,0.0,0.0,0.0,0.0,0.0,0.013165543327401823,0.5890056564281768,9.80811944333832,0.0,0.0,0.0,0.0,0.0,0.0,0.0,0.0,0.0
2025/05/19 02:18:39.873220472,1747613919,871843730,mA1/imu,0.21001493027566515,0.9776972884774103,0.0006921115182609003,0.0011234531023739476,0.0,0.0,0.0,0.0,0.0,0.0,0.0,0.0,0.0,-0.0009045172223791136,0.0042595832057335204,0.008028208374162411,0.0,0.0,0.0,0.0,0.0,0.0,0.0,0.0,0.0,0.023352159101203068,0.5593716492341223,9.81126174931236,0.0,0.0,0.0,0.0,0.0,0.0,0.0,0.0,0.0
2025/05/19 02:18:39.928666884,1747613919,923789135,mA1/imu,0.21021167511015443,0.9776551104355995,0.0007132941039013525,0.0010138530759909033,0.0,0.0,0.0,0.0,0.0,0.0,0.0,0.0,0.0,-0.0005039890720448372,0.004561662106813088,0.008034170698249282,0.0,0.0,0.0,0.0,0.0,0.0,0.0,0.0,0.0,0.02940421507959864,0.5729213190821499,9.812461091125932,0.0,0.0,0.0,0.0,0.0,0.0,0.0,0.0,0.0
2025/05/19 02:18:39.977367647,1747613919,975321986,mA1/imu,0.21040655869198802,0.9776132929000441,0.0007231603890360161,0.0008981333860240474,0.0,0.0,0.0,0.0,0.0,0.0,0.0,0.0,0.0,-6.423442169012093e-05,0.004594625416136482,0.007939436737909695,0.0,0.0,0.0,0.0,0.0,0.0,0.0,0.0,0.0,0.029122193054652308,0.3906806071447952,9.809058623007862,0.0,0.0,0.0,0.0,0.0,0.0,0.0,0.0,0.0
2025/05/19 02:18:40.29326496,1747613920,26381964,mA1/imu,0.21059991611457046,0.9775717398112748,0.0007413727935198264,0.0007869061407340897,0.0,0.0,0.0,0.0,0.0,0.0,0.0,0.0,0.0,-0.0007221584290909556,0.004379706580201434,0.00788447959329993,0.0,0.0,0.0,0.0,0.0,0.0,0.0,0.0,0.0,0.030765714119011304,0.4861453220847651,9.81090406286162,0.0,0.0,0.0,0.0,0.0,0.0,0.0,0.0,0.0
2025/05/19 02:18:40.80780873,1747613920,77414866,mA1/imu,0.21079195284388513,0.9775304329790676,0.0007373302803052066,0.0006793821277627616,0.0,0.0,0.0,0.0,0.0,0.0,0.0,0.0,0.0,0.0006050981579235007,0.0040151882491723,0.007853077865833152,0.0,0.0,0.0,0.0,0.0,0.0,0.0,0.0,0.0,0.026476748382664526,-0.013112574126218818,9.81065938398312,0.0,0.0,0.0,0.0,0.0,0.0,0.0,0.0,0.0
2025/05/19 02:18:40.131599779,1747613920,129169182,mA1/imu,0.21098125224999567,0.9774896533098303,0.0007375005148236664,0.0005873365665227889,0.0,0.0,0.0,0.0,0.0,0.0,0.0,0.0,0.0,0.001086608141614962,0.0032281876924047446,0.007596644948202052,0.0,0.0,0.0,0.0,0.0,0.0,0.0,0.0,0.0,0.03897349051390677,0.0050844471004399365,9.815023746469596,0.0,0.0,0.0,0.0,0.0,0.0,0.0,0.0,0.0
2025/05/19 02:18:40.180030460,1747613920,178944259,mA1/imu,0.2111643281834506,0.9774501693800096,0.0007264824290615262,0.0005148835818166359,0.0,0.0,0.0,0.0,0.0,0.0,0.0,0.0,0.0,0.0010456646205029313,0.0024302126170468504,0.00748185739538274,0.0,0.0,0.0,0.0,0.0,0.0,0.0,0.0,0.0,0.027180686441695023,0.0014094496553936735,9.810663987845352,0.0,0.0,0.0,0.0,0.0,0.0,0.0,0.0,0.0
2025/05/19 02:18:40.231326348,1747613920,229916456,mA1/imu,0.21134631581321603,0.9774108709130469,0.0007136439836151946,0.00046360052223496143,0.0,0.0,0.0,0.0,0.0,0.0,0.0,0.0,0.0,0.0009838290921451594,0.0015084294376283523,0.007418598313134086,0.0,0.0,0.0,0.0,0.0,0.0,0.0,0.0,0.0,0.028442000436178158,-0.005825538206374586,9.810581981740771,0.0,0.0,0.0,0.0,0.0,0.0,0.0,0.0,0.0
2025/05/19 02:18:40.277846533,1747613920,271708552,mA1/imu,0.21152709120440333,0.9773717941054237,0.0006908074210041645,0.0004342336426238334,0.0,0.0,0.0,0.0,0.0,0.0,0.0,0.0,0.0,0.0013067911662569653,0.000575792110300494,0.007385923351967215,0.0,0.0,0.0,0.0,0.0,0.0,0.0,0.0,0.0,0.027265010745322935,0.014337008792399216,9.811056114840556,0.0,0.0,0.0,0.0,0.0,0.0,0.0,0.0,0.0
2025/05/19 02:18:40.324203743,1747613920,322799706,mA1/imu,0.21170479745367768,0.9773333363489538,0.0006658985223596867,0.0004300875237678262,0.0,0.0,0.0,0.0,0.0,0.0,0.0,0.0,0.0,-0.00023172901840297618,-0.0005283072708662516,0.007118743956222966,0.0,0.0,0.0,0.0,0.0,0.0,0.0,0.0,0.0,0.03638580421920583,0.5364685656836277,9.809854002647128,0.0,0.0,0.0,0.0,0.0,0.0,0.0,0.0,0.0
2025/05/19 02:18:40.376080346,1747613920,372665654,mA1/imu,0.21187631102230028,0.9772961821352488,0.0006309094372022696,0.00045073798365182074,0.0,0.0,0.0,0.0,0.0,0.0,0.0,0.0,0.0,-0.00024231537193204506,-0.0014193858603512564,0.0070013733888839675,0.0,0.0,0.0,0.0,0.0,0.0,0.0,0.0,0.0,0.024878622914340714,0.5456444443695742,9.810734594150528,0.0,0.0,0.0,0.0,0.0,0.0,0.0,0.0,0.0
2025/05/19 02:18:40.432115564,1747613920,425971155,mA1/imu,0.21204453183718036,0.9772596966295638,0.0005984432872756755,0.0004936872248941356,0.0,0.0,0.0,0.0,0.0,0.0,0.0,0.0,0.0,0.0002641342835536344,-0.0023556836299763813,0.006728631676227145,0.0,0.0,0.0,0.0,0.0,0.0,0.0,0.0,0.0,0.03518455456490346,-0.07318538544721268,9.809663271636383,0.0,0.0,0.0,0.0,0.0,0.0,0.0,0.0,0.0
2025/05/19 02:18:40.479023145,1747613920,476345144,mA1/imu,0.2122063653637872,0.9772245585060655,0.0005581743804530003,0.000556051325985657,0.0,0.0,0.0,0.0,0.0,0.0,0.0,0.0,0.0,0.0016680024753980846,-0.0029975933913090253,0.006599473709321523,0.0,0.0,0.0,0.0,0.0,0.0,0.0,0.0,0.0,0.022934404256265167,-0.5665345344369528,9.808942678612679,0.0,0.0,0.0,0.0,0.0,0.0,0.0,0.0,0.0
2025/05/19 02:18:40.531484931,1747613920,527379677,mA1/imu,0.21236671500652396,0.9771897001890801,0.0005205037432211866,0.000630299584943947,0.0,0.0,0.0,0.0,0.0,0.0,0.0,0.0,0.0,0.001355729716926247,-0.0033569004708973453,0.0065362910082824395,0.0,0.0,0.0,0.0,0.0,0.0,0.0,0.0,0.0,0.02143010766110484,0.05328803712689729,9.810010069951566,0.0,0.0,0.0,0.0,0.0,0.0,0.0,0.0,0.0
2025/05/19 02:18:40.581797533,1747613920,578265684,mA1/imu,0.21252551426043784,0.9771551332029392,0.0004930836097933068,0.0007129600523494437,0.0,0.0,0.0,0.0,0.0,0.0,0.0,0.0,0.0,-0.00030037505376647274,-0.0035073613409156486,0.006473125658671992,0.0,0.0,0.0,0.0,0.0,0.0,0.0,0.0,0.0,0.02125693286920082,0.539260644043985,9.810505134599836,0.0,0.0,0.0,0.0,0.0,0.0,0.0,0.0,0.0
2025/05/19 02:18:40.631164822,1747613920,629358976,mA1/imu,0.21268238377815724,0.977120948717597,0.00046838062315425315,0.0007973877697972843,0.0,0.0,0.0,0.0,0.0,0.0,0.0,0.0,0.0,-0.0004326145142307489,-0.003505390040632848,0.006370428277763946,0.0,0.0,0.0,0.0,0.0,0.0,0.0,0.0,0.0,0.023423022719444152,-0.04410090475244943,9.808703634252483,0.0,0.0,0.0,0.0,0.0,0.0,0.0,0.0,0.0
2025/05/19 02:18:40.681174764,1747613920,679260602,mA1/imu,0.21283696141843741,0.9770872358872333,0.00043795001442607475,0.0008772230030284978,0.0,0.0,0.0,0.0,0.0,0.0,0.0,0.0,0.0,0.0013533668038038958,-0.003264098605225865,0.006305427093478608,0.0,0.0,0.0,0.0,0.0,0.0,0.0,0.0,0.0,0.01927837871554835,-0.5370789202895234,9.807690195499664,0.0,0.0,0.0,0.0,0.0,0.0,0.0,0.0,0.0
2025/05/19 02:18:40.722696806,1747613920,721585705,mA1/imu,0.21298844411785872,0.9770541627490976,0.00042347060149050964,0.0009520501895306481,0.0,0.0,0.0,0.0,0.0,0.0,0.0,0.0,0.0,0.0002421699870164829,-0.002924132047267142,0.0060950039198503485,0.0,0.0,0.0,0.0,0.0,0.0,0.0,0.0,0.0,0.018696258970374992,0.03171665492561751,9.809528773712723,0.0,0.0,0.0,0.0,0.0,0.0,0.0,0.0,0.0
2025/05/19 02:18:40.773859094,1747613920,771111075,mA1/imu,0.21313616831066276,0.9770218851078453,0.000420171541193937,0.001016481203525697,0.0,0.0,0.0,0.0,0.0,0.0,0.0,0.0,0.0,-0.0007625201194264305,-0.002268342147762153,0.006025542138176236,0.0,0.0,0.0,0.0,0.0,0.0,0.0,0.0,0.0,0.016692876154105744,0.1263520416390046,9.8093499301277,0.0,0.0,0.0,0.0,0.0,0.0,0.0,0.0,0.0
2025/05/19 02:18:40.824591954,1747613920,822056336,mA1/imu,0.21328127558756002,0.9769901672990872,0.0004248467221100204,0.0010630098342560383,0.0,0.0,0.0,0.0,0.0,0.0,0.0,0.0,0.0,-0.0009600489161914111,-0.0015261869638875476,0.005797766789341231,0.0,0.0,0.0,0.0,0.0,0.0,0.0,0.0,0.0,0.029299432231691683,-0.04068162932298832,9.806284290813036,0.0,0.0,0.0,0.0,0.0,0.0,0.0,0.0,0.0
2025/05/19 02:18:40.874272333,1747613920,872687339,mA1/imu,0.2134165676281897,0.9769605882888814,0.0004291324286833598,0.0010924456066614217,0.0,0.0,0.0,0.0,0.0,0.0,0.0,0.0,0.0,0.0005215641076721499,-0.0008312397564602518,0.00536495859917725,0.0,0.0,0.0,0.0,0.0,0.0,0.0,0.0,0.0,0.02410503074085699,-0.5452908290176119,9.80598498455106,0.0,0.0,0.0,0.0,0.0,0.0,0.0,0.0,0.0
2025/05/19 02:18:40.929536827,1747613920,923787550,mA1/imu,0.21354099570882418,0.9769333766253576,0.00045018947434837447,0.001103683151201069,0.0,0.0,0.0,0.0,0.0,0.0,0.0,0.0,0.0,-8.068312224372054e-05,0.00011397794862966077,0.004918045676208657,0.0,0.0,0.0,0.0,0.0,0.0,0.0,0.0,0.0,0.011426813275927466,0.06430975747019389,9.807081176788552,0.0,0.0,0.0,0.0,0.0,0.0,0.0,0.0,0.0
2025/05/19 02:18:40.978782763,1747613920,974136692,mA1/imu,0.21365461495188154,0.9769085296128477,0.0004864031900399685,0.0010925618352916465,0.0,0.0,0.0,0.0,0.0,0.0,0.0,0.0,0.0,-0.00021013858467143308,0.0011260310716630251,0.00447800556776516,0.0,0.0,0.0,0.0,0.0,0.0,0.0,0.0,0.0,0.014729002136573226,0.06202410602093259,9.810448333244201,0.0,0.0,0.0,0.0,0.0,0.0,0.0,0.0,0.0
