time,header_stamp_secs,header_stamp_nsecs,header_frame_id,orientation_x,orientation_y,orientation_z,orientation_w,orientation_covariance_0,orientation_covariance_1,orientation_covariance_2,orientation_covariance_3,orientation_covariance_4,orientation_covariance_5,orientation_covariance_6,orientation_covariance_7,orientation_covariance_8,angular_velocity_x,angular_velocity_y,angular_velocity_z,angular_velocity_covariance_0,angular_velocity_covariance_1,angular_velocity_covariance_2,angular_velocity_covariance_3,angular_velocity_covariance_4,angular_velocity_covariance_5,angular_velocity_covariance_6,angular_velocity_covariance_7,angular_velocity_covariance_8,linear_acceleration_x,linear_acceleration_y,linear_acceleration_z,linear_acceleration_covariance_0,linear_acceleration_covariance_1,linear_acceleration_covariance_2,linear_acceleration_covariance_3,linear_acceleration_covariance_4,linear_acceleration_covariance_5,linear_acceleration_covariance_6,linear_acceleration_covariance_7,linear_acceleration_covariance_8
2025/05/20 13:08:12.375514835,1747739292,318749260,mA1/imu,0.25381354894412617,0.9672527444078597,0.0006725165190345174,0.000598773231565107,0.0,0.0,0.0,0.0,0.0,0.0,0.0,0.0,0.0,-0.0009437118790255697,0.0001594857301146733,-4.412510115580041e-05,0.0,0.0,0.0,0.0,0.0,0.0,0.0,0.0,0.0,0.007917103291017337,0.5536693146747235,9.811412690910911,0.0,0.0,0.0,0.0,0.0,0.0,0.0,0.0,0.0
2025/05/20 13:08:12.375570967,1747739292,368260535,mA1/imu,0.25381248605799717,0.9672530206366163,0.0006787319753602834,0.0005960816271418568,0.0,0.0,0.0,0.0,0.0,0.0,0.0,0.0,0.0,-0.000789054171082886,0.00017600544613123156,-4.3453891102240823e-05,0.0,0.0,0.0,0.0,0.0,0.0,0.0,0.0,0.0,0.0074421094819044995,-0.06340354825617121,9.810408300911154,0.0,0.0,0.0,0.0,0.0,0.0,0.0,0.0,0.0
2025/05/20 13:08:12.419421103,1747739292,419279074,mA1/imu,0.25381144376962267,0.9672532983912051,0.0006769231487200765,0.0005912173582935873,0.0,0.0,0.0,0.0,0.0,0.0,0.0,0.0,0.0,0.0008189241716162279,0.00016845584628801403,-4.2789847415538375e-05,0.0,0.0,0.0,0.0,0.0,0.0,0.0,0.0,0.0,0.00781959080418592,-0.585034283708306,9.8086487624831,0.0,0.0,0.0,0.0,0.0,0.0,0.0,0.0,0.0
2025/05/20 13:08:12.469423481,1747739292,469236272,mA1/imu,0.2538106055520112,0.9672535218225355,0.0006748416994163468,0.0005878944666915741,0.0,0.0,0.0,0.0,0.0,0.0,0.0,0.0,0.0,0.0007073984086007585,6.353738748532384e-05,-2.9467407607230457e-05,0.0,0.0,0.0,0.0,0.0,0.0,0.0,0.0,0.0,0.009771500939831953,0.032824898468051866,9.809908121410748,0.0,0.0,0.0,0.0,0.0,0.0,0.0,0.0,0.0
2025/05/20 13:08:12.520662411,1747739292,520511572,mA1/imu,0.25380989430098955,0.9672537052959739,0.0006796868878094673,0.0005875132884153859,0.0,0.0,0.0,0.0,0.0,0.0,0.0,0.0,0.0,-0.0008713138250064587,5.998438495026443e-05,-2.912808070776387e-05,0.0,0.0,0.0,0.0,0.0,0.0,0.0,0.0,0.0,0.007948896033144047,0.5536759885916782,9.811355193625612,0.0,0.0,0.0,0.0,0.0,0.0,0.0,0.0,0.0
2025/05/20 13:08:12.570424524,1747739292,570106834,mA1/imu,0.2538089976778755,0.9672539386722917,0.0006838369242364856,0.0005858222868690953,0.0,0.0,0.0,0.0,0.0,0.0,0.0,0.0,0.0,-0.00072084316901743,0.0001407631671095877,-4.181407396310719e-05,0.0,0.0,0.0,0.0,0.0,0.0,0.0,0.0,0.0,0.006029697809272281,-0.06384159409497175,9.810296138654012,0.0,0.0,0.0,0.0,0.0,0.0,0.0,0.0,0.0
2025/05/20 13:08:12.611100886,1747739292,610971044,mA1/imu,0.2538079955775928,0.9672542067795052,0.0006800303194123487,0.0005817275989083328,0.0,0.0,0.0,0.0,0.0,0.0,0.0,0.0,0.0,0.0008889568627360899,0.00010877730572604972,-4.123697110128612e-05,0.0,0.0,0.0,0.0,0.0,0.0,0.0,0.0,0.0,0.00789937914011887,-0.5850195562020891,9.808538202927435,0.0,0.0,0.0,0.0,0.0,0.0,0.0,0.0,0.0
2025/05/20 13:08:12.661027969,1747739292,660859429,mA1/imu,0.2538070065437687,0.9672544708962757,0.0006763030577965162,0.0005784242656516535,0.0,0.0,0.0,0.0,0.0,0.0,0.0,0.0,0.0,0.0007667522703185179,7.195016704624045e-05,-4.073189533168302e-05,0.0,0.0,0.0,0.0,0.0,0.0,0.0,0.0,0.0,0.008390066953383596,0.03242826719263525,9.809770362441709,0.0,0.0,0.0,0.0,0.0,0.0,0.0,0.0,0.0
2025/05/20 13:08:12.712014736,1747739292,711893233,mA1/imu,0.253806025819763,0.9672547261939514,0.0006797221153751372,0.0005778329237575714,0.0,0.0,0.0,0.0,0.0,0.0,0.0,0.0,0.0,-0.0008156373926555724,4.3724708483061243e-05,-4.025750760425396e-05,0.0,0.0,0.0,0.0,0.0,0.0,0.0,0.0,0.0,0.008095119594920883,0.5536927734979799,9.81122911379916,0.0,0.0,0.0,0.0,0.0,0.0,0.0,0.0,0.0
2025/05/20 13:08:12.761927485,1747739292,761758885,mA1/imu,0.2538050585758972,0.9672549784560579,0.000681905508426302,0.0005778391938100967,0.0,0.0,0.0,0.0,0.0,0.0,0.0,0.0,0.0,-0.000660829691784999,1.2247725107334107e-05,-3.973621975253797e-05,0.0,0.0,0.0,0.0,0.0,0.0,0.0,0.0,0.0,0.007593219474187526,-0.06337072912410453,9.810211145924368,0.0,0.0,0.0,0.0,0.0,0.0,0.0,0.0,0.0
2025/05/20 13:08:12.813817823,1747739292,813607003,mA1/imu,0.2538041091613609,0.967255232484626,0.0006758892615144739,0.0005766954363003086,0.0,0.0,0.0,0.0,0.0,0.0,0.0,0.0,0.0,0.0009410628905678055,-3.199795790260339e-05,-3.919662342733815e-05,0.0,0.0,0.0,0.0,0.0,0.0,0.0,0.0,0.0,0.007885008312058246,-0.5850936317214813,9.808444415645374,0.0,0.0,0.0,0.0,0.0,0.0,0.0,0.0,0.0
2025/05/20 13:08:12.862824680,1747739292,862627938,mA1/imu,0.2538031724220168,0.9672554823569036,0.0006701351092351953,0.0005765743399000282,0.0,0.0,0.0,0.0,0.0,0.0,0.0,0.0,0.0,0.0008085042156234361,-7.277093572857589e-05,-3.869751414174544e-05,0.0,0.0,0.0,0.0,0.0,0.0,0.0,0.0,0.0,0.008378553426656419,0.03237651141070656,9.809685837342975,0.0,0.0,0.0,0.0,0.0,0.0,0.0,0.0,0.0
2025/05/20 13:08:12.914137908,1747739292,913958612,mA1/imu,0.2538022441461059,0.967255723191912,0.0006718244446767683,0.0005791984177796153,0.0,0.0,0.0,0.0,0.0,0.0,0.0,0.0,0.0,-0.0007866010511390541,-9.524304534163839e-05,-3.819854958722023e-05,0.0,0.0,0.0,0.0,0.0,0.0,0.0,0.0,0.0,0.008010599250092875,0.5536965369303665,9.811168528606188,0.0,0.0,0.0,0.0,0.0,0.0,0.0,0.0,0.0
2025/05/20 13:08:12.964018862,1747739292,963721824,mA1/imu,0.253801329670563,0.9672559607234031,0.0006726727891842241,0.0005822489324843679,0.0,0.0,0.0,0.0,0.0,0.0,0.0,0.0,0.0,-0.0006456592301733874,-0.00011308203636067021,-3.764327252495969e-05,0.0,0.0,0.0,0.0,0.0,0.0,0.0,0.0,0.0,0.007507720386017954,-0.06336396396936389,9.810174911235954,0.0,0.0,0.0,0.0,0.0,0.0,0.0,0.0,0.0
2025/05/20 13:08:13.15137809,1747739293,14998986,mA1/imu,0.2538004334019289,0.9672561997278867,0.0006657844522726831,0.0005838013555608708,0.0,0.0,0.0,0.0,0.0,0.0,0.0,0.0,0.0,0.0009415882259591373,-0.0001362037738656219,-3.70660608519448e-05,0.0,0.0,0.0,0.0,0.0,0.0,0.0,0.0,0.0,0.007769490558584658,-0.5851332097650902,9.80844963422255,0.0,0.0,0.0,0.0,0.0,0.0,0.0,0.0,0.0
2025/05/20 13:08:13.64871239,1747739293,64609630,mA1/imu,0.25379955010597777,0.9672564344323762,0.0006596622781466175,0.0005858846715985187,0.0,0.0,0.0,0.0,0.0,0.0,0.0,0.0,0.0,0.0007945569252061452,-0.00015094408139185446,-3.65297137081956e-05,0.0,0.0,0.0,0.0,0.0,0.0,0.0,0.0,0.0,0.008257625944507418,0.03233973699562134,9.809723985329756,0.0,0.0,0.0,0.0,0.0,0.0,0.0,0.0,0.0
2025/05/20 13:08:13.115729654,1747739293,115598037,mA1/imu,0.25379867537232553,0.9672566601267791,0.0006615011197820911,0.0005901151667400984,0.0,0.0,0.0,0.0,0.0,0.0,0.0,0.0,0.0,-0.0008139259938238259,-0.00014381870703672844,-3.599797962189041e-05,0.0,0.0,0.0,0.0,0.0,0.0,0.0,0.0,0.0,0.007890891531956937,0.5537054493190603,9.81124371569419,0.0,0.0,0.0,0.0,0.0,0.0,0.0,0.0,0.0
2025/05/20 13:08:13.165924767,1747739293,165803890,mA1/imu,0.25379781445864136,0.9672568825535794,0.000663003878515258,0.0005940998275820947,0.0,0.0,0.0,0.0,0.0,0.0,0.0,0.0,0.0,-0.0006852305548893029,-0.00012956493409497133,-3.5415378825092734e-05,0.0,0.0,0.0,0.0,0.0,0.0,0.0,0.0,0.0,0.007384295314284231,-0.06336846909616371,9.810264261445747,0.0,0.0,0.0,0.0,0.0,0.0,0.0,0.0,0.0
2025/05/20 13:08:13.218522685,1747739293,218380000,mA1/imu,0.25379697169096316,0.9672571065269074,0.0006572487045179129,0.0005958672936786904,0.0,0.0,0.0,0.0,0.0,0.0,0.0,0.0,0.0,0.0008914810805449656,-0.00012000325922075652,-3.481896010740573e-05,0.0,0.0,0.0,0.0,0.0,0.0,0.0,0.0,0.0,0.007659175420263384,-0.585138975378786,9.808544451793807,0.0,0.0,0.0,0.0,0.0,0.0,0.0,0.0,0.0
2025/05/20 13:08:13.268539294,1747739293,268290433,mA1/imu,0.2537961414512281,0.9672573264857127,0.0006526902370803844,0.0005974442518560155,0.0,0.0,0.0,0.0,0.0,0.0,0.0,0.0,0.0,0.0007360575614015236,-0.00010266074100670911,-3.4276470338614954e-05,0.0,0.0,0.0,0.0,0.0,0.0,0.0,0.0,0.0,0.008137454941569158,0.03234344741930774,9.809842272007392,0.0,0.0,0.0,0.0,0.0,0.0,0.0,0.0,0.0
2025/05/20 13:08:13.323027429,1747739293,321098141,mA1/imu,0.2537953189816286,0.9672575378703036,0.0006564512194052019,0.0006004730539382393,0.0,0.0,0.0,0.0,0.0,0.0,0.0,0.0,0.0,-0.0008781157053169774,-6.647350993605729e-05,-3.375586073493401e-05,0.0,0.0,0.0,0.0,0.0,0.0,0.0,0.0,0.0,0.007811180494167081,0.553681908628812,9.81137367057112,0.0,0.0,0.0,0.0,0.0,0.0,0.0,0.0,0.0
2025/05/20 13:08:13.364157550,1747739293,363669159,mA1/imu,0.2537945093760328,0.9672577464355419,0.0006601377536559129,0.0006026517750005096,0.0,0.0,0.0,0.0,0.0,0.0,0.0,0.0,0.0,-0.00075235773488948,-2.8581154910008476e-05,-3.320177124880702e-05,0.0,0.0,0.0,0.0,0.0,0.0,0.0,0.0,0.0,0.007324325755608459,-0.06340686134827113,9.810373045674696,0.0,0.0,0.0,0.0,0.0,0.0,0.0,0.0,0.0
2025/05/20 13:08:13.414171118,1747739293,414038658,mA1/imu,0.2537937167451119,0.9672579570594462,0.0006567067553312486,0.0006021479268305123,0.0,0.0,0.0,0.0,0.0,0.0,0.0,0.0,0.0,0.0008250722094642275,-2.4537770251588073e-06,-3.264901606171985e-05,0.0,0.0,0.0,0.0,0.0,0.0,0.0,0.0,0.0,0.007637718348755524,-0.5850953521776973,9.80863584781356,0.0,0.0,0.0,0.0,0.0,0.0,0.0,0.0,0.0
2025/05/20 13:08:13.467805267,1747739293,467591002,mA1/imu,0.25379293522181257,0.9672581642495928,0.0006544947024453758,0.0006011328382664588,0.0,0.0,0.0,0.0,0.0,0.0,0.0,0.0,0.0,0.0006733835378410145,2.459601034289467e-05,-3.216167665713489e-05,0.0,0.0,0.0,0.0,0.0,0.0,0.0,0.0,0.0,0.008144892135183827,0.03239601533117276,9.809925876135903,0.0,0.0,0.0,0.0,0.0,0.0,0.0,0.0,0.0
2025/05/20 13:08:13.518868015,1747739293,518597542,mA1/imu,0.253792159905583,0.9672583635108762,0.0006603928246887375,0.0006013900878774156,0.0,0.0,0.0,0.0,0.0,0.0,0.0,0.0,0.0,-0.0009300313358922066,6.249120569929914e-05,-3.171329048161848e-05,0.0,0.0,0.0,0.0,0.0,0.0,0.0,0.0,0.0,0.007857763459427998,0.5539525382377121,9.811428465172375,0.0,0.0,0.0,0.0,0.0,0.0,0.0,0.0,0.0
2025/05/20 13:08:13.568788409,1747739293,568445764,mA1/imu,0.2537913957531625,0.967258560479783,0.0006660588735470203,0.000600820952311628,0.0,0.0,0.0,0.0,0.0,0.0,0.0,0.0,0.0,-0.0007982634622225003,9.50558809874301e-05,-3.123722996244513e-05,0.0,0.0,0.0,0.0,0.0,0.0,0.0,0.0,0.0,0.007383068665769942,-0.06331187815556767,9.810381191528654,0.0,0.0,0.0,0.0,0.0,0.0,0.0,0.0,0.0
2025/05/20 13:08:13.619850163,1747739293,619572506,mA1/imu,0.25379064703683657,0.9672587600104348,0.0006643500089694092,0.0005977447328749803,0.0,0.0,0.0,0.0,0.0,0.0,0.0,0.0,0.0,0.0007884868284686898,0.00010902482331764434,-3.075702838604398e-05,0.0,0.0,0.0,0.0,0.0,0.0,0.0,0.0,0.0,0.00773409713557126,-0.585016042677863,9.808631274480653,0.0,0.0,0.0,0.0,0.0,0.0,0.0,0.0,0.0
2025/05/20 13:08:13.669574780,1747739293,669278918,mA1/imu,0.2537899081448456,0.9672589565267277,0.0006634398038482272,0.0005944663856167491,0.0,0.0,0.0,0.0,0.0,0.0,0.0,0.0,0.0,0.0006504960685853709,0.0001176207624052438,-3.0338643542870818e-05,0.0,0.0,0.0,0.0,0.0,0.0,0.0,0.0,0.0,0.008234232045804195,0.03258281174377138,9.809897833178027,0.0,0.0,0.0,0.0,0.0,0.0,0.0,0.0,0.0
2025/05/20 13:08:13.720547023,1747739293,720402690,mA1/imu,0.2537891742948204,0.9672591452517935,0.0006703344046515887,0.0005929496682286699,0.0,0.0,0.0,0.0,0.0,0.0,0.0,0.0,0.0,-0.0009455427895313428,0.00013124938814377984,-2.9959184509296726e-05,0.0,0.0,0.0,0.0,0.0,0.0,0.0,0.0,0.0,0.007972574502416375,0.5537365739413275,9.811349009672774,0.0,0.0,0.0,0.0,0.0,0.0,0.0,0.0,0.0
2025/05/20 13:08:13.761313441,1747739293,761066794,mA1/imu,0.2537884505727023,0.9672593319638458,0.0006764797766061075,0.0005911513117219385,0.0,0.0,0.0,0.0,0.0,0.0,0.0,0.0,0.0,-0.0007981844275014862,0.00013644213052933522,-2.9555442332175927e-05,0.0,0.0,0.0,0.0,0.0,0.0,0.0,0.0,0.0,0.007486436870336188,-0.06339026797538923,9.810287237229604,0.0,0.0,0.0,0.0,0.0,0.0,0.0,0.0,0.0
2025/05/20 13:08:13.811558596,1747739293,811403776,mA1/imu,0.2537877410331702,0.9672595216237774,0.0006747036572761206,0.0005874558679598991,0.0,0.0,0.0,0.0,0.0,0.0,0.0,0.0,0.0,0.0008030918157841031,0.0001202510563571345,-2.9157120975966944e-05,0.0,0.0,0.0,0.0,0.0,0.0,0.0,0.0,0.0,0.007855378725508044,-0.5850503075372379,9.80853006991645,0.0,0.0,0.0,0.0,0.0,0.0,0.0,0.0,0.0
2025/05/20 13:08:13.861506767,1747739293,861281434,mA1/imu,0.2537870399613406,0.9672597085426659,0.0006732578894275267,0.0005842100924672447,0.0,0.0,0.0,0.0,0.0,0.0,0.0,0.0,0.0,0.0006763013527855313,9.889128028983773e-05,-2.882510309398682e-05,0.0,0.0,0.0,0.0,0.0,0.0,0.0,0.0,0.0,0.008354825666448,0.03242787609448512,9.809788673812237,0.0,0.0,0.0,0.0,0.0,0.0,0.0,0.0,0.0
2025/05/20 13:08:13.912892336,1747739293,912592161,mA1/imu,0.25378634261680877,0.9672598879442024,0.0006791055527196473,0.0005833446676757838,0.0,0.0,0.0,0.0,0.0,0.0,0.0,0.0,0.0,-0.0009066391995322585,8.425850508023926e-05,-2.853106078125689e-05,0.0,0.0,0.0,0.0,0.0,0.0,0.0,0.0,0.0,0.008066037349066166,0.5536723322538316,9.811242293404849,0.0,0.0,0.0,0.0,0.0,0.0,0.0,0.0,0.0
2025/05/20 13:08:13.962480364,1747739293,962202813,mA1/imu,0.2537856539598559,0.9672600656999403,0.0006837566534229767,0.0005827719575516421,0.0,0.0,0.0,0.0,0.0,0.0,0.0,0.0,0.0,-0.0007488014093955599,6.3752465944311e-05,-2.8210004975544112e-05,0.0,0.0,0.0,0.0,0.0,0.0,0.0,0.0,0.0,0.007581325453579362,-0.06340920820910888,9.810185354071745,0.0,0.0,0.0,0.0,0.0,0.0,0.0,0.0,0.0
2025/05/20 13:08:14.14141112,1747739294,13857308,mA1/imu,0.2537849780264088,0.967260246797234,0.0006801234048309869,0.0005807977647893796,0.0,0.0,0.0,0.0,0.0,0.0,0.0,0.0,0.0,0.0008603857279532385,2.70210837793072e-05,-2.7886548285425837e-05,0.0,0.0,0.0,0.0,0.0,0.0,0.0,0.0,0.0,0.007894941708132727,-0.5850649315295672,9.808435754399033,0.0,0.0,0.0,0.0,0.0,0.0,0.0,0.0,0.0
2025/05/20 13:08:14.63263372,1747739294,63093107,mA1/imu,0.25378430937960406,0.9672604254218425,0.000676554408623435,0.0005796547300223207,0.0,0.0,0.0,0.0,0.0,0.0,0.0,0.0,0.0,0.0007390403212957803,-9.620361844152524e-06,-2.761488957224308e-05,0.0,0.0,0.0,0.0,0.0,0.0,0.0,0.0,0.0,0.008387346497270218,0.03241839371686518,9.809711891512551,0.0,0.0,0.0,0.0,0.0,0.0,0.0,0.0,0.0
2025/05/20 13:08:14.114238085,1747739294,114054807,mA1/imu,0.2537836437122924,0.9672605966961308,0.0006801127141611669,0.0005811280868871767,0.0,0.0,0.0,0.0,0.0,0.0,0.0,0.0,0.0,-0.00083882935000376,-3.208746311138002e-05,-2.7352153740329717e-05,0.0,0.0,0.0,0.0,0.0,0.0,0.0,0.0,0.0,0.008054740141009665,0.5526969184835828,9.81119812054562,0.0,0.0,0.0,0.0,0.0,0.0,0.0,0.0,0.0
2025/05/20 13:08:14.164547754,1747739294,163939146,mA1/imu,0.2537829863778265,0.967260766435748,0.0006824076306795269,0.0005829743618891662,0.0,0.0,0.0,0.0,0.0,0.0,0.0,0.0,0.0,-0.0006831837258895451,-5.348584466323963e-05,-2.7037553871895792e-05,0.0,0.0,0.0,0.0,0.0,0.0,0.0,0.0,0.0,0.007550747289047448,-0.06330237887752314,9.810167755185272,0.0,0.0,0.0,0.0,0.0,0.0,0.0,0.0,0.0
2025/05/20 13:08:14.215331896,1747739294,215182967,mA1/imu,0.25378234177270953,0.9672609394608064,0.000676523329162762,0.0005833643311887743,0.0,0.0,0.0,0.0,0.0,0.0,0.0,0.0,0.0,0.000921633149129415,-8.461828548074044e-05,-2.6702822570441207e-05,0.0,0.0,0.0,0.0,0.0,0.0,0.0,0.0,0.0,0.00784535477438831,-0.5850668922920992,9.80845646066387,0.0,0.0,0.0,0.0,0.0,0.0,0.0,0.0,0.0
2025/05/20 13:08:14.265075587,1747739294,264927836,mA1/imu,0.2537817047135888,0.9672611098978848,0.0006708991791172992,0.0005844023172018849,0.0,0.0,0.0,0.0,0.0,0.0,0.0,0.0,0.0,0.0007934387946819291,-0.00010963788201999463,-2.6407137642984243e-05,0.0,0.0,0.0,0.0,0.0,0.0,0.0,0.0,0.0,0.008319169910229064,0.0323934691912226,9.809747321659124,0.0,0.0,0.0,0.0,0.0,0.0,0.0,0.0,0.0
2025/05/20 13:08:14.315955234,1747739294,315850687,mA1/imu,0.25378107092912866,0.9672612729046226,0.000672705850017356,0.0005877447007957527,0.0,0.0,0.0,0.0,0.0,0.0,0.0,0.0,0.0,-0.0007960743476753013,-0.00011487700106381514,-2.6112219878212873e-05,0.0,0.0,0.0,0.0,0.0,0.0,0.0,0.0,0.0,0.007957321255657082,0.5537091354255249,9.81126124124249,0.0,0.0,0.0,0.0,0.0,0.0,0.0,0.0,0.0
2025/05/20 13:08:14.365826029,1747739294,365696008,mA1/imu,0.25378044581002707,0.9672614342500484,0.0006736504337934961,0.0005910432270544374,0.0,0.0,0.0,0.0,0.0,0.0,0.0,0.0,0.0,-0.0006495947904763516,-0.0001141545254053626,-2.5759961258408614e-05,0.0,0.0,0.0,0.0,0.0,0.0,0.0,0.0,0.0,0.007448351463468629,-0.06337326355372092,9.810253213567778,0.0,0.0,0.0,0.0,0.0,0.0,0.0,0.0,0.0
2025/05/20 13:08:14.416785403,1747739294,416666712,mA1/imu,0.25377983381911423,0.9672615987335358,0.000666833982367723,0.0005923635936961147,0.0,0.0,0.0,0.0,0.0,0.0,0.0,0.0,0.0,0.0009433592322087653,-0.00011924821435771527,-2.538712098751345e-05,0.0,0.0,0.0,0.0,0.0,0.0,0.0,0.0,0.0,0.007718380374398794,-0.5851293992073796,9.808556254542722,0.0,0.0,0.0,0.0,0.0,0.0,0.0,0.0,0.0
2025/05/20 13:08:14.466696688,1747739294,466510015,mA1/imu,0.25377922964019756,0.9672617605725202,0.0006607632791574685,0.0005937417495351981,0.0,0.0,0.0,0.0,0.0,0.0,0.0,0.0,0.0,0.0008019010482551898,-0.00011601514566916286,-2.5054657319412423e-05,0.0,0.0,0.0,0.0,0.0,0.0,0.0,0.0,0.0,0.008204632251356923,0.03236008714069772,9.809865649056336,0.0,0.0,0.0,0.0,0.0,0.0,0.0,0.0,0.0
2025/05/20 13:08:14.517780489,1747739294,517628723,mA1/imu,0.25377862880314844,0.9672619150358038,0.0006626331421946768,0.0005968260905101078,0.0,0.0,0.0,0.0,0.0,0.0,0.0,0.0,0.0,-0.0008014148378774662,-9.296431151110859e-05,-2.4728299485181566e-05,0.0,0.0,0.0,0.0,0.0,0.0,0.0,0.0,0.0,0.00785748489039928,0.5536781190722678,9.811363035669192,0.0,0.0,0.0,0.0,0.0,0.0,0.0,0.0,0.0
2025/05/20 13:08:14.567794435,1747739294,567548351,mA1/imu,0.25377803668699545,0.9672620679114866,0.0006640428820991541,0.0005992678360559207,0.0,0.0,0.0,0.0,0.0,0.0,0.0,0.0,0.0,-0.000658836842098346,-6.616895222296676e-05,-2.4354007035417846e-05,0.0,0.0,0.0,0.0,0.0,0.0,0.0,0.0,0.0,0.007367662374474428,-0.06275727318816134,9.810345430116467,0.0,0.0,0.0,0.0,0.0,0.0,0.0,0.0,0.0
2025/05/20 13:08:14.618845247,1747739294,618532750,mA1/imu,0.2537774575787833,0.967262223933031,0.0006581157077922071,0.0005992167312040345,0.0,0.0,0.0,0.0,0.0,0.0,0.0,0.0,0.0,0.000916171372858058,-4.8545801393439236e-05,-2.397029199601677e-05,0.0,0.0,0.0,0.0,0.0,0.0,0.0,0.0,0.0,0.007668873088812993,-0.5848302287144522,9.808652042852547,0.0,0.0,0.0,0.0,0.0,0.0,0.0,0.0,0.0
2025/05/20 13:08:14.668708181,1747739294,668442470,mA1/imu,0.25377688580980756,0.9672623773579555,0.0006534296919137305,0.000598837331653912,0.0,0.0,0.0,0.0,0.0,0.0,0.0,0.0,0.0,0.0007610446693812996,-2.7039765764413187e-05,-2.3637397576245655e-05,0.0,0.0,0.0,0.0,0.0,0.0,0.0,0.0,0.0,0.008159238112640006,0.03248877222438995,9.809919027692,0.0,0.0,0.0,0.0,0.0,0.0,0.0,0.0,0.0
2025/05/20 13:08:14.719569349,1747739294,719419211,mA1/imu,0.25377631671627393,0.9672625235597532,0.0006570618690064931,0.0005998836884607602,0.0,0.0,0.0,0.0,0.0,0.0,0.0,0.0,0.0,-0.0008529519616517923,7.96905374518845e-06,-2.3325939379876997e-05,0.0,0.0,0.0,0.0,0.0,0.0,0.0,0.0,0.0,0.007852452181668397,0.5536764388960149,9.811391512514023,0.0,0.0,0.0,0.0,0.0,0.0,0.0,0.0,0.0
2025/05/20 13:08:14.769544604,1747739294,769321513,mA1/imu,0.2537757554713639,0.9672626682237634,0.0006605944248316115,0.0006001754661684351,0.0,0.0,0.0,0.0,0.0,0.0,0.0,0.0,0.0,-0.0007273991428379197,4.020664348619448e-05,-2.298144242532076e-05,0.0,0.0,0.0,0.0,0.0,0.0,0.0,0.0,0.0,0.007381231740247029,-0.06342614846001637,9.810390781400148,0.0,0.0,0.0,0.0,0.0,0.0,0.0,0.0,0.0
2025/05/20 13:08:14.821343503,1747739294,821029124,mA1/imu,0.2537752062651501,0.9672628161371947,0.0006569815011859332,0.0005979788721084024,0.0,0.0,0.0,0.0,0.0,0.0,0.0,0.0,0.0,0.000848711160229734,5.742701599155916e-05,-2.2634763309133667e-05,0.0,0.0,0.0,0.0,0.0,0.0,0.0,0.0,0.0,0.007706956712875251,-0.5850755200580241,9.8086374844588,0.0,0.0,0.0,0.0,0.0,0.0,0.0,0.0,0.0
2025/05/20 13:08:14.870450789,1747739294,870202506,mA1/imu,0.25377466352157174,0.9672629616727613,0.0006545653867677285,0.0005955457211479011,0.0,0.0,0.0,0.0,0.0,0.0,0.0,0.0,0.0,0.0006946258591225597,7.230545268148863e-05,-2.2341463213627583e-05,0.0,0.0,0.0,0.0,0.0,0.0,0.0,0.0,0.0,0.008212611454488818,0.03238940027491686,9.809873106148297,0.0,0.0,0.0,0.0,0.0,0.0,0.0,0.0,0.0
2025/05/20 13:08:14.911216419,1747739294,911070127,mA1/imu,0.2537741226467606,0.9672631001239876,0.000660351696181597,0.0005947680528881286,0.0,0.0,0.0,0.0,0.0,0.0,0.0,0.0,0.0,-0.0009163788752717441,9.52256172108826e-05,-2.2073602999088572e-05,0.0,0.0,0.0,0.0,0.0,0.0,0.0,0.0,0.0,0.007941699666016492,0.5536306874156969,9.811338711679294,0.0,0.0,0.0,0.0,0.0,0.0,0.0,0.0,0.0
2025/05/20 13:08:14.961109083,1747739294,960929052,mA1/imu,0.25377358880229745,0.967263237160265,0.0006658455817604908,0.0005935607033933274,0.0,0.0,0.0,0.0,0.0,0.0,0.0,0.0,0.0,-0.0007859300832197106,0.00011142031512775935,-2.1778586086057626e-05,0.0,0.0,0.0,0.0,0.0,0.0,0.0,0.0,0.0,0.007455957180428888,-0.06344370583172926,9.810314845048163,0.0,0.0,0.0,0.0,0.0,0.0,0.0,0.0,0.0
2025/05/20 13:08:15.13019102,1747739295,12731697,mA1/imu,0.2537730661304974,0.9672633776244984,0.0006639129549491898,0.000590281933791699,0.0,0.0,0.0,0.0,0.0,0.0,0.0,0.0,0.0,0.000797951556352315,0.00010768176558848734,-2.1484884897587456e-05,0.0,0.0,0.0,0.0,0.0,0.0,0.0,0.0,0.0,0.007804925732841578,-0.5850846118596096,9.808530238534443,0.0,0.0,0.0,0.0,0.0,0.0,0.0,0.0,0.0
2025/05/20 13:08:15.62415798,1747739295,61998329,mA1/imu,0.2537725490250756,0.9672635158882806,0.0006628176198771987,0.0005872525526175869,0.0,0.0,0.0,0.0,0.0,0.0,0.0,0.0,0.0,0.0006536522316937162,9.925067466216394e-05,-2.125203341841792e-05,0.0,0.0,0.0,0.0,0.0,0.0,0.0,0.0,0.0,0.00831227756692878,0.03239062437663981,9.809781728121049,0.0,0.0,0.0,0.0,0.0,0.0,0.0,0.0,0.0
2025/05/20 13:08:15.113173186,1747739295,112984993,mA1/imu,0.25377203283975786,0.9672636472262752,0.000669506525911352,0.0005863991066342308,0.0,0.0,0.0,0.0,0.0,0.0,0.0,0.0,0.0,-0.0009457251008564575,9.731073532574219e-05,-2.1051962640910187e-05,0.0,0.0,0.0,0.0,0.0,0.0,0.0,0.0,0.0,0.008027490585267395,0.5536463162685263,9.811241875457572,0.0,0.0,0.0,0.0,0.0,0.0,0.0,0.0,0.0
2025/05/20 13:08:15.162996331,1747739295,162795892,mA1/imu,0.25377152265421105,0.9672637774115875,0.000675445636517933,0.0005856367665148291,0.0,0.0,0.0,0.0,0.0,0.0,0.0,0.0,0.0,-0.0008023963204172355,8.885316454185108e-05,-2.082316681704304e-05,0.0,0.0,0.0,0.0,0.0,0.0,0.0,0.0,0.0,0.007549086719625106,-0.06343689054760189,9.810196490999083,0.0,0.0,0.0,0.0,0.0,0.0,0.0,0.0,0.0
2025/05/20 13:08:15.214356720,1747739295,213915836,mA1/imu,0.2537710225688326,0.967263911398892,0.0006734862364706016,0.0005832889290016666,0.0,0.0,0.0,0.0,0.0,0.0,0.0,0.0,0.0,0.000794948193633664,6.230188449698581e-05,-2.0595462316435506e-05,0.0,0.0,0.0,0.0,0.0,0.0,0.0,0.0,0.0,0.007887844406180188,-0.5850534136996333,9.808441573663448,0.0,0.0,0.0,0.0,0.0,0.0,0.0,0.0,0.0
2025/05/20 13:08:15.263809189,1747739295,263616666,mA1/imu,0.25377052703950176,0.9672640435122545,0.0006718929179281479,0.0005816307452254048,0.0,0.0,0.0,0.0,0.0,0.0,0.0,0.0,0.0,0.0006645609447079988,3.3273980590654836e-05,-2.042792719364561e-05,0.0,0.0,0.0,0.0,0.0,0.0,0.0,0.0,0.0,0.008377716256684969,0.03242389483120324,9.809714696602677,0.0,0.0,0.0,0.0,0.0,0.0,0.0,0.0,0.0
2025/05/20 13:08:15.315149016,1747739295,314938826,mA1/imu,0.25377003153299577,0.9672641689823862,0.0006776517439628849,0.0005824831931345721,0.0,0.0,0.0,0.0,0.0,0.0,0.0,0.0,0.0,-0.0009218977022517966,1.6137088035586336e-05,-2.028255452002854e-05,0.0,0.0,0.0,0.0,0.0,0.0,0.0,0.0,0.0,0.008064761731010261,0.553661831736822,9.811196423515016,0.0,0.0,0.0,0.0,0.0,0.0,0.0,0.0,0.0
2025/05/20 13:08:15.364796403,1747739295,364539855,mA1/imu,0.25376954127731355,0.967264293643664,0.0006822781729332054,0.0005836595071251693,0.0,0.0,0.0,0.0,0.0,0.0,0.0,0.0,0.0,-0.0007666350992278782,-3.4116150297737717e-06,-2.009399795961825e-05,0.0,0.0,0.0,0.0,0.0,0.0,0.0,0.0,0.0,0.007568512082039849,-0.06341392670216922,9.810180291373745,0.0,0.0,0.0,0.0,0.0,0.0,0.0,0.0,0.0
2025/05/20 13:08:15.415715038,1747739295,415508686,mA1/imu,0.2537690606542385,0.967264422439515,0.0006786938803659564,0.0005833626947893015,0.0,0.0,0.0,0.0,0.0,0.0,0.0,0.0,0.0,0.0008408946907061188,-3.49840684515415e-05,-1.98899224116555e-05,0.0,0.0,0.0,0.0,0.0,0.0,0.0,0.0,0.0,0.007867973852582937,-0.5850703770771309,9.808445154036956,0.0,0.0,0.0,0.0,0.0,0.0,0.0,0.0,0.0
2025/05/20 13:08:15.465677607,1747739295,465403720,mA1/imu,0.2537685844461239,0.9672645495655663,0.0006752497797483556,0.0005837291047503893,0.0,0.0,0.0,0.0,0.0,0.0,0.0,0.0,0.0,0.0007186095346981884,-6.29388098634332e-05,-1.9729210228724596e-05,0.0,0.0,0.0,0.0,0.0,0.0,0.0,0.0,0.0,0.008346871982007623,0.032405551217033104,9.809749844488136,0.0,0.0,0.0,0.0,0.0,0.0,0.0,0.0,0.0
2025/05/20 13:08:15.516895737,1747739295,516629759,mA1/imu,0.2537681083550538,0.9672646701736641,0.0006790212565705066,0.0005864689792283919,0.0,0.0,0.0,0.0,0.0,0.0,0.0,0.0,0.0,-0.0008621131242625919,-7.414922442933232e-05,-1.9575228286811473e-05,0.0,0.0,0.0,0.0,0.0,0.0,0.0,0.0,0.0,0.008005431413299952,0.5536923530349621,9.811277691276727,0.0,0.0,0.0,0.0,0.0,0.0,0.0,0.0,0.0
2025/05/20 13:08:15.566586802,1747739295,566289211,mA1/imu,0.25376763776274014,0.9672647901007275,0.0006816212156555458,0.0005892777211303558,0.0,0.0,0.0,0.0,0.0,0.0,0.0,0.0,0.0,-0.0007037964733243405,-8.207907325178736e-05,-1.9367951244094276e-05,0.0,0.0,0.0,0.0,0.0,0.0,0.0,0.0,0.0,0.007502514896739677,-0.06338781213886366,9.810261591241458,0.0,0.0,0.0,0.0,0.0,0.0,0.0,0.0,0.0
2025/05/20 13:08:15.617487416,1747739295,617293809,mA1/imu,0.25376717714846286,0.9672649142405653,0.0006760719007912796,0.000590261025000162,0.0,0.0,0.0,0.0,0.0,0.0,0.0,0.0,0.0,0.0009036815888932921,-9.778870876726876e-05,-1.914008280234999e-05,0.0,0.0,0.0,0.0,0.0,0.0,0.0,0.0,0.0,0.007783727405188897,-0.58509820838152,9.808541143185295,0.0,0.0,0.0,0.0,0.0,0.0,0.0,0.0,0.0
2025/05/20 13:08:15.667283001,1747739295,667150793,mA1/imu,0.2537667212644626,0.9672650367573639,0.0006708185975827023,0.000591479390433044,0.0,0.0,0.0,0.0,0.0,0.0,0.0,0.0,0.0,0.0007786239385055114,-0.00010619319071681372,-1.8951549461128067e-05,0.0,0.0,0.0,0.0,0.0,0.0,0.0,0.0,0.0,0.008260164158360584,0.032389173901433185,9.809855169006662,0.0,0.0,0.0,0.0,0.0,0.0,0.0,0.0,0.0
2025/05/20 13:08:15.718696480,1747739295,718498496,mA1/imu,0.253766265749908,0.9672651528283258,0.0006730293008468126,0.0005945779199913732,0.0,0.0,0.0,0.0,0.0,0.0,0.0,0.0,0.0,-0.0008078903133940023,-9.47758656761226e-05,-1.8766142802644685e-05,0.0,0.0,0.0,0.0,0.0,0.0,0.0,0.0,0.0,0.007908147685769466,0.5536838375662785,9.811374723410164,0.0,0.0,0.0,0.0,0.0,0.0,0.0,0.0,0.0
2025/05/20 13:08:15.768601298,1747739295,768377594,mA1/imu,0.25376581592975794,0.9672652682556387,0.0006743917910612138,0.0005972332575762057,0.0,0.0,0.0,0.0,0.0,0.0,0.0,0.0,0.0,-0.0006577887147401888,-7.944651846366443e-05,-1.8531691110523342e-05,0.0,0.0,0.0,0.0,0.0,0.0,0.0,0.0,0.0,0.007414565431377083,-0.06340184234338116,9.81035677347371,0.0,0.0,0.0,0.0,0.0,0.0,0.0,0.0,0.0
2025/05/20 13:08:15.819691224,1747739295,819443460,mA1/imu,0.25376537623987444,0.9672653878825587,0.0006679402680656768,0.0005975634161830178,0.0,0.0,0.0,0.0,0.0,0.0,0.0,0.0,0.0,0.0009415845831770518,-7.283415185659197e-05,-1.8281392344891883e-05,0.0,0.0,0.0,0.0,0.0,0.0,0.0,0.0,0.0,0.007704272578991377,-0.5849677123110356,9.808630623520306,0.0,0.0,0.0,0.0,0.0,0.0,0.0,0.0,0.0
2025/05/20 13:08:15.869526087,1747739295,869304551,mA1/imu,0.25376494123726007,0.9672655058859434,0.0006621951724116354,0.0005976785202789566,0.0,0.0,0.0,0.0,0.0,0.0,0.0,0.0,0.0,0.0008036813896874324,-6.039577071437084e-05,-1.8074248743855415e-05,0.0,0.0,0.0,0.0,0.0,0.0,0.0,0.0,0.0,0.008192049412790304,0.03244852132999618,9.809918956450108,0.0,0.0,0.0,0.0,0.0,0.0,0.0,0.0,0.0
2025/05/20 13:08:15.921332678,1747739295,921133271,mA1/imu,0.25376450639293313,0.9672656174864686,0.0006643474440325061,0.0005993047183244939,0.0,0.0,0.0,0.0,0.0,0.0,0.0,0.0,0.0,-0.0007959823084347086,-3.191155280012401e-05,-1.787720105806149e-05,0.0,0.0,0.0,0.0,0.0,0.0,0.0,0.0,0.0,0.007876698413448825,0.5536658361954313,9.811408690997656,0.0,0.0,0.0,0.0,0.0,0.0,0.0,0.0,0.0
2025/05/20 13:08:15.970377266,1747739295,970148548,mA1/imu,0.2537640770296295,0.9672657283834555,0.0006660652598294354,0.000600217621542715,0.0,0.0,0.0,0.0,0.0,0.0,0.0,0.0,0.0,-0.000659232503492684,-3.4738449601768195e-06,-1.7636488552209198e-05,0.0,0.0,0.0,0.0,0.0,0.0,0.0,0.0,0.0,0.007385175783408618,-0.06343283811732953,9.81037352659996,0.0,0.0,0.0,0.0,0.0,0.0,0.0,0.0,0.0
2025/05/20 13:08:16.11909803,1747739296,11695512,mA1/imu,0.2537636574722429,0.9672658433202774,0.0006603972153446957,0.0005986382386230851,0.0,0.0,0.0,0.0,0.0,0.0,0.0,0.0,0.0,0.000924819583154709,1.213669171446843e-05,-1.7387833539814568e-05,0.0,0.0,0.0,0.0,0.0,0.0,0.0,0.0,0.0,0.007713112727654745,-0.5850885134288054,9.808614083010884,0.0,0.0,0.0,0.0,0.0,0.0,0.0,0.0,0.0
2025/05/20 13:08:16.61372717,1747739296,61134343,mA1/imu,0.2537585104877735,0.9672671952856446,0.0006553077871789187,0.0006015405001487429,0.0,0.0,0.0,0.0,0.0,0.0,0.0,0.0,0.0,0.0006956342472740882,-0.0003940637114593124,-0.00040906492744124283,0.0,0.0,0.0,0.0,0.0,0.0,0.0,0.0,0.0,0.027148051848884747,0.019063694668424974,9.808668769837531,0.0,0.0,0.0,0.0,0.0,0.0,0.0,0.0,0.0
2025/05/20 13:08:16.112874639,1747739296,112624496,mA1/imu,0.25374213497056186,0.9672714789608688,0.000657495972159989,0.0006185697060394198,0.0,0.0,0.0,0.0,0.0,0.0,0.0,0.0,0.0,-0.0009898833257976534,-0.0007502934938392838,-0.0008041490889725599,0.0,0.0,0.0,0.0,0.0,0.0,0.0,0.0,0.0,0.00935412109002269,0.5537565202495404,9.811648863314288,0.0,0.0,0.0,0.0,0.0,0.0,0.0,0.0,0.0
2025/05/20 13:08:16.162756171,1747739296,161987515,mA1/imu,0.25372276148716805,0.9672765474372743,0.0006594120564755657,0.0006373828456289637,0.0,0.0,0.0,0.0,0.0,0.0,0.0,0.0,0.0,-0.0008386866481921727,-0.000667580484359935,-0.00078020290884611,0.0,0.0,0.0,0.0,0.0,0.0,0.0,0.0,0.0,0.00836915110968983,-0.06002083603234157,9.810181552702337,0.0,0.0,0.0,0.0,0.0,0.0,0.0,0.0,0.0
2025/05/20 13:08:16.213088652,1747739296,212954048,mA1/imu,0.25370467339165775,0.967281286149148,0.0006538442693454472,0.0006516537068503291,0.0,0.0,0.0,0.0,0.0,0.0,0.0,0.0,0.0,0.0007728540790443854,-0.0005628883519785117,-0.0007273617119198737,0.0,0.0,0.0,0.0,0.0,0.0,0.0,0.0,0.0,0.009363450185781556,-0.5831733646645595,9.80862727982965,0.0,0.0,0.0,0.0,0.0,0.0,0.0,0.0,0.0
2025/05/20 13:08:16.263054331,1747739296,262826038,mA1/imu,0.253687849846274,0.9672856939550973,0.0006490778389462066,0.0006631803213660687,0.0,0.0,0.0,0.0,0.0,0.0,0.0,0.0,0.0,0.0006585348809613561,-0.0004490872899595385,-0.0006751888349503771,0.0,0.0,0.0,0.0,0.0,0.0,0.0,0.0,0.0,0.009755721890051963,0.034085787256210226,9.809839104877621,0.0,0.0,0.0,0.0,0.0,0.0,0.0,0.0,0.0
2025/05/20 13:08:16.314572542,1747739296,314356575,mA1/imu,0.25367226706559076,0.9672897716809594,0.0006522062000359104,0.0006731643733269173,0.0,0.0,0.0,0.0,0.0,0.0,0.0,0.0,0.0,-0.0009055063167221002,-0.00029299868695703416,-0.00062418860374138,0.0,0.0,0.0,0.0,0.0,0.0,0.0,0.0,0.0,0.009259790858724646,0.5562290610315203,9.811077257577479,0.0,0.0,0.0,0.0,0.0,0.0,0.0,0.0,0.0
2025/05/20 13:08:16.363909619,1747739296,363685753,mA1/imu,0.25365789242903575,0.9672935354578566,0.0006548895142033915,0.0006789621671683705,0.0,0.0,0.0,0.0,0.0,0.0,0.0,0.0,0.0,-0.0007292633063864986,-0.00012502906110903474,-0.000574795884898311,0.0,0.0,0.0,0.0,0.0,0.0,0.0,0.0,0.0,0.00871449991268776,-0.0609246320708164,9.810075111001469,0.0,0.0,0.0,0.0,0.0,0.0,0.0,0.0,0.0
2025/05/20 13:08:16.414807675,1747739296,414640384,mA1/imu,0.25364471006635203,0.9672969956729013,0.0006501900942925555,0.0006785796760501713,0.0,0.0,0.0,0.0,0.0,0.0,0.0,0.0,0.0,0.0008905730175547476,3.4012305278068956e-05,-0.0005256646159744073,0.0,0.0,0.0,0.0,0.0,0.0,0.0,0.0,0.0,0.0091987839051545,-0.5836279361879902,9.808541215829008,0.0,0.0,0.0,0.0,0.0,0.0,0.0,0.0,0.0
2025/05/20 13:08:16.464529064,1747739296,464405419,mA1/imu,0.25363270938143273,0.9673001479209252,0.0006465158578038046,0.0006742263975965906,0.0,0.0,0.0,0.0,0.0,0.0,0.0,0.0,0.0,0.0007774037628707016,0.00018968318319800552,-0.0004767405547703693,0.0,0.0,0.0,0.0,0.0,0.0,0.0,0.0,0.0,0.009677545529878113,0.03381234552179503,9.809810834458771,0.0,0.0,0.0,0.0,0.0,0.0,0.0,0.0,0.0
2025/05/20 13:08:16.515887360,1747739296,515500106,mA1/imu,0.2536218716514491,0.9673029909836595,0.0006509134220920717,0.0006679564351224975,0.0,0.0,0.0,0.0,0.0,0.0,0.0,0.0,0.0,-0.0007921833343885381,0.0003423988630713755,-0.00042862662070756953,0.0,0.0,0.0,0.0,0.0,0.0,0.0,0.0,0.0,0.009917767997138413,0.555917769459175,9.811081111919307,0.0,0.0,0.0,0.0,0.0,0.0,0.0,0.0,0.0
2025/05/20 13:08:16.566600388,1747739296,566264417,mA1/imu,0.25361219716051664,0.9673055315556524,0.0006546642971503345,0.0006583979876362473,0.0,0.0,0.0,0.0,0.0,0.0,0.0,0.0,0.0,-0.000609913154786819,0.0004549676555390866,-0.0003806542238614525,0.0,0.0,0.0,0.0,0.0,0.0,0.0,0.0,0.0,0.00940925402704013,-0.06004214262797753,9.810067410381421,0.0,0.0,0.0,0.0,0.0,0.0,0.0,0.0,0.0
2025/05/20 13:08:16.618105888,1747739296,617902872,mA1/imu,0.2536057715655822,0.967307230171623,0.0006515964550830092,0.0006407092849566785,0.0,0.0,0.0,0.0,0.0,0.0,0.0,0.0,0.0,0.0009977798827173416,0.0008947753803440283,-0.0001224838723971822,0.0,0.0,0.0,0.0,0.0,0.0,0.0,0.0,0.0,-0.006284355093711733,-0.584235831129169,9.807616983901246,0.0,0.0,0.0,0.0,0.0,0.0,0.0,0.0,0.0
2025/05/20 13:08:16.667731774,1747739296,667513586,mA1/imu,0.2536083880366893,0.9673065649334835,0.0006523166105235709,0.000607813339805683,0.0,0.0,0.0,0.0,0.0,0.0,0.0,0.0,0.0,0.0009054298703485047,0.001491896686364775,0.0002312034686987472,0.0,0.0,0.0,0.0,0.0,0.0,0.0,0.0,0.0,-0.0038664322372461753,0.036854506329263105,9.809118663007224,0.0,0.0,0.0,0.0,0.0,0.0,0.0,0.0,0.0
2025/05/20 13:08:16.719327109,1747739296,719160629,mA1/imu,0.2536148840257486,0.9673048786333543,0.0006622600246810469,0.0005690205421145398,0.0,0.0,0.0,0.0,0.0,0.0,0.0,0.0,0.0,-0.0006924783850877055,0.0016149953885355544,0.00027184572980486145,0.0,0.0,0.0,0.0,0.0,0.0,0.0,0.0,0.0,0.0071493231021637375,0.5534823217396542,9.811225895035061,0.0,0.0,0.0,0.0,0.0,0.0,0.0,0.0,0.0
2025/05/20 13:08:16.769289327,1747739296,769098253,mA1/imu,0.2536213382416546,0.9673032018281332,0.0006716350342611691,0.0005304978177425766,0.0,0.0,0.0,0.0,0.0,0.0,0.0,0.0,0.0,-0.0005676581973208901,0.0015574864781927001,0.00026530323813569415,0.0,0.0,0.0,0.0,0.0,0.0,0.0,0.0,0.0,0.0067983418337270495,-0.06289245877227198,9.810237784366537,0.0,0.0,0.0,0.0,0.0,0.0,0.0,0.0,0.0
2025/05/20 13:08:16.820639423,1747739296,820400075,mA1/imu,0.25362764392538567,0.9673015669521273,0.0006735051499491143,0.0004931527449383615,0.0,0.0,0.0,0.0,0.0,0.0,0.0,0.0,0.0,0.000983551732484495,0.0013933256983343976,0.0002590752353384096,0.0,0.0,0.0,0.0,0.0,0.0,0.0,0.0,0.0,0.007557128245083536,-0.5851847752630698,9.808552245761376,0.0,0.0,0.0,0.0,0.0,0.0,0.0,0.0,0.0
2025/05/20 13:08:16.870198007,1747739296,869989436,mA1/imu,0.2536337994366479,0.9672999671377603,0.0006757595751108259,0.0004612023576375786,0.0,0.0,0.0,0.0,0.0,0.0,0.0,0.0,0.0,0.0008013318501967698,0.0011552158681184823,0.0002529015517825561,0.0,0.0,0.0,0.0,0.0,0.0,0.0,0.0,0.0,0.008100496961413683,0.032180158149163605,9.809833705566604,0.0,0.0,0.0,0.0,0.0,0.0,0.0,0.0,0.0
2025/05/20 13:08:16.911169675,1747739296,911052018,mA1/imu,0.25363980458959967,0.9672983967012981,0.0006850649986928866,0.00043812417770524486,0.0,0.0,0.0,0.0,0.0,0.0,0.0,0.0,0.0,-0.0008385254065439502,0.0008648883577725798,0.0002465352234643317,0.0,0.0,0.0,0.0,0.0,0.0,0.0,0.0,0.0,0.008025923326753913,0.5535743166970826,9.811288820377502,0.0,0.0,0.0,0.0,0.0,0.0,0.0,0.0,0.0
2025/05/20 13:08:16.960894083,1747739296,960752229,mA1/imu,0.253645657779607,0.9672968632135732,0.000692717307409511,0.0004229059759322597,0.0,0.0,0.0,0.0,0.0,0.0,0.0,0.0,0.0,-0.0007394562781917485,0.0005340409990977184,0.00023994791041044575,0.0,0.0,0.0,0.0,0.0,0.0,0.0,0.0,0.0,0.0074992951052118735,-0.06347978809044456,9.810295669675627,0.0,0.0,0.0,0.0,0.0,0.0,0.0,0.0,0.0
2025/05/20 13:08:17.12995087,1747739297,12473351,mA1/imu,0.25365137005121013,0.9672953698293317,0.0006914853259864015,0.00041451890735052415,0.0,0.0,0.0,0.0,0.0,0.0,0.0,0.0,0.0,0.0008089121252650308,0.0001660932387177397,0.00023397891764719204,0.0,0.0,0.0,0.0,0.0,0.0,0.0,0.0,0.0,0.007791450975807063,-0.5853895566558902,9.808618786949358,0.0,0.0,0.0,0.0,0.0,0.0,0.0,0.0,0.0
2025/05/20 13:08:17.61956243,1747739297,61716484,mA1/imu,0.25365694032187525,0.9672939100807704,0.0006896078940636689,0.0004154373014543427,0.0,0.0,0.0,0.0,0.0,0.0,0.0,0.0,0.0,0.0006291697602921805,-0.00020577467757102193,0.00022783368519280347,0.0,0.0,0.0,0.0,0.0,0.0,0.0,0.0,0.0,0.008305078638663565,0.0320356465866664,9.80990272768323,0.0,0.0,0.0,0.0,0.0,0.0,0.0,0.0,0.0
2025/05/20 13:08:17.112937221,1747739297,112720766,mA1/imu,0.25366236306579953,0.9672924797115855,0.0006941116059586215,0.00042716081869086103,0.0,0.0,0.0,0.0,0.0,0.0,0.0,0.0,0.0,-0.0010016333402086705,-0.0005425593819225211,0.0002216085895570889,0.0,0.0,0.0,0.0,0.0,0.0,0.0,0.0,0.0,0.00766247756538527,0.5537990671152165,9.811365789271651,0.0,0.0,0.0,0.0,0.0,0.0,0.0,0.0,0.0
2025/05/20 13:08:17.165458604,1747739297,165014334,mA1/imu,0.25366764464020475,0.9672910840247557,0.0006966549973580767,0.00044665503282828025,0.0,0.0,0.0,0.0,0.0,0.0,0.0,0.0,0.0,-0.0008872373096492879,-0.0008410904919063916,0.00021564143178281998,0.0,0.0,0.0,0.0,0.0,0.0,0.0,0.0,0.0,0.007004472724067215,-0.0632668155981305,9.810334537313459,0.0,0.0,0.0,0.0,0.0,0.0,0.0,0.0,0.0
2025/05/20 13:08:17.216847057,1747739297,216093983,mA1/imu,0.2536727948019863,0.9672897266481976,0.0006901157348300261,0.0004707849586259396,0.0,0.0,0.0,0.0,0.0,0.0,0.0,0.0,0.0,0.0006977351712196076,-0.001093183721247389,0.00021016160548638756,0.0,0.0,0.0,0.0,0.0,0.0,0.0,0.0,0.0,0.006795560456678008,-0.584519686801251,9.808623715733946,0.0,0.0,0.0,0.0,0.0,0.0,0.0,0.0,0.0
2025/05/20 13:08:17.266205741,1747739297,266078938,mA1/imu,0.253677830358493,0.9672883960824566,0.0006833895482584488,0.0005001675334603368,0.0,0.0,0.0,0.0,0.0,0.0,0.0,0.0,0.0,0.000536183851844136,-0.0012752104882388698,0.00020560218633922174,0.0,0.0,0.0,0.0,0.0,0.0,0.0,0.0,0.0,0.007161052175407972,0.03233684333515247,9.809888441897465,0.0,0.0,0.0,0.0,0.0,0.0,0.0,0.0,0.0
2025/05/20 13:08:17.317236142,1747739297,317089907,mA1/imu,0.253682758445766,0.9672870847941687,0.0006839083087014642,0.0005347215827955435,0.0,0.0,0.0,0.0,0.0,0.0,0.0,0.0,0.0,-0.0010681240854104113,-0.0013628866344751896,0.0002013509311327561,0.0,0.0,0.0,0.0,0.0,0.0,0.0,0.0,0.0,0.006316681502156642,0.5540593635109093,9.81131289312409,0.0,0.0,0.0,0.0,0.0,0.0,0.0,0.0,0.0
2025/05/20 13:08:17.367445168,1747739297,367242463,mA1/imu,0.25368758884745,0.9672857979639308,0.0006834760982090263,0.0005702477285378759,0.0,0.0,0.0,0.0,0.0,0.0,0.0,0.0,0.0,-0.0009219714625975942,-0.0013741902130344503,0.00019740904549811662,0.0,0.0,0.0,0.0,0.0,0.0,0.0,0.0,0.0,0.0057312294811250174,-0.06311810830714132,9.810338845806491,0.0,0.0,0.0,0.0,0.0,0.0,0.0,0.0,0.0
2025/05/20 13:08:17.418345272,1747739297,418201856,mA1/imu,0.2536923299500576,0.967284540444881,0.0006753656647998235,0.0006028449760638443,0.0,0.0,0.0,0.0,0.0,0.0,0.0,0.0,0.0,0.0006824262811765992,-0.0012960313857181976,0.00019357230828106762,0.0,0.0,0.0,0.0,0.0,0.0,0.0,0.0,0.0,0.0027959170250900483,-0.5853571028857725,9.808608164051808,0.0,0.0,0.0,0.0,0.0,0.0,0.0,0.0,0.0
2025/05/20 13:08:17.468288104,1747739297,468110185,mA1/imu,0.2536931008938969,0.9672843223141374,0.0006679255682323845,0.0006357983598243462,0.0,0.0,0.0,0.0,0.0,0.0,0.0,0.0,0.0,0.0005196630986628386,-0.0014249587393986175,-9.255949231487892e-05,0.0,0.0,0.0,0.0,0.0,0.0,0.0,0.0,0.0,0.014553361552374676,0.026300459888193687,9.80916656911516,0.0,0.0,0.0,0.0,0.0,0.0,0.0,0.0,0.0
2025/05/20 13:08:17.519169568,1747739297,519086732,mA1/imu,0.25368923135179716,0.9672853134203241,0.0006684863766977418,0.0006704203484366306,0.0,0.0,0.0,0.0,0.0,0.0,0.0,0.0,0.0,-0.001062546978484301,-0.0012436470968927445,-0.0002056344979503913,0.0,0.0,0.0,0.0,0.0,0.0,0.0,0.0,0.0,0.002990429807391755,0.5527167609030399,9.811515014143076,0.0,0.0,0.0,0.0,0.0,0.0,0.0,0.0,0.0
2025/05/20 13:08:17.569519411,1747739297,569181279,mA1/imu,0.253682688222256,0.9672870096350047,0.000669907390135008,0.0006970737327664698,0.0,0.0,0.0,0.0,0.0,0.0,0.0,0.0,0.0,-0.0008936445655634717,-0.0008503854956267383,-0.0003141581626259618,0.0,0.0,0.0,0.0,0.0,0.0,0.0,0.0,0.0,0.0024062857786763606,-0.06448768566438849,9.81055167737649,0.0,0.0,0.0,0.0,0.0,0.0,0.0,0.0,0.0
2025/05/20 13:08:17.621154345,1747739297,620919175,mA1/imu,0.2536735760131819,0.9672893917829479,0.0006655852094153193,0.0007115990358844108,0.0,0.0,0.0,0.0,0.0,0.0,0.0,0.0,0.0,0.0007261024565406833,-0.0004351430856668295,-0.00041892461900334656,0.0,0.0,0.0,0.0,0.0,0.0,0.0,0.0,0.0,0.003545198624551443,-0.5873150591283366,9.808220265985714,0.0,0.0,0.0,0.0,0.0,0.0,0.0,0.0,0.0
2025/05/20 13:08:17.670168800,1747739297,670047440,mA1/imu,0.25366194421166804,0.9672924402860971,0.0006638042634246955,0.0007158128411480274,0.0,0.0,0.0,0.0,0.0,0.0,0.0,0.0,0.0,0.0006207326076934245,-1.8010653147484152e-05,-0.0005225066595329425,0.0,0.0,0.0,0.0,0.0,0.0,0.0,0.0,0.0,0.0041537893020699036,0.030301096052242005,9.80936514068249,0.0,0.0,0.0,0.0,0.0,0.0,0.0,0.0,0.0
2025/05/20 13:08:17.711166741,1747739297,710963550,mA1/imu,0.25364782845440664,0.9672961397736499,0.0006714139821670736,0.0007115494531472953,0.0,0.0,0.0,0.0,0.0,0.0,0.0,0.0,0.0,-0.0009290550925127271,0.0004066514317165824,-0.0006231769482740601,0.0,0.0,0.0,0.0,0.0,0.0,0.0,0.0,0.0,0.0036681745510505383,0.552526760584109,9.811381635890227,0.0,0.0,0.0,0.0,0.0,0.0,0.0,0.0,0.0
2025/05/20 13:08:17.760976538,1747739297,760844725,mA1/imu,0.25363134185416464,0.967300467420883,0.0006797184158966649,0.000697237027132529,0.0,0.0,0.0,0.0,0.0,0.0,0.0,0.0,0.0,-0.0007348390281949868,0.0007939937419929332,-0.0007194156559409812,0.0,0.0,0.0,0.0,0.0,0.0,0.0,0.0,0.0,0.0033301813907412447,-0.06438410110943336,9.810499611587689,0.0,0.0,0.0,0.0,0.0,0.0,0.0,0.0,0.0
2025/05/20 13:08:17.812245026,1747739297,811836202,mA1/imu,0.25361428704852984,0.9673049573169158,0.0006818042768386158,0.0006694011606483469,0.0,0.0,0.0,0.0,0.0,0.0,0.0,0.0,0.0,0.0009208012171319651,0.001293463586572239,-0.0006948791987808707,0.0,0.0,0.0,0.0,0.0,0.0,0.0,0.0,0.0,-0.0014493427702894756,-0.584933338919722,9.808564702922672,0.0,0.0,0.0,0.0,0.0,0.0,0.0,0.0,0.0
2025/05/20 13:08:17.861888663,1747739297,861753170,mA1/imu,0.25359780494802686,0.9673093017981668,0.0006858720267060237,0.00063052347195962,0.0,0.0,0.0,0.0,0.0,0.0,0.0,0.0,0.0,0.0008422825506895635,0.0016946198944348056,-0.0006712460668245363,0.0,0.0,0.0,0.0,0.0,0.0,0.0,0.0,0.0,-0.00044472258441331965,0.03234309181762243,9.809682417186599,0.0,0.0,0.0,0.0,0.0,0.0,0.0,0.0,0.0
2025/05/20 13:08:17.913770753,1747739297,913519932,mA1/imu,0.25358186211739675,0.9673135009106207,0.000698342088958721,0.0005852174286755757,0.0,0.0,0.0,0.0,0.0,0.0,0.0,0.0,0.0,-0.0006966187115190851,0.0019827953190419377,-0.0006493035144371854,0.0,0.0,0.0,0.0,0.0,0.0,0.0,0.0,0.0,0.00032734187687048777,0.5545794648119626,9.811058772620338,0.0,0.0,0.0,0.0,0.0,0.0,0.0,0.0,0.0
2025/05/20 13:08:17.963067918,1747739297,962822732,mA1/imu,0.25356641526786944,0.9673175709922108,0.0007101714672659421,0.0005343729209232452,0.0,0.0,0.0,0.0,0.0,0.0,0.0,0.0,0.0,-0.0005029516039057463,0.0021447069313110297,-0.0006294637420651624,0.0,0.0,0.0,0.0,0.0,0.0,0.0,0.0,0.0,0.00024869247103006305,-0.06245064571718639,9.810229221223834,0.0,0.0,0.0,0.0,0.0,0.0,0.0,0.0,0.0
2025/05/20 13:08:18.14914193,1747739298,14539778,mA1/imu,0.2535514323031871,0.9673215245107819,0.0007137291913113193,0.00047956832729616824,0.0,0.0,0.0,0.0,0.0,0.0,0.0,0.0,0.0,0.0011257344504452635,0.0021509797061120043,-0.0006109647486552799,0.0,0.0,0.0,0.0,0.0,0.0,0.0,0.0,0.0,0.0017063750367451325,-0.5853255359454038,9.80869323682793,0.0,0.0,0.0,0.0,0.0,0.0,0.0,0.0,0.0
2025/05/20 13:08:18.63785869,1747739298,63609110,mA1/imu,0.253536870815269,0.9673253638404758,0.0007168208333315776,0.0004263519505217669,0.0,0.0,0.0,0.0,0.0,0.0,0.0,0.0,0.0,0.001010045097613601,0.0020287205977913714,-0.0005940659679871043,0.0,0.0,0.0,0.0,0.0,0.0,0.0,0.0,0.0,0.002478723514198913,0.03209860523137006,9.809791635039128,0.0,0.0,0.0,0.0,0.0,0.0,0.0,0.0,0.0
2025/05/20 13:08:18.115956430,1747739298,115556465,mA1/imu,0.2535227040918512,0.9673290894291214,0.0007260007902567075,0.00037970651184111046,0.0,0.0,0.0,0.0,0.0,0.0,0.0,0.0,0.0,-0.000574257122587607,0.001792241634937177,-0.0005780855616073133,0.0,0.0,0.0,0.0,0.0,0.0,0.0,0.0,0.0,0.0029612438533353582,0.5544407645073016,9.811171268744276,0.0,0.0,0.0,0.0,0.0,0.0,0.0,0.0,0.0
2025/05/20 13:08:18.164880484,1747739298,164584888,mA1/imu,0.2535089220386544,0.9673327112172461,0.0007324605258129346,0.0003402314937852683,0.0,0.0,0.0,0.0,0.0,0.0,0.0,0.0,0.0,-0.000430893016100312,0.001452959622252486,-0.0005626503704194609,0.0,0.0,0.0,0.0,0.0,0.0,0.0,0.0,0.0,0.0026308504559484384,-0.06257960998625431,9.810364863321581,0.0,0.0,0.0,0.0,0.0,0.0,0.0,0.0,0.0
2025/05/20 13:08:18.215617308,1747739298,215507836,mA1/imu,0.25349551682715094,0.967336237534474,0.0007289297932063067,0.0003084842621544361,0.0,0.0,0.0,0.0,0.0,0.0,0.0,0.0,0.0,0.0011449021329571218,0.00101492740732119,-0.0005475829469371569,0.0,0.0,0.0,0.0,0.0,0.0,0.0,0.0,0.0,0.003392886005493109,-0.5854274739535263,9.808802628602935,0.0,0.0,0.0,0.0,0.0,0.0,0.0,0.0,0.0
2025/05/20 13:08:18.265399168,1747739298,265270953,mA1/imu,0.253482477855791,0.9673396645265302,0.000723690497967201,0.0002883155417358988,0.0,0.0,0.0,0.0,0.0,0.0,0.0,0.0,0.0,0.000976038641740471,0.000525931128827198,-0.0005328599932803842,0.0,0.0,0.0,0.0,0.0,0.0,0.0,0.0,0.0,0.003896269266577837,0.03200715702251004,9.809903446632987,0.0,0.0,0.0,0.0,0.0,0.0,0.0,0.0,0.0
2025/05/20 13:08:18.316633819,1747739298,316467215,mA1/imu,0.253469798545071,0.967342988541041,0.000723849917709622,0.0002824664675427249,0.0,0.0,0.0,0.0,0.0,0.0,0.0,0.0,0.0,-0.0006589069808789538,2.5217603007987265e-05,-0.0005182055861397059,0.0,0.0,0.0,0.0,0.0,0.0,0.0,0.0,0.0,0.003531761678633564,0.5543542635569503,9.811257788249758,0.0,0.0,0.0,0.0,0.0,0.0,0.0,0.0,0.0
2025/05/20 13:08:18.366370646,1747739298,366173133,mA1/imu,0.2534574955095286,0.967346212261186,0.0007211971218838032,0.0002889094753163469,0.0,0.0,0.0,0.0,0.0,0.0,0.0,0.0,0.0,-0.000561888181632606,-0.0004691217424892874,-0.0005028331684643138,0.0,0.0,0.0,0.0,0.0,0.0,0.0,0.0,0.0,0.002969793754266306,-0.06266550511129378,9.810420582838614,0.0,0.0,0.0,0.0,0.0,0.0,0.0,0.0,0.0
2025/05/20 13:08:18.417761646,1747739298,417625269,mA1/imu,0.25344557157987296,0.9673493403338658,0.0007090727419342078,0.00030531628362162285,0.0,0.0,0.0,0.0,0.0,0.0,0.0,0.0,0.0,0.0009738609344148606,-0.0009386970768132422,-0.00048764289359992213,0.0,0.0,0.0,0.0,0.0,0.0,0.0,0.0,0.0,0.002930636022526927,-0.5854703029297957,9.808809591854269,0.0,0.0,0.0,0.0,0.0,0.0,0.0,0.0,0.0
2025/05/20 13:08:18.467257550,1747739298,467099705,mA1/imu,0.25343401726491593,0.9673523677451353,0.0006963159766759602,0.00033264832413559527,0.0,0.0,0.0,0.0,0.0,0.0,0.0,0.0,0.0,0.0007733549211039072,-0.001347067806171011,-0.00047274177521069565,0.0,0.0,0.0,0.0,0.0,0.0,0.0,0.0,0.0,0.003303428299179459,0.031968045992514,9.809901037358639,0.0,0.0,0.0,0.0,0.0,0.0,0.0,0.0,0.0
2025/05/20 13:08:18.518343177,1747739298,518180686,mA1/imu,0.2534228207996555,0.967355291258995,0.0006905140756070315,0.00037089281736132874,0.0,0.0,0.0,0.0,0.0,0.0,0.0,0.0,0.0,-0.0008830285242670438,-0.0016643575727330997,-0.00045829728812120976,0.0,0.0,0.0,0.0,0.0,0.0,0.0,0.0,0.0,0.003919680722967887,0.5543487869921429,9.811244737506785,0.0,0.0,0.0,0.0,0.0,0.0,0.0,0.0,0.0
2025/05/20 13:08:18.568381698,1747739298,568150775,mA1/imu,0.2534200996191311,0.9673559931846216,0.0006863731689619872,0.0004055252111825903,0.0,0.0,0.0,0.0,0.0,0.0,0.0,0.0,0.0,-0.000783309357897254,-0.0012215845552639016,7.509512025517208e-05,0.0,0.0,0.0,0.0,0.0,0.0,0.0,0.0,0.0,-0.0044473237309372755,-0.060523078347171695,9.810919164664334,0.0,0.0,0.0,0.0,0.0,0.0,0.0,0.0,0.0
2025/05/20 13:08:18.619380298,1747739298,619182338,mA1/imu,0.2534219331964344,0.967355506180744,0.0006757305039099387,0.00043797838371387795,0.0,0.0,0.0,0.0,0.0,0.0,0.0,0.0,0.0,0.0007551630929699446,-0.0014448673473353626,7.461408243453001e-05,0.0,0.0,0.0,0.0,0.0,0.0,0.0,0.0,0.0,0.004190761778744906,-0.5856052198522897,9.808772641067629,0.0,0.0,0.0,0.0,0.0,0.0,0.0,0.0,0.0
2025/05/20 13:08:18.669118777,1747739298,668989715,mA1/imu,0.25342308652033785,0.9673551931974462,0.0006655652695975746,0.0004758521923773595,0.0,0.0,0.0,0.0,0.0,0.0,0.0,0.0,0.0,0.000573988936659159,-0.0016441287799983664,2.9339072061414248e-05,0.0,0.0,0.0,0.0,0.0,0.0,0.0,0.0,0.0,0.005621083365635387,0.03209595817119688,9.80980533451115,0.0,0.0,0.0,0.0,0.0,0.0,0.0,0.0,0.0
2025/05/20 13:08:18.720051912,1747739298,719962860,mA1/imu,0.25342380605779247,0.9673549841996459,0.0006635765502444327,0.0005183950686815546,0.0,0.0,0.0,0.0,0.0,0.0,0.0,0.0,0.0,-0.0010665683551706775,-0.0016719015058839829,2.8422186805905214e-05,0.0,0.0,0.0,0.0,0.0,0.0,0.0,0.0,0.0,0.003659230198552829,0.5541963530559808,9.811305243937841,0.0,0.0,0.0,0.0,0.0,0.0,0.0,0.0,0.0
2025/05/20 13:08:18.769989257,1747739298,769799335,mA1/imu,0.2534245056472324,0.9673547785536547,0.0006619839184158943,0.0005604678020976601,0.0,0.0,0.0,0.0,0.0,0.0,0.0,0.0,0.0,-0.0009586575790214946,-0.001608248958185484,2.773194344588562e-05,0.0,0.0,0.0,0.0,0.0,0.0,0.0,0.0,0.0,0.0031193150325995005,-0.06283193713206892,9.810368693106911,0.0,0.0,0.0,0.0,0.0,0.0,0.0,0.0,0.0
2025/05/20 13:08:18.811776088,1747739298,811556167,mA1/imu,0.25342519256093066,0.967354581512788,0.0006541196331068624,0.0005979374379612069,0.0,0.0,0.0,0.0,0.0,0.0,0.0,0.0,0.0,0.0006089281778549036,-0.0014617371401466255,2.7267097767041365e-05,0.0,0.0,0.0,0.0,0.0,0.0,0.0,0.0,0.0,0.002968802888026232,-0.5854834250877472,9.808688629521798,0.0,0.0,0.0,0.0,0.0,0.0,0.0,0.0,0.0
2025/05/20 13:08:18.860767169,1747739298,860631516,mA1/imu,0.25342586817575935,0.9673543873011288,0.0006486434783299513,0.0006308488396659187,0.0,0.0,0.0,0.0,0.0,0.0,0.0,0.0,0.0,0.00045584305883567715,-0.0012349975239193999,2.7056657413554997e-05,0.0,0.0,0.0,0.0,0.0,0.0,0.0,0.0,0.0,0.003457772966117951,0.03198673151689554,9.80986695532422,0.0,0.0,0.0,0.0,0.0,0.0,0.0,0.0,0.0
2025/05/20 13:08:18.911895348,1747739298,911698447,mA1/imu,0.2534265306807166,0.9673541920946799,0.0006527885752382131,0.0006591290168977415,0.0,0.0,0.0,0.0,0.0,0.0,0.0,0.0,0.0,-0.0011415553791842507,-0.0009266573616493484,2.6931090120099368e-05,0.0,0.0,0.0,0.0,0.0,0.0,0.0,0.0,0.0,0.003007037201019731,0.554236242702026,9.811247985721353,0.0,0.0,0.0,0.0,0.0,0.0,0.0,0.0,0.0
2025/05/20 13:08:18.961996841,1747739298,961714141,mA1/imu,0.2534271869715466,0.9673540026366791,0.0006581910624663511,0.0006791693527465131,0.0,0.0,0.0,0.0,0.0,0.0,0.0,0.0,0.0,-0.0009873771483964924,-0.0005736419334604543,2.6920910062227383e-05,0.0,0.0,0.0,0.0,0.0,0.0,0.0,0.0,0.0,0.002585944686661311,-0.06285050456563408,9.810274617295985,0.0,0.0,0.0,0.0,0.0,0.0,0.0,0.0,0.0
2025/05/20 13:08:19.13527548,1747739299,13322764,mA1/imu,0.25342784199727114,0.9673538249101602,0.0006577617505310672,0.0006882454278354677,0.0,0.0,0.0,0.0,0.0,0.0,0.0,0.0,0.0,0.0006282102458951135,-0.00020415740963346555,2.67593269574246e-05,0.0,0.0,0.0,0.0,0.0,0.0,0.0,0.0,0.0,0.0028217476810078815,-0.5853630929581947,9.808591411372973,0.0,0.0,0.0,0.0,0.0,0.0,0.0,0.0,0.0
2025/05/20 13:08:19.62894068,1747739299,62665509,mA1/imu,0.2534284724897755,0.96735365850913,0.0006597054037599435,0.0006881055737139663,0.0,0.0,0.0,0.0,0.0,0.0,0.0,0.0,0.0,0.0005226671969523506,0.00017266342592893425,2.5750923572568774e-05,0.0,0.0,0.0,0.0,0.0,0.0,0.0,0.0,0.0,0.003459690806698841,0.03209935016104973,9.809776849921418,0.0,0.0,0.0,0.0,0.0,0.0,0.0,0.0,0.0
2025/05/20 13:08:19.113771746,1747739299,113597386,mA1/imu,0.25342906740890314,0.9673535002779319,0.0006707962645926893,0.0006806795561345948,0.0,0.0,0.0,0.0,0.0,0.0,0.0,0.0,0.0,-0.0010312201204346995,0.0005435147815471804,2.4698747723267867e-05,0.0,0.0,0.0,0.0,0.0,0.0,0.0,0.0,0.0,0.003535177621263555,0.5542103505180893,9.81115345309283,0.0,0.0,0.0,0.0,0.0,0.0,0.0,0.0,0.0
2025/05/20 13:08:19.163788184,1747739299,163554218,mA1/imu,0.2534296324561586,0.9673533555237259,0.0006822375842247846,0.0006644561707693644,0.0,0.0,0.0,0.0,0.0,0.0,0.0,0.0,0.0,-0.0008385058063407499,0.0008757135400024689,2.363256381481725e-05,0.0,0.0,0.0,0.0,0.0,0.0,0.0,0.0,0.0,0.0031999971170713834,-0.06287475583784,9.810191178995979,0.0,0.0,0.0,0.0,0.0,0.0,0.0,0.0,0.0
2025/05/20 13:08:19.215545049,1747739299,215219725,mA1/imu,0.25343017149524744,0.9673532285134177,0.0006865433179876843,0.0006388417876581634,0.0,0.0,0.0,0.0,0.0,0.0,0.0,0.0,0.0,0.0008085748219242736,0.001135626853641464,2.2497260809908702e-05,0.0,0.0,0.0,0.0,0.0,0.0,0.0,0.0,0.0,0.004063515260051713,-0.585338437265793,9.808526210718762,0.0,0.0,0.0,0.0,0.0,0.0,0.0,0.0,0.0
2025/05/20 13:08:19.264594235,1747739299,264403026,mA1/imu,0.25343067725160956,0.9673531125361453,0.0006915954973604864,0.0006076101468277804,0.0,0.0,0.0,0.0,0.0,0.0,0.0,0.0,0.0,0.000726035540941499,0.0013269385633978593,2.1231543159568382e-05,0.0,0.0,0.0,0.0,0.0,0.0,0.0,0.0,0.0,0.004755759883328209,0.032121253647822756,9.809735062742304,0.0,0.0,0.0,0.0,0.0,0.0,0.0,0.0,0.0
2025/05/20 13:08:19.315905127,1747739299,315429857,mA1/imu,0.2534311441410215,0.9673530015677173,0.0007039424463980283,0.0005744582952306049,0.0,0.0,0.0,0.0,0.0,0.0,0.0,0.0,0.0,-0.0008144424860390781,0.0014461495223122612,1.985407451243613e-05,0.0,0.0,0.0,0.0,0.0,0.0,0.0,0.0,0.0,0.004965708736695312,0.554125016839609,9.811126283545574,0.0,0.0,0.0,0.0,0.0,0.0,0.0,0.0,0.0
2025/05/20 13:08:19.365372294,1747739299,365085173,mA1/imu,0.25343158168914404,0.9673528993260386,0.0007146678577886109,0.000539275346047427,0.0,0.0,0.0,0.0,0.0,0.0,0.0,0.0,0.0,-0.0006179469882036929,0.0014796126988379594,1.880025419159536e-05,0.0,0.0,0.0,0.0,0.0,0.0,0.0,0.0,0.0,0.004614197104390029,-0.06296232852706973,9.81019946114056,0.0,0.0,0.0,0.0,0.0,0.0,0.0,0.0,0.0
2025/05/20 13:08:19.416643739,1747739299,416418982,mA1/imu,0.25343200083874384,0.967352808123625,0.0007162890407738592,0.0005024900179499823,0.0,0.0,0.0,0.0,0.0,0.0,0.0,0.0,0.0,0.0010221756830633862,0.0014056246468847578,1.794087717632684e-05,0.0,0.0,0.0,0.0,0.0,0.0,0.0,0.0,0.0,0.005755749484603784,-0.5853762851783443,9.808592740181782,0.0,0.0,0.0,0.0,0.0,0.0,0.0,0.0,0.0
2025/05/20 13:08:19.466464067,1747739299,466189942,mA1/imu,0.25343240965653707,0.9673527177386775,0.0007167817234396776,0.0004684476881639094,0.0,0.0,0.0,0.0,0.0,0.0,0.0,0.0,0.0,0.0009238911385918087,0.0012502250766221062,1.757808811459595e-05,0.0,0.0,0.0,0.0,0.0,0.0,0.0,0.0,0.0,0.006385415530412228,0.03208259784950176,9.809790973076222,0.0,0.0,0.0,0.0,0.0,0.0,0.0,0.0,0.0
2025/05/20 13:08:19.518127495,1747739299,517823008,mA1/imu,0.253432807303011,0.96735262193345,0.0007229105029745615,0.00044093242059274623,0.0,0.0,0.0,0.0,0.0,0.0,0.0,0.0,0.0,-0.0006418138275296122,0.0010240359060373783,1.6889276998290286e-05,0.0,0.0,0.0,0.0,0.0,0.0,0.0,0.0,0.0,0.007701300866505945,0.5540096089271789,9.811195321241255,0.0,0.0,0.0,0.0,0.0,0.0,0.0,0.0,0.0
2025/05/20 13:08:19.567331314,1747739299,567118200,mA1/imu,0.25344186039621297,0.9673502599526159,0.0007285716159947422,0.0004088421615128419,0.0,0.0,0.0,0.0,0.0,0.0,0.0,0.0,0.0,-0.000439320399451622,0.001469716524923117,0.000616579908903137,0.0,0.0,0.0,0.0,0.0,0.0,0.0,0.0,0.0,-0.006658291336609758,-0.0563571409154012,9.811203581980944,0.0,0.0,0.0,0.0,0.0,0.0,0.0,0.0,0.0
2025/05/20 13:08:19.618143079,1747739299,618028702,mA1/imu,0.2534577409850254,0.9673461147498968,0.000724466359127232,0.00037810255412177847,0.0,0.0,0.0,0.0,0.0,0.0,0.0,0.0,0.0,0.001167029763585387,0.0009280742573108372,0.0006564768729644383,0.0,0.0,0.0,0.0,0.0,0.0,0.0,0.0,0.0,0.01134256575389846,-0.5860790455408204,9.808737309761911,0.0,0.0,0.0,0.0,0.0,0.0,0.0,0.0,0.0
2025/05/20 13:08:19.668143947,1747739299,667960375,mA1/imu,0.2534772146831971,0.9673410254329926,0.000717547088613046,0.00035675884055895934,0.0,0.0,0.0,0.0,0.0,0.0,0.0,0.0,0.0,0.0010840343823057092,0.000606883998439795,0.000920427708252793,0.0,0.0,0.0,0.0,0.0,0.0,0.0,0.0,0.0,0.0072640519429809725,0.0365063510710613,9.809556867287412,0.0,0.0,0.0,0.0,0.0,0.0,0.0,0.0,0.0
2025/05/20 13:08:19.719771684,1747739299,719507539,mA1/imu,0.2535010713814418,0.9673347785633811,0.0007143071330592581,0.0003503648315416216,0.0,0.0,0.0,0.0,0.0,0.0,0.0,0.0,0.0,-0.0005048319064437513,-6.476436163956184e-05,0.0010302511220594765,0.0,0.0,0.0,0.0,0.0,0.0,0.0,0.0,0.0,0.012662302487687297,0.5569876375178212,9.811531932164804,0.0,0.0,0.0,0.0,0.0,0.0,0.0,0.0,0.0
2025/05/20 13:08:19.769105616,1747739299,768881601,mA1/imu,0.2535306620310951,0.9673270269897053,0.0007069376912015262,0.00035567461751683367,0.0,0.0,0.0,0.0,0.0,0.0,0.0,0.0,0.0,-0.0003232730137558151,-0.000330455787785707,0.001393439703654168,0.0,0.0,0.0,0.0,0.0,0.0,0.0,0.0,0.0,-0.005751506373633663,-0.051782734229108535,9.811382199064449,0.0,0.0,0.0,0.0,0.0,0.0,0.0,0.0,0.0
2025/05/20 13:08:19.820016540,1747739299,819880514,mA1/imu,0.25356810412324027,0.9673172213181281,0.0006893242410961364,0.0003670760296369198,0.0,0.0,0.0,0.0,0.0,0.0,0.0,0.0,0.0,0.0012485660009008363,-0.0009214587895650452,0.001571890760717925,0.0,0.0,0.0,0.0,0.0,0.0,0.0,0.0,0.0,0.017051944242901716,-0.5833397279467104,9.808707662238469,0.0,0.0,0.0,0.0,0.0,0.0,0.0,0.0,0.0
2025/05/20 13:08:19.869807284,1747739299,869679243,mA1/imu,0.25360710806829173,0.9673069997234326,0.000667933149024905,0.0003960916529022607,0.0,0.0,0.0,0.0,0.0,0.0,0.0,0.0,0.0,0.0010789389001561115,-0.0016045033991522433,0.0016458524021727163,0.0,0.0,0.0,0.0,0.0,0.0,0.0,0.0,0.0,0.014152491766065279,0.03526616879062943,9.809876324690514,0.0,0.0,0.0,0.0,0.0,0.0,0.0,0.0,0.0
2025/05/20 13:08:19.920842249,1747739299,920733634,mA1/imu,0.25364817984225135,0.9672962213458175,0.0006526254350629021,0.00044171581117586007,0.0,0.0,0.0,0.0,0.0,0.0,0.0,0.0,0.0,-0.0006005211871143138,-0.0021244241009365423,0.00173031227399517,0.0,0.0,0.0,0.0,0.0,0.0,0.0,0.0,0.0,0.011227797607630409,0.557184272217886,9.81157943329876,0.0,0.0,0.0,0.0,0.0,0.0,0.0,0.0,0.0
2025/05/20 13:08:19.960806557,1747739299,960636407,mA1/imu,0.2536901564911944,0.9672851973009605,0.000635081457174005,0.0004982503967188563,0.0,0.0,0.0,0.0,0.0,0.0,0.0,0.0,0.0,-0.0005357373408244343,-0.002504006480342315,0.0017170826921912717,0.0,0.0,0.0,0.0,0.0,0.0,0.0,0.0,0.0,0.010560181455750044,-0.06208188844992467,9.810486039251357,0.0,0.0,0.0,0.0,0.0,0.0,0.0,0.0,0.0
2025/05/20 13:08:20.11976354,1747739300,11756074,mA1/imu,0.25373096984053645,0.9672744731443849,0.0006116217159264687,0.0005607726010152587,0.0,0.0,0.0,0.0,0.0,0.0,0.0,0.0,0.0,0.0009100010746366551,-0.002733694699296204,0.0016657153233434053,0.0,0.0,0.0,0.0,0.0,0.0,0.0,0.0,0.0,0.010359670141209728,-0.5859341361958375,9.808812768232643,0.0,0.0,0.0,0.0,0.0,0.0,0.0,0.0,0.0
2025/05/20 13:08:20.61921652,1747739300,61723201,mA1/imu,0.2537705621825835,0.9672640582350939,0.0005914303679411351,0.000627396391646658,0.0,0.0,0.0,0.0,0.0,0.0,0.0,0.0,0.0,0.0006325309261931355,-0.002800825020206923,0.0016152468771113752,0.0,0.0,0.0,0.0,0.0,0.0,0.0,0.0,0.0,0.01063300867026055,0.031025597988690833,9.809938921055883,0.0,0.0,0.0,0.0,0.0,0.0,0.0,0.0,0.0
2025/05/20 13:08:20.112872519,1747739300,112704816,mA1/imu,0.25380896149145726,0.967253941742774,0.0005823978887197495,0.0006957459259609527,0.0,0.0,0.0,0.0,0.0,0.0,0.0,0.0,0.0,-0.0010881314571204264,-0.0026784567474621972,0.0015672297835099894,0.0,0.0,0.0,0.0,0.0,0.0,0.0,0.0,0.0,0.008715184386011661,0.5532327663742304,9.81117768799624,0.0,0.0,0.0,0.0,0.0,0.0,0.0,0.0,0.0
2025/05/20 13:08:20.162863560,1747739300,162711332,mA1/imu,0.25384620575675226,0.9672441232452202,0.0005768176607475307,0.000759705121532921,0.0,0.0,0.0,0.0,0.0,0.0,0.0,0.0,0.0,-0.0010553121809839649,-0.00240968170922082,0.0015205987861848984,0.0,0.0,0.0,0.0,0.0,0.0,0.0,0.0,0.0,0.00808470392605046,-0.0638688729133949,9.810243862391806,0.0,0.0,0.0,0.0,0.0,0.0,0.0,0.0,0.0
2025/05/20 13:08:20.214755514,1747739300,214573523,mA1/imu,0.25388232367173325,0.9672346046519043,0.0005681904716552192,0.0008139106236439758,0.0,0.0,0.0,0.0,0.0,0.0,0.0,0.0,0.0,0.00044358211814053694,-0.0020163784539893137,0.0014727836980152305,0.0,0.0,0.0,0.0,0.0,0.0,0.0,0.0,0.0,0.008316033862400226,-0.5851890849810043,9.808615322383394,0.0,0.0,0.0,0.0,0.0,0.0,0.0,0.0,0.0
2025/05/20 13:08:20.264326577,1747739300,264128485,mA1/imu,0.2539175813758134,0.9672253155833676,0.0005658555609043366,0.0008547341086652609,0.0,0.0,0.0,0.0,0.0,0.0,0.0,0.0,0.0,0.0002219253718589656,-0.0012935061026209244,0.0014548228471058168,0.0,0.0,0.0,0.0,0.0,0.0,0.0,0.0,0.0,0.00015359923134796068,0.02892324938810677,9.809461391568853,0.0,0.0,0.0,0.0,0.0,0.0,0.0,0.0,0.0
2025/05/20 13:08:20.316237912,1747739300,316073868,mA1/imu,0.25395260530465735,0.9672160922220862,0.0005781036692236625,0.0008780670598012752,0.0,0.0,0.0,0.0,0.0,0.0,0.0,0.0,0.0,-0.0014204052492151308,-0.00043681369989226234,0.0014415950670768403,0.0,0.0,0.0,0.0,0.0,0.0,0.0,0.0,0.0,-0.001999347915493244,0.5565708259752097,9.81117394417095,0.0,0.0,0.0,0.0,0.0,0.0,0.0,0.0,0.0
2025/05/20 13:08:20.365410705,1747739300,365159074,mA1/imu,0.253986139729107,0.9672072735969539,0.0005950548693865326,0.000881269740921335,0.0,0.0,0.0,0.0,0.0,0.0,0.0,0.0,0.0,-0.0012562478470236245,0.00035564649936631776,0.0013414335610882756,0.0,0.0,0.0,0.0,0.0,0.0,0.0,0.0,0.0,0.0017457632805435684,-0.05955320646253256,9.809918031021153,0.0,0.0,0.0,0.0,0.0,0.0,0.0,0.0,0.0
2025/05/20 13:08:20.416570058,1747739300,416402179,mA1/imu,0.25401737799583296,0.9671990776737205,0.0006082857034466663,0.0008636039193948762,0.0,0.0,0.0,0.0,0.0,0.0,0.0,0.0,0.0,0.0003886971099736269,0.0011668026763447864,0.0012745235123332952,0.0,0.0,0.0,0.0,0.0,0.0,0.0,0.0,0.0,-0.004945362319339794,-0.5775048877085189,9.808208699734232,0.0,0.0,0.0,0.0,0.0,0.0,0.0,0.0,0.0
2025/05/20 13:08:20.466217207,1747739300,466000089,mA1/imu,0.25405100120437335,0.9671902735968716,0.0006272846837589996,0.0008185112028803303,0.0,0.0,0.0,0.0,0.0,0.0,0.0,0.0,0.0,0.0003280099902434827,0.0024741878941673865,0.0015244299442986346,0.0,0.0,0.0,0.0,0.0,0.0,0.0,0.0,0.0,-0.019463503808684515,0.0337197592572903,9.808440710842948,0.0,0.0,0.0,0.0,0.0,0.0,0.0,0.0,0.0
2025/05/20 13:08:20.517989395,1747739300,517777652,mA1/imu,0.25409244687827204,0.9671794249826527,0.000660050632446923,0.0007434129407236788,0.0,0.0,0.0,0.0,0.0,0.0,0.0,0.0,0.0,-0.0011567102303597534,0.00368124991109796,0.0018581418361915106,0.0,0.0,0.0,0.0,0.0,0.0,0.0,0.0,0.0,-0.016232306705752167,0.5597117573042578,9.812105517687407,0.0,0.0,0.0,0.0,0.0,0.0,0.0,0.0,0.0
2025/05/20 13:08:20.567031317,1747739300,566863391,mA1/imu,0.25414312771566927,0.9671661554501827,0.0006954966497229736,0.0006439495479683511,0.0,0.0,0.0,0.0,0.0,0.0,0.0,0.0,0.0,-0.0008798947049724282,0.004535038323521823,0.0022568282373637326,0.0,0.0,0.0,0.0,0.0,0.0,0.0,0.0,0.0,-0.015741183581681462,-0.05672374560327555,9.811177530256991,0.0,0.0,0.0,0.0,0.0,0.0,0.0,0.0,0.0
2025/05/20 13:08:20.617997293,1747739300,617889799,mA1/imu,0.25420344420365765,0.9671503540459914,0.0007241832968169057,0.0005264810198132339,0.0,0.0,0.0,0.0,0.0,0.0,0.0,0.0,0.0,0.00083226788818979,0.005005047642494273,0.002655354087540889,0.0,0.0,0.0,0.0,0.0,0.0,0.0,0.0,0.0,-0.01000997431101806,-0.5814819725616845,9.807326687635422,0.0,0.0,0.0,0.0,0.0,0.0,0.0,0.0,0.0
2025/05/20 13:08:20.668109452,1747739300,667834619,mA1/imu,0.2542688448641361,0.9671331995381197,0.0007502234613320621,0.00040748911072103816,0.0,0.0,0.0,0.0,0.0,0.0,0.0,0.0,0.0,0.0008597469976186166,0.004646257148288418,0.0026797401258046825,0.0,0.0,0.0,0.0,0.0,0.0,0.0,0.0,0.0,0.011151097020046206,0.04401663787068174,9.809937081952096,0.0,0.0,0.0,0.0,0.0,0.0,0.0,0.0,0.0
2025/05/20 13:08:20.718897073,1747739300,718777262,mA1/imu,0.25433305735857065,0.9671163337019737,0.0007749580960051632,0.0003040747340632569,0.0,0.0,0.0,0.0,0.0,0.0,0.0,0.0,0.0,-0.00042270900708500647,0.0039692609313611155,0.0026620723033231324,0.0,0.0,0.0,0.0,0.0,0.0,0.0,0.0,0.0,0.006986610814312325,0.517818712323832,9.811480550987948,0.0,0.0,0.0,0.0,0.0,0.0,0.0,0.0,0.0
2025/05/20 13:08:20.768795035,1747739300,768590339,mA1/imu,0.2543976091382924,0.9670993677789707,0.0007885839595634233,0.00021781086843520312,0.0,0.0,0.0,0.0,0.0,0.0,0.0,0.0,0.0,-0.00018630408205350677,0.0031262768489159595,0.0026779878711865085,0.0,0.0,0.0,0.0,0.0,0.0,0.0,0.0,0.0,0.0067875285384295546,-0.04750376970481218,9.810555188170031,0.0,0.0,0.0,0.0,0.0,0.0,0.0,0.0,0.0
2025/05/20 13:08:20.820486465,1747739300,820288473,mA1/imu,0.2544625699680552,0.9670822905620565,0.0007876330983541748,0.0001529725498335308,0.0,0.0,0.0,0.0,0.0,0.0,0.0,0.0,0.0,0.0013356930182807296,0.0020651632703478236,0.0026940037337538324,0.0,0.0,0.0,0.0,0.0,0.0,0.0,0.0,0.0,0.009898372817576212,-0.5857480057390091,9.808957590115131,0.0,0.0,0.0,0.0,0.0,0.0,0.0,0.0,0.0
2025/05/20 13:08:20.869721718,1747739300,869487203,mA1/imu,0.25452793573122023,0.9670651053163152,0.0007739767947799189,0.00011389411329002063,0.0,0.0,0.0,0.0,0.0,0.0,0.0,0.0,0.0,0.002350066213888188,0.0008894485462681291,0.002711932577648643,0.0,0.0,0.0,0.0,0.0,0.0,0.0,0.0,0.0,0.010127455969603745,-0.30764926665468056,9.809381987208274,0.0,0.0,0.0,0.0,0.0,0.0,0.0,0.0,0.0
2025/05/20 13:08:20.920811689,1747739300,920682642,mA1/imu,0.254593380355627,0.9670478895165943,0.0007610859678659455,0.00010396511588645168,0.0,0.0,0.0,0.0,0.0,0.0,0.0,0.0,0.0,0.0006475419929072796,-0.00021075409617153426,0.0027071208922181617,0.0,0.0,0.0,0.0,0.0,0.0,0.0,0.0,0.0,0.007032370682065287,0.4914744495069866,9.811017356992004,0.0,0.0,0.0,0.0,0.0,0.0,0.0,0.0,0.0
2025/05/20 13:08:20.970446610,1747739300,970298223,mA1/imu,0.2546590330397938,0.9670306203668133,0.0007359784850279466,0.00012041545924524697,0.0,0.0,0.0,0.0,0.0,0.0,0.0,0.0,0.0,0.00013380907941677416,-0.001346239220284787,0.0027260064044424227,0.0,0.0,0.0,0.0,0.0,0.0,0.0,0.0,0.0,0.008678760220635707,0.36771017262739736,9.812200945178082,0.0,0.0,0.0,0.0,0.0,0.0,0.0,0.0,0.0
2025/05/20 13:08:21.12011305,1747739301,11709527,mA1/imu,0.25472523063399877,0.9670132046492723,0.0007015873293643719,0.00016336345977867913,0.0,0.0,0.0,0.0,0.0,0.0,0.0,0.0,0.0,0.0009090528673335222,-0.002432747810521407,0.0027415706046643356,0.0,0.0,0.0,0.0,0.0,0.0,0.0,0.0,0.0,0.008869012902160415,-0.031192579098097944,9.810929318075143,0.0,0.0,0.0,0.0,0.0,0.0,0.0,0.0,0.0
2025/05/20 13:08:21.61425241,1747739301,61158641,mA1/imu,0.2547916660523297,0.9669957120192199,0.0006680719277626094,0.00023135820570366062,0.0,0.0,0.0,0.0,0.0,0.0,0.0,0.0,0.0,-0.0005794076994878049,-0.003281016458906624,0.0027451266123119837,0.0,0.0,0.0,0.0,0.0,0.0,0.0,0.0,0.0,0.0059844662129480645,0.3162604805423892,9.810242088292217,0.0,0.0,0.0,0.0,0.0,0.0,0.0,0.0,0.0
2025/05/20 13:08:21.112295149,1747739301,112092127,mA1/imu,0.2548582297463754,0.9669781764331752,0.0006243820965807718,0.000314927788731717,0.0,0.0,0.0,0.0,0.0,0.0,0.0,0.0,0.0,-0.0003722788308244457,-0.003889813620159504,0.002750741747964996,0.0,0.0,0.0,0.0,0.0,0.0,0.0,0.0,0.0,0.006112184770401593,0.009367936332000344,9.811487336206016,0.0,0.0,0.0,0.0,0.0,0.0,0.0,0.0,0.0
2025/05/20 13:08:21.162150364,1747739301,161873989,mA1/imu,0.2549249638954521,0.9669605786917849,0.0005776883418327721,0.00041026227098846604,0.0,0.0,0.0,0.0,0.0,0.0,0.0,0.0,0.0,0.0003861232862056172,-0.00426867561723199,0.002755533094335241,0.0,0.0,0.0,0.0,0.0,0.0,0.0,0.0,0.0,0.002569417020300728,-0.016432610651630698,9.808051672933733,0.0,0.0,0.0,0.0,0.0,0.0,0.0,0.0,0.0
2025/05/20 13:08:21.212999504,1747739301,212829471,mA1/imu,0.2549919014092957,0.9669429058243998,0.0005332723434850556,0.0005125545294270182,0.0,0.0,0.0,0.0,0.0,0.0,0.0,0.0,0.0,0.001489603647564088,-0.004476879690665615,0.002773192465270465,0.0,0.0,0.0,0.0,0.0,0.0,0.0,0.0,0.0,0.005211749331334638,-0.45962113967553386,9.809702693937576,0.0,0.0,0.0,0.0,0.0,0.0,0.0,0.0,0.0
2025/05/20 13:08:21.263119465,1747739301,262872743,mA1/imu,0.25505948301455866,0.9669250397873463,0.0004958329139973851,0.0006178238473608525,0.0,0.0,0.0,0.0,0.0,0.0,0.0,0.0,0.0,0.0004639126229341738,-0.0044072081607336375,0.0028114347160062576,0.0,0.0,0.0,0.0,0.0,0.0,0.0,0.0,0.0,0.004504410817301144,-0.14809321630695715,9.808517222679813,0.0,0.0,0.0,0.0,0.0,0.0,0.0,0.0,0.0
2025/05/20 13:08:21.314618906,1747739301,314371589,mA1/imu,0.2551280522463844,0.9669068979144204,0.0004614964090240855,0.0007174563006489917,0.0,0.0,0.0,0.0,0.0,0.0,0.0,0.0,0.0,0.00021881760686928218,-0.004038758296622981,0.0028492300110587736,0.0,0.0,0.0,0.0,0.0,0.0,0.0,0.0,0.0,0.002521930095772496,0.00027123177853699207,9.811915152010368,0.0,0.0,0.0,0.0,0.0,0.0,0.0,0.0,0.0
2025/05/20 13:08:21.364090621,1747739301,363799005,mA1/imu,0.2552003981880189,0.966887749490035,0.0004373596861009423,0.0008033475443528539,0.0,0.0,0.0,0.0,0.0,0.0,0.0,0.0,0.0,-0.000556252728428598,-0.003202148147250683,0.0030794651028354493,0.0,0.0,0.0,0.0,0.0,0.0,0.0,0.0,0.0,-0.0037603582063740846,0.1794890961056307,9.810541643633671,0.0,0.0,0.0,0.0,0.0,0.0,0.0,0.0,0.0
2025/05/20 13:08:21.415303145,1747739301,415119698,mA1/imu,0.2552753873358115,0.9668679014392831,0.0004216205676281692,0.0008717930057544881,0.0,0.0,0.0,0.0,0.0,0.0,0.0,0.0,0.0,0.0007504211454512508,-0.002529732373641116,0.003113637946059086,0.0,0.0,0.0,0.0,0.0,0.0,0.0,0.0,0.0,0.004584999157497761,-0.5677059209149584,9.807859870134184,0.0,0.0,0.0,0.0,0.0,0.0,0.0,0.0,0.0
2025/05/20 13:08:21.464952112,1747739301,464710521,mA1/imu,0.25535031055337964,0.9668480669382936,0.00041999442256968294,0.0009262627395564946,0.0,0.0,0.0,0.0,0.0,0.0,0.0,0.0,0.0,0.00022193986115135483,-0.0018568937943676915,0.0030770562052602644,0.0,0.0,0.0,0.0,0.0,0.0,0.0,0.0,0.0,0.0060367851432821095,-0.5930242201100839,9.810560752820322,0.0,0.0,0.0,0.0,0.0,0.0,0.0,0.0,0.0
2025/05/20 13:08:21.516705883,1747739301,516426651,mA1/imu,0.2554246718956987,0.9668283932119034,0.00041683418004649197,0.0009598518271697032,0.0,0.0,0.0,0.0,0.0,0.0,0.0,0.0,0.0,-0.00018169880842375832,-0.0009934759282208036,0.003076182925329959,0.0,0.0,0.0,0.0,0.0,0.0,0.0,0.0,0.0,0.00467844483247782,-0.48174032798317684,9.81156007095369,0.0,0.0,0.0,0.0,0.0,0.0,0.0,0.0,0.0
2025/05/20 13:08:21.565768582,1747739301,565525838,mA1/imu,0.255498389836556,0.9668088968543482,0.00042298250200902454,0.0009751102545823852,0.0,0.0,0.0,0.0,0.0,0.0,0.0,0.0,0.0,-0.0004949782861732524,-0.0002290099723499505,0.0030263657730164686,0.0,0.0,0.0,0.0,0.0,0.0,0.0,0.0,0.0,0.010064643827487375,0.008644311584515596,9.809233558897837,0.0,0.0,0.0,0.0,0.0,0.0,0.0,0.0,0.0
2025/05/20 13:08:21.616729923,1747739301,616578820,mA1/imu,0.255570969162984,0.966789708052018,0.00043920930604042437,0.0009732527792995677,0.0,0.0,0.0,0.0,0.0,0.0,0.0,0.0,0.0,-0.0006697780419481363,0.0005403464135983265,0.0029934641511125248,0.0,0.0,0.0,0.0,0.0,0.0,0.0,0.0,0.0,0.01153788184746133,0.0023817560976192934,9.80882477397237,0.0,0.0,0.0,0.0,0.0,0.0,0.0,0.0,0.0
2025/05/20 13:08:21.666582986,1747739301,666396612,mA1/imu,0.25564105108491636,0.9667711852219519,0.00046181127100670516,0.0009566373876561528,0.0,0.0,0.0,0.0,0.0,0.0,0.0,0.0,0.0,-0.0005655009750771447,0.0010915687186937501,0.0028279452923517315,0.0,0.0,0.0,0.0,0.0,0.0,0.0,0.0,0.0,0.013980263840709994,0.17525501490550716,9.809412733819341,0.0,0.0,0.0,0.0,0.0,0.0,0.0,0.0,0.0
2025/05/20 13:08:21.718312020,1747739301,718051692,mA1/imu,0.2557068012342393,0.9667538097753123,0.0004902020111420461,0.0009288646083490268,0.0,0.0,0.0,0.0,0.0,0.0,0.0,0.0,0.0,0.0005716842699566472,0.0015218443820252776,0.0026438117655521475,0.0,0.0,0.0,0.0,0.0,0.0,0.0,0.0,0.0,0.014559174005751881,-0.46261242909666,9.80785861864838,0.0,0.0,0.0,0.0,0.0,0.0,0.0,0.0,0.0
2025/05/20 13:08:21.767486357,1747739301,767278007,mA1/imu,0.25576816220455295,0.9667375886801545,0.0005312458994993702,0.0008942109261174978,0.0,0.0,0.0,0.0,0.0,0.0,0.0,0.0,0.0,-0.0009656350535599606,0.0018911720029344333,0.0024606354498663617,0.0,0.0,0.0,0.0,0.0,0.0,0.0,0.0,0.0,0.014875101848576794,-0.1734278931529159,9.811591814663304,0.0,0.0,0.0,0.0,0.0,0.0,0.0,0.0,0.0
2025/05/20 13:08:21.819277422,1747739301,819070256,mA1/imu,0.25582497354714057,0.9667225770454331,0.0005661358350461523,0.0008493706244822472,0.0,0.0,0.0,0.0,0.0,0.0,0.0,0.0,0.0,-0.0010121534252139864,0.0021884290533848226,0.002268053097012615,0.0,0.0,0.0,0.0,0.0,0.0,0.0,0.0,0.0,0.016361813229421658,-0.6482225976696234,9.81108917399221,0.0,0.0,0.0,0.0,0.0,0.0,0.0,0.0,0.0
2025/05/20 13:08:21.868417202,1747739301,868268284,mA1/imu,0.2558766535279454,0.9667089214491682,0.0006009318905432599,0.0007989059947558627,0.0,0.0,0.0,0.0,0.0,0.0,0.0,0.0,0.0,-0.0016714261625988716,0.0023752954923795724,0.002067845040589045,0.0,0.0,0.0,0.0,0.0,0.0,0.0,0.0,0.0,0.016034769804734512,-0.06308999978805599,9.808474037775126,0.0,0.0,0.0,0.0,0.0,0.0,0.0,0.0,0.0
2025/05/20 13:08:21.920488556,1747739301,920215316,mA1/imu,0.2559240743263373,0.9666963903698994,0.00063404230381511,0.0007449942091808465,0.0,0.0,0.0,0.0,0.0,0.0,0.0,0.0,0.0,-0.0015239609301396252,0.002449919283753583,0.0019264100500562156,0.0,0.0,0.0,0.0,0.0,0.0,0.0,0.0,0.0,0.014947866708045945,-0.05796167264891644,9.808663648396717,0.0,0.0,0.0,0.0,0.0,0.0,0.0,0.0,0.0
2025/05/20 13:08:21.969609852,1747739301,969339154,mA1/imu,0.255972354664617,0.9666836349218902,0.0006597111337129807,0.0006843996444724273,0.0,0.0,0.0,0.0,0.0,0.0,0.0,0.0,0.0,-0.0009896400573091771,0.002676280602886258,0.0020386981282622344,0.0,0.0,0.0,0.0,0.0,0.0,0.0,0.0,0.0,0.011853078136603119,-0.03145765680113919,9.809621987942005,0.0,0.0,0.0,0.0,0.0,0.0,0.0,0.0,0.0
2025/05/20 13:08:22.20359203,1747739302,20244137,mA1/imu,0.25602082576747476,0.9666708246466599,0.0006812400905904492,0.0006240690873294691,0.0,0.0,0.0,0.0,0.0,0.0,0.0,0.0,0.0,0.0003754805132408781,0.0024502196674777684,0.001987243485088225,0.0,0.0,0.0,0.0,0.0,0.0,0.0,0.0,0.0,0.015830575365365956,-0.5827809875946358,9.808875112065117,0.0,0.0,0.0,0.0,0.0,0.0,0.0,0.0,0.0
2025/05/20 13:08:22.70265518,1747739302,70117458,mA1/imu,0.2560680862952104,0.966658326427881,0.0006996182062177919,0.0005706690129971968,0.0,0.0,0.0,0.0,0.0,0.0,0.0,0.0,0.0,-0.000645357962067216,0.002104923562665302,0.0019375940219460998,0.0,0.0,0.0,0.0,0.0,0.0,0.0,0.0,0.0,0.016504984696179743,0.5896832958668252,9.81052187600752,0.0,0.0,0.0,0.0,0.0,0.0,0.0,0.0,0.0
2025/05/20 13:08:22.111617412,1747739302,111411233,mA1/imu,0.2561141790899478,0.9666461296999456,0.0007139542610095657,0.0005267584940612437,0.0,0.0,0.0,0.0,0.0,0.0,0.0,0.0,0.0,-0.001368423296380441,0.0016627947090824553,0.0018895394842281781,0.0,0.0,0.0,0.0,0.0,0.0,0.0,0.0,0.0,0.016437422672666478,0.5280032800290694,9.810107697407009,0.0,0.0,0.0,0.0,0.0,0.0,0.0,0.0,0.0
2025/05/20 13:08:22.160990292,1747739302,160897300,mA1/imu,0.2561597870487533,0.9666340587631463,0.0007195887598567479,0.0004920673126830944,0.0,0.0,0.0,0.0,0.0,0.0,0.0,0.0,0.0,0.0002988686810039816,0.0012230068581356457,0.0018979857587381505,0.0,0.0,0.0,0.0,0.0,0.0,0.0,0.0,0.0,0.012237465568414947,-0.6267748088890466,9.808920224982788,0.0,0.0,0.0,0.0,0.0,0.0,0.0,0.0,0.0
2025/05/20 13:08:22.212016525,1747739302,211854366,mA1/imu,0.25620498773357403,0.966622099698361,0.0007094217979346719,0.00046621441794476723,0.0,0.0,0.0,0.0,0.0,0.0,0.0,0.0,0.0,0.00011104320998411677,0.0006718622078030734,0.0018528932059181762,0.0,0.0,0.0,0.0,0.0,0.0,0.0,0.0,0.0,0.015635238683636473,-0.02524527723690808,9.809501902609345,0.0,0.0,0.0,0.0,0.0,0.0,0.0,0.0,0.0
2025/05/20 13:08:22.262113758,1747739302,261876224,mA1/imu,0.25624847234930764,0.9666105861467659,0.0006980921425519993,0.0004558892548083223,0.0,0.0,0.0,0.0,0.0,0.0,0.0,0.0,0.0,0.0007816063842842209,1.4804373125280682e-05,0.0017545137491605637,0.0,0.0,0.0,0.0,0.0,0.0,0.0,0.0,0.0,0.018069599160221855,0.012430308725267271,9.810259444475763,0.0,0.0,0.0,0.0,0.0,0.0,0.0,0.0,0.0
2025/05/20 13:08:22.313882015,1747739302,313599159,mA1/imu,0.25629029323278507,0.9665995088565958,0.0006811338600586536,0.00045948830839925446,0.0,0.0,0.0,0.0,0.0,0.0,0.0,0.0,0.0,0.0009042689279796434,-0.0005302276290605564,0.0017140295029120576,0.0,0.0,0.0,0.0,0.0,0.0,0.0,0.0,0.0,0.014272418528913158,-0.09579287160981205,9.80994486491515,0.0,0.0,0.0,0.0,0.0,0.0,0.0,0.0,0.0
2025/05/20 13:08:22.363018755,1747739302,362743286,mA1/imu,0.2563306562024543,0.9665888187061764,0.0006533746716509039,0.00047259343648183494,0.0,0.0,0.0,0.0,0.0,0.0,0.0,0.0,0.0,0.0017966512937978977,-0.0009671455380042083,0.0016405844032375669,0.0,0.0,0.0,0.0,0.0,0.0,0.0,0.0,0.0,0.012639745443592074,-0.5636770039094094,9.80918805867868,0.0,0.0,0.0,0.0,0.0,0.0,0.0,0.0,0.0
2025/05/20 13:08:22.414442381,1747739302,414190642,mA1/imu,0.25636971233552747,0.9665784698209793,0.000621935721381359,0.0004954507962724097,0.0,0.0,0.0,0.0,0.0,0.0,0.0,0.0,0.0,0.0006144826532103994,-0.0013581945868295343,0.0015980323776092998,0.0,0.0,0.0,0.0,0.0,0.0,0.0,0.0,0.0,0.012809477204299993,0.6118949718126672,9.811210134704119,0.0,0.0,0.0,0.0,0.0,0.0,0.0,0.0,0.0
2025/05/20 13:08:22.463830978,1747739302,463589928,mA1/imu,0.25640774961351664,0.9665683822995246,0.0005915568274070959,0.0005275770390286424,0.0,0.0,0.0,0.0,0.0,0.0,0.0,0.0,0.0,5.894808125209843e-05,-0.0016622449182964786,0.0015555640840597892,0.0,0.0,0.0,0.0,0.0,0.0,0.0,0.0,0.0,0.012360618780642978,0.5731525201959521,9.810815124086695,0.0,0.0,0.0,0.0,0.0,0.0,0.0,0.0,0.0
2025/05/20 13:08:22.514751592,1747739302,514612732,mA1/imu,0.2564447780205202,0.9665585543216996,0.0005623412102875916,0.0005662737106102345,0.0,0.0,0.0,0.0,0.0,0.0,0.0,0.0,0.0,0.0012080617786007154,-0.0018796463623600111,0.0015127434800065,0.0,0.0,0.0,0.0,0.0,0.0,0.0,0.0,0.0,0.013537648173936425,-0.6061873546957707,9.810074441361417,0.0,0.0,0.0,0.0,0.0,0.0,0.0,0.0,0.0
2025/05/20 13:08:22.564769636,1747739302,564542241,mA1/imu,0.2564816495976715,0.9665487694577505,0.0005229719137576933,0.0006051278734339903,0.0,0.0,0.0,0.0,0.0,0.0,0.0,0.0,0.0,0.002370766167076007,-0.0019300297923691915,0.0015307022446705708,0.0,0.0,0.0,0.0,0.0,0.0,0.0,0.0,0.0,0.012230433133101263,-0.5238444975704902,9.810085372750242,0.0,0.0,0.0,0.0,0.0,0.0,0.0,0.0,0.0
2025/05/20 13:08:22.615658971,1747739302,615508352,mA1/imu,0.2565179831176326,0.9665391149981889,0.0004937410955845186,0.0006478699795595012,0.0,0.0,0.0,0.0,0.0,0.0,0.0,0.0,0.0,0.0005362837058213806,-0.0019634915689063157,0.001482531253476246,0.0,0.0,0.0,0.0,0.0,0.0,0.0,0.0,0.0,0.013226694904514287,0.6190528184592925,9.811273213824801,0.0,0.0,0.0,0.0,0.0,0.0,0.0,0.0,0.0
2025/05/20 13:08:22.665648446,1747739302,665413275,mA1/imu,0.25655738274194706,0.9665286392872144,0.00047414815785206413,0.0006884633121473006,0.0,0.0,0.0,0.0,0.0,0.0,0.0,0.0,0.0,-0.0007666966044278633,-0.0015158507037688017,0.0017746432851081589,0.0,0.0,0.0,0.0,0.0,0.0,0.0,0.0,0.0,-0.005072769338021388,0.44231884792502885,9.810954109584573,0.0,0.0,0.0,0.0,0.0,0.0,0.0,0.0,0.0
2025/05/20 13:08:22.716510353,1747739302,716384722,mA1/imu,0.2566030464050188,0.9665165067682628,0.00045357825427303936,0.0007162310421138143,0.0,0.0,0.0,0.0,0.0,0.0,0.0,0.0,0.0,-5.539925857222219e-05,-0.0012257532381124716,0.0018875124660071101,0.0,0.0,0.0,0.0,0.0,0.0,0.0,0.0,0.0,0.014718356936948118,-0.36777915813885403,9.810765072814569,0.0,0.0,0.0,0.0,0.0,0.0,0.0,0.0,0.0
2025/05/20 13:08:22.766550367,1747739302,766267837,mA1/imu,0.25664808190335014,0.966504537893567,0.00043665017144027475,0.000741365700207455,0.0,0.0,0.0,0.0,0.0,0.0,0.0,0.0,0.0,4.4208378258381405e-05,-0.0010835534119951224,0.001846736278648087,0.0,0.0,0.0,0.0,0.0,0.0,0.0,0.0,0.0,0.01433531714829201,-0.15926576097404835,9.8108859359378,0.0,0.0,0.0,0.0,0.0,0.0,0.0,0.0,0.0
2025/05/20 13:08:22.818134513,1747739302,817920631,mA1/imu,0.2566921501385645,0.9664928258692923,0.00042091702015551315,0.000761859102768597,0.0,0.0,0.0,0.0,0.0,0.0,0.0,0.0,0.0,0.00021925873727336254,-0.0008576357417933721,0.0018077086540856544,0.0,0.0,0.0,0.0,0.0,0.0,0.0,0.0,0.0,0.013614720835355245,0.012828692071285872,9.809821147240243,0.0,0.0,0.0,0.0,0.0,0.0,0.0,0.0,0.0
2025/05/20 13:08:22.867269683,1747739302,867080970,mA1/imu,0.25673589337991365,0.9664811939096568,0.0004199140792880392,0.0007788077736256084,0.0,0.0,0.0,0.0,0.0,0.0,0.0,0.0,0.0,-0.0002923673336977737,-0.0005363069822171433,0.0018105492740321158,0.0,0.0,0.0,0.0,0.0,0.0,0.0,0.0,0.0,0.012765962434665701,-0.007818570309632395,9.81098462328143,0.0,0.0,0.0,0.0,0.0,0.0,0.0,0.0,0.0
2025/05/20 13:08:22.919112566,1747739302,918843245,mA1/imu,0.25677909035532653,0.96646970630002,0.00042623974391697676,0.0007898609528335479,0.0,0.0,0.0,0.0,0.0,0.0,0.0,0.0,0.0,0.0010001938162170578,-0.00024807713707341564,0.0017731788192542146,0.0,0.0,0.0,0.0,0.0,0.0,0.0,0.0,0.0,0.012995524872257115,-0.5328058326470899,9.809349353380396,0.0,0.0,0.0,0.0,0.0,0.0,0.0,0.0,0.0
2025/05/20 13:08:22.968245837,1747739302,968007700,mA1/imu,0.25682138886900385,0.9664584573297779,0.00043925253487213763,0.000794690098313982,0.0,0.0,0.0,0.0,0.0,0.0,0.0,0.0,0.0,-0.0003321830603717364,6.797702160988453e-05,0.0017366030055128597,0.0,0.0,0.0,0.0,0.0,0.0,0.0,0.0,0.0,0.01364807847706748,0.014441761094137529,9.810586063404822,0.0,0.0,0.0,0.0,0.0,0.0,0.0,0.0,0.0
2025/05/20 13:08:23.18994445,1747739303,18895548,mA1/imu,0.2568628053074119,0.9664474454493313,0.00045507021961449414,0.0007920512378686275,0.0,0.0,0.0,0.0,0.0,0.0,0.0,0.0,0.0,-0.00026803994117819915,0.00038373317778741726,0.0017004625500399969,0.0,0.0,0.0,0.0,0.0,0.0,0.0,0.0,0.0,0.013613757954760055,-0.5978997807077205,9.810214424786935,0.0,0.0,0.0,0.0,0.0,0.0,0.0,0.0,0.0
2025/05/20 13:08:23.69133572,1747739303,68980867,mA1/imu,0.25690335153372945,0.9664366639278376,0.00047777454785685486,0.0007837845688577486,0.0,0.0,0.0,0.0,0.0,0.0,0.0,0.0,0.0,-0.0008169840802597327,0.0006680192471063325,0.0016649369789910745,0.0,0.0,0.0,0.0,0.0,0.0,0.0,0.0,0.0,0.013527095423799318,0.1221778773846639,9.809469417956961,0.0,0.0,0.0,0.0,0.0,0.0,0.0,0.0,0.0
2025/05/20 13:08:23.120717937,1747739303,120505615,mA1/imu,0.2569430462054636,0.9664261084927797,0.0005051158878088041,0.0007698623896452927,0.0,0.0,0.0,0.0,0.0,0.0,0.0,0.0,0.0,-0.0009491065776271065,0.000910432192757454,0.001630222964979138,0.0,0.0,0.0,0.0,0.0,0.0,0.0,0.0,0.0,0.013987477435093452,-0.0015050693905953125,9.810587735650941,0.0,0.0,0.0,0.0,0.0,0.0,0.0,0.0,0.0
2025/05/20 13:08:23.170153304,1747739303,169860711,mA1/imu,0.25698084305825625,0.9664160627549404,0.0005278216228531676,0.0007492360385948152,0.0,0.0,0.0,0.0,0.0,0.0,0.0,0.0,0.0,-0.0002726048750460444,0.0011053729300886585,0.0015213745315677649,0.0,0.0,0.0,0.0,0.0,0.0,0.0,0.0,0.0,0.013540172134851893,0.046654888449271376,9.807794183409174,0.0,0.0,0.0,0.0,0.0,0.0,0.0,0.0,0.0
2025/05/20 13:08:23.220937789,1747739303,220741050,mA1/imu,0.25701696000951674,0.9664064544211837,0.0005635061360865028,0.0007277234212256429,0.0,0.0,0.0,0.0,0.0,0.0,0.0,0.0,0.0,-0.0003409888601298811,0.0012439420246601782,0.0014799262811536513,0.0,0.0,0.0,0.0,0.0,0.0,0.0,0.0,0.0,0.013782229617843773,0.04455978252493433,9.809210130451458,0.0,0.0,0.0,0.0,0.0,0.0,0.0,0.0,0.0
2025/05/20 13:08:23.261139949,1747739303,260481905,mA1/imu,0.2570525903349845,0.9663969765921814,0.0005969337021020168,0.0007022148681699999,0.0,0.0,0.0,0.0,0.0,0.0,0.0,0.0,0.0,-0.000709478896780426,0.0013642260257633308,0.001473791681629902,0.0,0.0,0.0,0.0,0.0,0.0,0.0,0.0,0.0,0.013395592591716108,0.01158432654816741,9.810530226676835,0.0,0.0,0.0,0.0,0.0,0.0,0.0,0.0,0.0
2025/05/20 13:08:23.311635794,1747739303,311398958,mA1/imu,0.2570875660185865,0.966387674735734,0.0006250409877014276,0.0006744192049455849,0.0,0.0,0.0,0.0,0.0,0.0,0.0,0.0,0.0,-0.0015113284942882299,0.0013483080099544634,0.0014330155731801955,0.0,0.0,0.0,0.0,0.0,0.0,0.0,0.0,0.0,0.014573516112707028,0.13744402640416722,9.811795693517873,0.0,0.0,0.0,0.0,0.0,0.0,0.0,0.0,0.0
2025/05/20 13:08:23.361487947,1747739303,361272370,mA1/imu,0.2571215586437394,0.9663786310828262,0.0006521941384457143,0.0006481588561982866,0.0,0.0,0.0,0.0,0.0,0.0,0.0,0.0,0.0,-0.001332049649908479,0.0012573439077944908,0.001392024773737289,0.0,0.0,0.0,0.0,0.0,0.0,0.0,0.0,0.0,0.014140406920263984,-0.042658801376036566,9.809877677646247,0.0,0.0,0.0,0.0,0.0,0.0,0.0,0.0,0.0
2025/05/20 13:08:23.412759319,1747739303,412554956,mA1/imu,0.2571545785283006,0.9663698508557492,0.0006683779591622613,0.0006223904504678037,0.0,0.0,0.0,0.0,0.0,0.0,0.0,0.0,0.0,0.00039136275579087744,0.0010893420472258412,0.0013508366980965543,0.0,0.0,0.0,0.0,0.0,0.0,0.0,0.0,0.0,0.0152193958631042,-0.5673775108179554,9.808588115014164,0.0,0.0,0.0,0.0,0.0,0.0,0.0,0.0,0.0
2025/05/20 13:08:23.462276265,1747739303,462115027,mA1/imu,0.2571877372750646,0.9663610320239145,0.0006802647071668138,0.0006006837231912197,0.0,0.0,0.0,0.0,0.0,0.0,0.0,0.0,0.0,0.0004195639926485537,0.0008544679119653516,0.0014056238209943109,0.0,0.0,0.0,0.0,0.0,0.0,0.0,0.0,0.0,0.0160383727231299,0.04923327661310867,9.809512417710017,0.0,0.0,0.0,0.0,0.0,0.0,0.0,0.0,0.0
2025/05/20 13:08:23.513268012,1747739303,513115536,mA1/imu,0.2572211501803367,0.9663521384120038,0.0006932785941941581,0.0005863883039783867,0.0,0.0,0.0,0.0,0.0,0.0,0.0,0.0,0.0,-0.0009655207524401944,0.000564091825718572,0.001369046042172896,0.0,0.0,0.0,0.0,0.0,0.0,0.0,0.0,0.0,0.016167242300872697,0.5688498179325678,9.81126092452223,0.0,0.0,0.0,0.0,0.0,0.0,0.0,0.0,0.0
2025/05/20 13:08:23.563145197,1747739303,563008245,mA1/imu,0.25725367839413626,0.9663434839987337,0.000694856802818607,0.0005771134193769804,0.0,0.0,0.0,0.0,0.0,0.0,0.0,0.0,0.0,-0.0005035930315578488,0.00025060718757961777,0.0013319237520275757,0.0,0.0,0.0,0.0,0.0,0.0,0.0,0.0,0.0,0.015380718892571522,-0.0410596031890033,9.810424378527683,0.0,0.0,0.0,0.0,0.0,0.0,0.0,0.0,0.0
2025/05/20 13:08:23.614254851,1747739303,614036581,mA1/imu,0.2572853381542528,0.966335061992347,0.0006879373547600803,0.0005740011275644817,0.0,0.0,0.0,0.0,0.0,0.0,0.0,0.0,0.0,0.00041536219328736795,-8.02254832003448e-05,0.0012965023584949956,0.0,0.0,0.0,0.0,0.0,0.0,0.0,0.0,0.0,0.015344751172453716,-0.11490946292092216,9.809830943779874,0.0,0.0,0.0,0.0,0.0,0.0,0.0,0.0,0.0
2025/05/20 13:08:23.664476218,1747739303,664184664,mA1/imu,0.25731668750436043,0.96632672301712,0.0006741394838928053,0.0005764119480598065,0.0,0.0,0.0,0.0,0.0,0.0,0.0,0.0,0.0,0.0005711185135812273,-0.0003380697923722255,0.0012961126536934302,0.0,0.0,0.0,0.0,0.0,0.0,0.0,0.0,0.0,0.014464469774314908,0.003970031456774416,9.810512036647522,0.0,0.0,0.0,0.0,0.0,0.0,0.0,0.0,0.0
2025/05/20 13:08:23.716028240,1747739303,715776748,mA1/imu,0.25734755670568654,0.9663185141382685,0.0006512108274746612,0.0005832801047847539,0.0,0.0,0.0,0.0,0.0,0.0,0.0,0.0,0.0,0.0008303345629938578,-0.0006061866226295893,0.0012641231755430935,0.0,0.0,0.0,0.0,0.0,0.0,0.0,0.0,0.0,0.014730645123779858,0.011038486583218337,9.810140298965413,0.0,0.0,0.0,0.0,0.0,0.0,0.0,0.0,0.0
2025/05/20 13:08:23.765766748,1747739303,765546193,mA1/imu,0.2573778626783731,0.9663104565714229,0.0006214246487740944,0.000592583535500306,0.0,0.0,0.0,0.0,0.0,0.0,0.0,0.0,0.0,0.0010207246908807228,-0.0006938253675618051,0.0012444842811280945,0.0,0.0,0.0,0.0,0.0,0.0,0.0,0.0,0.0,0.012168635560180432,0.6420236810840678,9.810741732721134,0.0,0.0,0.0,0.0,0.0,0.0,0.0,0.0,0.0
2025/05/20 13:08:23.816731388,1747739303,816580588,mA1/imu,0.25740746483373333,0.9663025759440822,0.0005994682863581443,0.0006077906507634548,0.0,0.0,0.0,0.0,0.0,0.0,0.0,0.0,0.0,0.0013324330664384373,-0.0008906112787462275,0.0012113359385370259,0.0,0.0,0.0,0.0,0.0,0.0,0.0,0.0,0.0,0.013833956922980142,0.030512994622803352,9.809917411477404,0.0,0.0,0.0,0.0,0.0,0.0,0.0,0.0,0.0
2025/05/20 13:08:23.867191896,1747739303,866835335,mA1/imu,0.2574362961814232,0.966294899167594,0.0005738904128541139,0.0006260198670247836,0.0,0.0,0.0,0.0,0.0,0.0,0.0,0.0,0.0,0.0016664319625682264,-0.0010283530878185288,0.0011797321896495018,0.0,0.0,0.0,0.0,0.0,0.0,0.0,0.0,0.0,0.014007053062431128,-0.5829195372087116,9.81050633875019,0.0,0.0,0.0,0.0,0.0,0.0,0.0,0.0,0.0
2025/05/20 13:08:23.918874765,1747739303,918608169,mA1/imu,0.2574643792653399,0.9662874248539202,0.0005394684497583107,0.0006441680562668539,0.0,0.0,0.0,0.0,0.0,0.0,0.0,0.0,0.0,0.0016375547144038198,-0.0010790768020459704,0.001148739298233112,0.0,0.0,0.0,0.0,0.0,0.0,0.0,0.0,0.0,0.0134901137858726,-0.585996621140562,9.810769347149746,0.0,0.0,0.0,0.0,0.0,0.0,0.0,0.0,0.0
2025/05/20 13:08:23.967750109,1747739303,967630163,mA1/imu,0.2574921548224559,0.9662800297079267,0.0005055275461055387,0.0006624457990601212,0.0,0.0,0.0,0.0,0.0,0.0,0.0,0.0,0.0,-0.00016983500441366232,-0.0010255416178948686,0.0011475988030593897,0.0,0.0,0.0,0.0,0.0,0.0,0.0,0.0,0.0,0.012825863312832834,0.5474561775013668,9.810851929288274,0.0,0.0,0.0,0.0,0.0,0.0,0.0,0.0,0.0
2025/05/20 13:08:24.19066375,1747739304,18896566,mA1/imu,0.2575194788875557,0.9662727537278382,0.0004712474586052461,0.0006792072844086587,0.0,0.0,0.0,0.0,0.0,0.0,0.0,0.0,0.0,-0.00027852956186948346,-0.0009606752748600084,0.0011183051089381918,0.0,0.0,0.0,0.0,0.0,0.0,0.0,0.0,0.0,0.012959606342258909,0.5445649216517757,9.810248785840788,0.0,0.0,0.0,0.0,0.0,0.0,0.0,0.0,0.0
2025/05/20 13:08:24.68657827,1747739304,68473916,mA1/imu,0.25754612742991606,0.9662656543417323,0.0004420874519872727,0.0006942939451663305,0.0,0.0,0.0,0.0,0.0,0.0,0.0,0.0,0.0,0.00023326577646149387,-0.0008187427019652941,0.0010913365021266352,0.0,0.0,0.0,0.0,0.0,0.0,0.0,0.0,0.0,0.012102792943414726,-0.04115941329565516,9.808964662791354,0.0,0.0,0.0,0.0,0.0,0.0,0.0,0.0,0.0
2025/05/20 13:08:24.120368091,1747739304,120141560,mA1/imu,0.25757213234067866,0.9662587283127193,0.0004120867395625746,0.0007048301081141716,0.0,0.0,0.0,0.0,0.0,0.0,0.0,0.0,0.0,0.0016894379228030135,-0.0006397783900726766,0.0010649883790867136,0.0,0.0,0.0,0.0,0.0,0.0,0.0,0.0,0.0,0.012116620350830965,-0.5623846111513935,9.809583861527544,0.0,0.0,0.0,0.0,0.0,0.0,0.0,0.0,0.0
2025/05/20 13:08:24.169752761,1747739304,169514421,mA1/imu,0.25759749735840937,0.9662519723703478,0.0003865711411361514,0.0007112016942356674,0.0,0.0,0.0,0.0,0.0,0.0,0.0,0.0,0.0,0.0014199540296112258,-0.0004233856369753155,0.0010385270777532988,0.0,0.0,0.0,0.0,0.0,0.0,0.0,0.0,0.0,0.012531352686461055,0.0562256675353438,9.810691842555174,0.0,0.0,0.0,0.0,0.0,0.0,0.0,0.0,0.0
2025/05/20 13:08:24.221176909,1747739304,220958583,mA1/imu,0.2576222194489256,0.9662453827700945,0.00037529643711602307,0.000715174291582583,0.0,0.0,0.0,0.0,0.0,0.0,0.0,0.0,0.0,-0.0003813639143003393,-0.0001697311645672932,0.0010127830654825202,0.0,0.0,0.0,0.0,0.0,0.0,0.0,0.0,0.0,0.01213538057148559,0.5781717296809694,9.809664184473755,0.0,0.0,0.0,0.0,0.0,0.0,0.0,0.0,0.0
2025/05/20 13:08:24.261118079,1747739304,261047598,mA1/imu,0.25764685692785244,0.9662388198478249,0.00036498069420316196,0.0007119855151860556,0.0,0.0,0.0,0.0,0.0,0.0,0.0,0.0,0.0,-0.0002544031063058488,0.0001432406293196856,0.0010218531529289862,0.0,0.0,0.0,0.0,0.0,0.0,0.0,0.0,0.0,0.010997470669648415,-0.027003263520639254,9.808217712428547,0.0,0.0,0.0,0.0,0.0,0.0,0.0,0.0,0.0
2025/05/20 13:08:24.311484932,1747739304,311319523,mA1/imu,0.25767119793189425,0.9662323416994112,0.0003521149852928455,0.0007011600756417579,0.0,0.0,0.0,0.0,0.0,0.0,0.0,0.0,0.0,0.0009261185139102979,0.00039098599163019863,0.0009977110469877788,0.0,0.0,0.0,0.0,0.0,0.0,0.0,0.0,0.0,0.011500625132510437,0.26348550389816094,9.808913153772103,0.0,0.0,0.0,0.0,0.0,0.0,0.0,0.0,0.0
2025/05/20 13:08:24.361529755,1747739304,361332158,mA1/imu,0.2576949487907908,0.9662260135617005,0.0003591659063871804,0.0006892635403585496,0.0,0.0,0.0,0.0,0.0,0.0,0.0,0.0,0.0,0.0002944643259921832,0.0006168086165473084,0.0009740836688586893,0.0,0.0,0.0,0.0,0.0,0.0,0.0,0.0,0.0,0.012203197610647813,0.22210126719322243,9.810224359288503,0.0,0.0,0.0,0.0,0.0,0.0,0.0,0.0,0.0
2025/05/20 13:08:24.413234725,1747739304,412999397,mA1/imu,0.2577181326704518,0.9662198402336681,0.0003648922944171562,0.0006717777115979144,0.0,0.0,0.0,0.0,0.0,0.0,0.0,0.0,0.0,-6.966858142523867e-05,0.0008215421109806699,0.0009523089715006,0.0,0.0,0.0,0.0,0.0,0.0,0.0,0.0,0.0,0.010038710176420555,0.65501892309306,9.810695644001784,0.0,0.0,0.0,0.0,0.0,0.0,0.0,0.0,0.0
2025/05/20 13:08:24.462591425,1747739304,462233156,mA1/imu,0.2577394929857644,0.966214146868991,0.00038666165424949584,0.0006531756533775682,0.0,0.0,0.0,0.0,0.0,0.0,0.0,0.0,0.0,-0.00016512527992394529,0.0010251507642746686,0.0008438273905994718,0.0,0.0,0.0,0.0,0.0,0.0,0.0,0.0,0.0,0.00917032511941345,0.03458447194776516,9.80859335137817,0.0,0.0,0.0,0.0,0.0,0.0,0.0,0.0,0.0
2025/05/20 13:08:24.514205246,1747739304,513964365,mA1/imu,0.25775952233635074,0.9662088096723565,0.00040972237583136294,0.0006299873324492778,0.0,0.0,0.0,0.0,0.0,0.0,0.0,0.0,0.0,0.00038070829083513056,0.0011913624504054396,0.0008210398188821153,0.0,0.0,0.0,0.0,0.0,0.0,0.0,0.0,0.0,0.010018819554051773,-0.5212422028080695,9.80861636659615,0.0,0.0,0.0,0.0,0.0,0.0,0.0,0.0,0.0
2025/05/20 13:08:24.563438051,1747739304,563132036,mA1/imu,0.2577796926597711,0.9662034329446894,0.00043796393812915686,0.000603660268713976,0.0,0.0,0.0,0.0,0.0,0.0,0.0,0.0,0.0,0.00014433200969706224,0.0013627225385479435,0.0008449180073565671,0.0,0.0,0.0,0.0,0.0,0.0,0.0,0.0,0.0,0.009303093662380559,-0.5500722519832828,9.809035902883645,0.0,0.0,0.0,0.0,0.0,0.0,0.0,0.0,0.0
2025/05/20 13:08:24.614769479,1747739304,614544467,mA1/imu,0.2577997540064653,0.9661980751109707,0.0004808457724995146,0.0005790279819849057,0.0,0.0,0.0,0.0,0.0,0.0,0.0,0.0,0.0,-0.002334044094354856,0.001386014853622751,0.0008235751894100149,0.0,0.0,0.0,0.0,0.0,0.0,0.0,0.0,0.0,0.011662483424677452,-0.10296251327620039,9.811127379609879,0.0,0.0,0.0,0.0,0.0,0.0,0.0,0.0,0.0
2025/05/20 13:08:24.664251321,1747739304,664095011,mA1/imu,0.2578193119176666,0.9661928599948794,0.000506130769220346,0.0005509345340133879,0.0,0.0,0.0,0.0,0.0,0.0,0.0,0.0,0.0,-0.0027095733297944303,0.0013336205893918426,0.000802113786878454,0.0,0.0,0.0,0.0,0.0,0.0,0.0,0.0,0.0,0.010534318209740582,0.5251954020854019,9.810738315882839,0.0,0.0,0.0,0.0,0.0,0.0,0.0,0.0,0.0
2025/05/20 13:08:24.715251609,1747739304,715047617,mA1/imu,0.25783835789535864,0.9661877797759255,0.0005287426080908403,0.0005252054332124194,0.0,0.0,0.0,0.0,0.0,0.0,0.0,0.0,0.0,-0.001246924948007531,0.0011742179761222887,0.0007810585461067136,0.0,0.0,0.0,0.0,0.0,0.0,0.0,0.0,0.0,0.01095827987397074,0.6255086336963015,9.811389789359746,0.0,0.0,0.0,0.0,0.0,0.0,0.0,0.0,0.0
2025/05/20 13:08:24.765139274,1747739304,764964029,mA1/imu,0.25785979208690635,0.9661820547685249,0.0005589340923354023,0.000502255760455615,0.0,0.0,0.0,0.0,0.0,0.0,0.0,0.0,0.0,0.0004628220039881313,0.0011809462046961973,0.0009471318512688214,0.0,0.0,0.0,0.0,0.0,0.0,0.0,0.0,0.0,0.009148627654888674,0.10949906678677546,9.810388849962443,0.0,0.0,0.0,0.0,0.0,0.0,0.0,0.0,0.0
2025/05/20 13:08:24.816628410,1747739304,816407500,mA1/imu,0.2578824847370795,0.9661759880010972,0.0005911679155276347,0.00048455797306579227,0.0,0.0,0.0,0.0,0.0,0.0,0.0,0.0,0.0,-0.00023752782827240982,0.0008865813481418498,0.0009365679085554348,0.0,0.0,0.0,0.0,0.0,0.0,0.0,0.0,0.0,0.011983745686979231,0.05727197368313513,9.809287230893531,0.0,0.0,0.0,0.0,0.0,0.0,0.0,0.0,0.0
2025/05/20 13:08:24.865977553,1747739304,865787633,mA1/imu,0.2579056775919606,0.9661697839608052,0.000621206593260523,0.0004734229938421244,0.0,0.0,0.0,0.0,0.0,0.0,0.0,0.0,0.0,0.00011070616477342919,0.0006158963641491883,0.0009761677078726194,0.0,0.0,0.0,0.0,0.0,0.0,0.0,0.0,0.0,0.011260100026681787,-0.5598142428490157,9.809475171314022,0.0,0.0,0.0,0.0,0.0,0.0,0.0,0.0,0.0
2025/05/20 13:08:24.917708798,1747739304,917558828,mA1/imu,0.257929109920736,0.9661635185844774,0.00064074800952898,0.000468031993986829,0.0,0.0,0.0,0.0,0.0,0.0,0.0,0.0,0.0,-0.0020146757610462205,0.0002549306763724858,0.000966994297638339,0.0,0.0,0.0,0.0,0.0,0.0,0.0,0.0,0.0,0.013252167272753293,-0.09093570816753846,9.812103028722168,0.0,0.0,0.0,0.0,0.0,0.0,0.0,0.0,0.0
2025/05/20 13:08:24.967037696,1747739304,966866429,mA1/imu,0.25795231905944654,0.9661573189889252,0.0006451273792139211,0.00046889940325846053,0.0,0.0,0.0,0.0,0.0,0.0,0.0,0.0,0.0,-0.002088431668378948,-0.00012609647493266987,0.0009568484052173974,0.0,0.0,0.0,0.0,0.0,0.0,0.0,0.0,0.0,0.011897341178491849,0.5234974163581816,9.810984921641172,0.0,0.0,0.0,0.0,0.0,0.0,0.0,0.0,0.0
2025/05/20 13:08:25.18004205,1747739305,17844961,mA1/imu,0.25797529707063105,0.9661511812588512,0.0006423673714838625,0.00047793054520869004,0.0,0.0,0.0,0.0,0.0,0.0,0.0,0.0,0.0,-0.0013669751453485525,-0.0005182030300654757,0.0009473830109251033,0.0,0.0,0.0,0.0,0.0,0.0,0.0,0.0,0.0,0.012000609608109562,0.555926168911207,9.810284967637473,0.0,0.0,0.0,0.0,0.0,0.0,0.0,0.0,0.0
2025/05/20 13:08:25.68085371,1747739305,67854590,mA1/imu,0.2579980928121787,0.9661450916065225,0.0006333012061661534,0.0004949742262262691,0.0,0.0,0.0,0.0,0.0,0.0,0.0,0.0,0.0,0.0010581540630781369,-0.0008879108011904187,0.0009402848341318432,0.0,0.0,0.0,0.0,0.0,0.0,0.0,0.0,0.0,0.011459734638259335,0.4578359199513546,9.81152633006259,0.0,0.0,0.0,0.0,0.0,0.0,0.0,0.0,0.0
2025/05/20 13:08:25.119539661,1747739305,119321134,mA1/imu,0.25802071040976,0.9661390436912769,0.0006250680678732218,0.0005201392680619075,0.0,0.0,0.0,0.0,0.0,0.0,0.0,0.0,0.0,0.001312316788138808,-0.001172049800752464,0.0009327943382936824,0.0,0.0,0.0,0.0,0.0,0.0,0.0,0.0,0.0,0.010413663339518993,0.08561648832468245,9.810128719094394,0.0,0.0,0.0,0.0,0.0,0.0,0.0,0.0,0.0
2025/05/20 13:08:25.169086573,1747739305,168809579,mA1/imu,0.25804315085078633,0.966133036842837,0.0006187102249635528,0.0005519216370665235,0.0,0.0,0.0,0.0,0.0,0.0,0.0,0.0,0.0,0.0001080673270465593,-0.0013762401344642843,0.0009254468669828437,0.0,0.0,0.0,0.0,0.0,0.0,0.0,0.0,0.0,0.011037911499176462,-0.01209716372806001,9.811282064783603,0.0,0.0,0.0,0.0,0.0,0.0,0.0,0.0,0.0
2025/05/20 13:08:25.219901348,1747739305,219612240,mA1/imu,0.25806543077788885,0.9661270831267957,0.0005941763111877292,0.0005827871336372388,0.0,0.0,0.0,0.0,0.0,0.0,0.0,0.0,0.0,0.0009020927272945109,-0.0014844024346367744,0.0009186084092974396,0.0,0.0,0.0,0.0,0.0,0.0,0.0,0.0,0.0,0.010274949794621664,-0.5987607285269058,9.809212849691407,0.0,0.0,0.0,0.0,0.0,0.0,0.0,0.0,0.0
2025/05/20 13:08:25.269958284,1747739305,269640794,mA1/imu,0.25808757702412044,0.9661211659463693,0.0005644990028052968,0.0006137076850435782,0.0,0.0,0.0,0.0,0.0,0.0,0.0,0.0,0.0,0.00178649451503776,-0.0015129239959887108,0.0009136945663506318,0.0,0.0,0.0,0.0,0.0,0.0,0.0,0.0,0.0,0.010244238922862118,-0.5476277918477568,9.80899738890506,0.0,0.0,0.0,0.0,0.0,0.0,0.0,0.0,0.0
2025/05/20 13:08:25.320757217,1747739305,320640439,mA1/imu,0.25810959903882,0.9661152754484508,0.0005412817832953539,0.0006453241161308331,0.0,0.0,0.0,0.0,0.0,0.0,0.0,0.0,0.0,0.0004275841215662305,-0.0014313192420910492,0.0009084739898338208,0.0,0.0,0.0,0.0,0.0,0.0,0.0,0.0,0.0,0.009631763235295219,-0.017934474587170464,9.8118559400379,0.0,0.0,0.0,0.0,0.0,0.0,0.0,0.0,0.0
2025/05/20 13:08:25.361123455,1747739305,360513523,mA1/imu,0.25813148029852745,0.9661094277852178,0.0005107565530058434,0.0006719755603328877,0.0,0.0,0.0,0.0,0.0,0.0,0.0,0.0,0.0,-0.0008544809500455263,-0.0012600873018306009,0.0009020550002326791,0.0,0.0,0.0,0.0,0.0,0.0,0.0,0.0,0.0,0.008945421839397902,0.5227618649434045,9.809663907609103,0.0,0.0,0.0,0.0,0.0,0.0,0.0,0.0,0.0
2025/05/20 13:08:25.413120143,1747739305,412502746,mA1/imu,0.25815321566062444,0.9661036183701571,0.00048343093806585836,0.0006943419165435066,0.0,0.0,0.0,0.0,0.0,0.0,0.0,0.0,0.0,0.0009973686472927613,-0.0010510666772697934,0.0008965216834874968,0.0,0.0,0.0,0.0,0.0,0.0,0.0,0.0,0.0,0.009212758632359225,-0.6110693532723346,9.80922311831111,0.0,0.0,0.0,0.0,0.0,0.0,0.0,0.0,0.0
2025/05/20 13:08:25.461655676,1747739305,461399594,mA1/imu,0.25817481827393063,0.9660978511906754,0.0004507251054342687,0.0007085060775416058,0.0,0.0,0.0,0.0,0.0,0.0,0.0,0.0,0.0,0.002348913487608031,-0.0007792215511070652,0.0008910772402953776,0.0,0.0,0.0,0.0,0.0,0.0,0.0,0.0,0.0,0.009268808118992462,-0.5165543404185203,9.808899749558286,0.0,0.0,0.0,0.0,0.0,0.0,0.0,0.0,0.0
2025/05/20 13:08:25.513645287,1747739305,513325749,mA1/imu,0.2581961653808637,0.9660921480339243,0.0004308345792990871,0.0007183810834419087,0.0,0.0,0.0,0.0,0.0,0.0,0.0,0.0,0.0,0.0005130934748673654,-0.0005290595265910758,0.0008622681790705234,0.0,0.0,0.0,0.0,0.0,0.0,0.0,0.0,0.0,0.02195638507147299,0.627266190837688,9.810157972699358,0.0,0.0,0.0,0.0,0.0,0.0,0.0,0.0,0.0
2025/05/20 13:08:25.562373218,1747739305,562215123,mA1/imu,0.25821285992407395,0.966087677745839,0.0004169612496384554,0.0007375776562232047,0.0,0.0,0.0,0.0,0.0,0.0,0.0,0.0,0.0,-0.0007027911703259269,-0.0010939666585456185,0.0005899487438197712,0.0,0.0,0.0,0.0,0.0,0.0,0.0,0.0,0.0,0.031571990824241225,0.42439896982843217,9.809232733745448,0.0,0.0,0.0,0.0,0.0,0.0,0.0,0.0,0.0
2025/05/20 13:08:25.614029440,1747739305,613270182,mA1/imu,0.25822753588494457,0.966083742941275,0.00039852655769286326,0.0007632247041794548,0.0,0.0,0.0,0.0,0.0,0.0,0.0,0.0,0.0,-0.0007201252318769375,-0.0011786530262446878,0.0006334101544824686,0.0,0.0,0.0,0.0,0.0,0.0,0.0,0.0,0.0,0.020479916397141456,-0.07698175612948034,9.810513288339495,0.0,0.0,0.0,0.0,0.0,0.0,0.0,0.0,0.0
2025/05/20 13:08:25.663350383,1747739305,663160207,mA1/imu,0.2582460512529765,0.9660787883603985,0.0003760741825379096,0.0007811917551985717,0.0,0.0,0.0,0.0,0.0,0.0,0.0,0.0,0.0,-0.0013545398256693524,-0.0007453376478688801,0.000849604668795723,0.0,0.0,0.0,0.0,0.0,0.0,0.0,0.0,0.0,0.017004210844622003,0.5195498162645621,9.808302605814308,0.0,0.0,0.0,0.0,0.0,0.0,0.0,0.0,0.0
2025/05/20 13:08:25.715542059,1747739305,715177227,mA1/imu,0.258267062599041,0.9660731639192546,0.000361175772061497,0.0007974230782395172,0.0,0.0,0.0,0.0,0.0,0.0,0.0,0.0,0.0,-0.0015744361242566432,-0.0007632174771527154,0.0008851751225264496,0.0,0.0,0.0,0.0,0.0,0.0,0.0,0.0,0.0,0.024067275465351243,0.5041964429395654,9.811669259063969,0.0,0.0,0.0,0.0,0.0,0.0,0.0,0.0,0.0
2025/05/20 13:08:25.764465305,1747739305,764227919,mA1/imu,0.2582891789101914,0.9660672480414192,0.0003387574518759506,0.0008109025631532012,0.0,0.0,0.0,0.0,0.0,0.0,0.0,0.0,0.0,5.206361226229041e-06,-0.0007008438565255012,0.0009424001855150988,0.0,0.0,0.0,0.0,0.0,0.0,0.0,0.0,0.0,0.023568669678693633,0.6299847637428598,9.809368222265649,0.0,0.0,0.0,0.0,0.0,0.0,0.0,0.0,0.0
2025/05/20 13:08:25.816065993,1747739305,815854293,mA1/imu,0.2583128339387697,0.9660609074203125,0.00034098116254686217,0.0008286788345203387,0.0,0.0,0.0,0.0,0.0,0.0,0.0,0.0,0.0,0.0008108367457363225,-0.0006493649530827397,0.0010083820153605789,0.0,0.0,0.0,0.0,0.0,0.0,0.0,0.0,0.0,0.02449942373789342,-0.5436313036120781,9.809917939704182,0.0,0.0,0.0,0.0,0.0,0.0,0.0,0.0,0.0
2025/05/20 13:08:25.865245155,1747739305,865055493,mA1/imu,0.25833183955096595,0.9660558100146868,0.0003312795563344963,0.0008502146418031426,0.0,0.0,0.0,0.0,0.0,0.0,0.0,0.0,0.0,0.0015098454779046817,-0.0011209164806444195,0.0006173854375474992,0.0,0.0,0.0,0.0,0.0,0.0,0.0,0.0,0.0,0.03558918042246057,-0.34358580757811197,9.810489866789492,0.0,0.0,0.0,0.0,0.0,0.0,0.0,0.0,0.0
2025/05/20 13:08:25.916845530,1747739305,916612985,mA1/imu,0.2583455473067229,0.9660521136594904,0.0003441912336196165,0.0008794391482116385,0.0,0.0,0.0,0.0,0.0,0.0,0.0,0.0,0.0,-0.00016496420124208281,-0.0009263888990729465,0.0005413502553928696,0.0,0.0,0.0,0.0,0.0,0.0,0.0,0.0,0.0,0.0228574102928584,0.027205665587298505,9.80919782195562,0.0,0.0,0.0,0.0,0.0,0.0,0.0,0.0,0.0
2025/05/20 13:08:25.966201964,1747739305,966080714,mA1/imu,0.25835755493611096,0.966048879655318,0.00035170229315031133,0.0009012378356720876,0.0,0.0,0.0,0.0,0.0,0.0,0.0,0.0,0.0,-0.002476194340949374,-0.0006416218081207158,0.0004656519804371758,0.0,0.0,0.0,0.0,0.0,0.0,0.0,0.0,0.0,0.02283784661578707,0.45297816038466915,9.810773809065237,0.0,0.0,0.0,0.0,0.0,0.0,0.0,0.0,0.0
2025/05/20 13:08:26.17453855,1747739306,17261228,mA1/imu,0.25836779732152204,0.9660461215839279,0.00036210099886231986,0.0009171492476764496,0.0,0.0,0.0,0.0,0.0,0.0,0.0,0.0,0.0,-0.0012479872807362453,-0.000381276022810451,0.00039336503310168254,0.0,0.0,0.0,0.0,0.0,0.0,0.0,0.0,0.0,0.02261246710424179,0.6091856622454469,9.811782241075312,0.0,0.0,0.0,0.0,0.0,0.0,0.0,0.0,0.0
2025/05/20 13:08:26.66982388,1747739306,66845302,mA1/imu,0.2583761890329678,0.9660438484658529,0.00039859820413357886,0.0009321488915711284,0.0,0.0,0.0,0.0,0.0,0.0,0.0,0.0,0.0,-0.0009414423467018012,-7.941171426087653e-05,0.00032083858723578544,0.0,0.0,0.0,0.0,0.0,0.0,0.0,0.0,0.0,0.022163996570981642,0.01089049445118273,9.811567948232257,0.0,0.0,0.0,0.0,0.0,0.0,0.0,0.0,0.0
2025/05/20 13:08:26.118985035,1747739306,118721951,mA1/imu,0.2583829297208083,0.9660420322729285,0.0004225357520868376,0.0009354006735785069,0.0,0.0,0.0,0.0,0.0,0.0,0.0,0.0,0.0,-0.001237374179961802,0.00027161207675014125,0.00026370480594923245,0.0,0.0,0.0,0.0,0.0,0.0,0.0,0.0,0.0,0.019034108046346858,-0.22120620778737887,9.81182361093358,0.0,0.0,0.0,0.0,0.0,0.0,0.0,0.0,0.0
2025/05/20 13:08:26.168029320,1747739306,167851624,mA1/imu,0.25838933373805417,0.966040312376776,0.0004505911956054882,0.0009295380359602289,0.0,0.0,0.0,0.0,0.0,0.0,0.0,0.0,0.0,-0.0006124953427344648,0.0006723431170640178,0.00026822103136292535,0.0,0.0,0.0,0.0,0.0,0.0,0.0,0.0,0.0,0.019221075561114423,0.04015433467032379,9.81116805028927,0.0,0.0,0.0,0.0,0.0,0.0,0.0,0.0,0.0
2025/05/20 13:08:26.219426859,1747739306,219181469,mA1/imu,0.258395834903154,0.9660385704409874,0.00048504169003690497,0.0009152374525888747,0.0,0.0,0.0,0.0,0.0,0.0,0.0,0.0,0.0,-0.0012508200063869176,0.001062283155873821,0.0002724279561999618,0.0,0.0,0.0,0.0,0.0,0.0,0.0,0.0,0.0,0.018494616972411393,0.6288266226976608,9.811703457092102,0.0,0.0,0.0,0.0,0.0,0.0,0.0,0.0,0.0
2025/05/20 13:08:26.269059268,1747739306,268727193,mA1/imu,0.25840516100664657,0.9660360756020796,0.0005295656636062247,0.0008904833912811688,0.0,0.0,0.0,0.0,0.0,0.0,0.0,0.0,0.0,-0.0015852081338028222,0.0016100229705125913,0.0004556229039585456,0.0,0.0,0.0,0.0,0.0,0.0,0.0,0.0,0.0,0.017199730312087234,0.4482136902630682,9.811136640247838,0.0,0.0,0.0,0.0,0.0,0.0,0.0,0.0,0.0
2025/05/20 13:08:26.320429242,1747739306,320212703,mA1/imu,0.2584163271008949,0.966033097719099,0.0005682956349110853,0.0008561769654950981,0.0,0.0,0.0,0.0,0.0,0.0,0.0,0.0,0.0,-0.001458107346688883,0.0017902883228736884,0.0004702891254926771,0.0,0.0,0.0,0.0,0.0,0.0,0.0,0.0,0.0,0.0203909970075977,-0.02488540176997577,9.810296452612448,0.0,0.0,0.0,0.0,0.0,0.0,0.0,0.0,0.0
2025/05/20 13:08:26.369982047,1747739306,369717753,mA1/imu,0.2584278605404133,0.9660300240305211,0.0006039536662440382,0.0008178068626964989,0.0,0.0,0.0,0.0,0.0,0.0,0.0,0.0,0.0,-0.0011098521689428915,0.0018926971399001841,0.00048580519192356484,0.0,0.0,0.0,0.0,0.0,0.0,0.0,0.0,0.0,0.019678738580264928,0.16423601697357693,9.809875876349896,0.0,0.0,0.0,0.0,0.0,0.0,0.0,0.0,0.0
2025/05/20 13:08:26.421502795,1747739306,421332543,mA1/imu,0.25843982011840505,0.9660268336267677,0.0006406993028129476,0.000778199595893568,0.0,0.0,0.0,0.0,0.0,0.0,0.0,0.0,0.0,-0.0012383459887143808,0.0019767545339541255,0.0005129180976868485,0.0,0.0,0.0,0.0,0.0,0.0,0.0,0.0,0.0,0.005263293032811893,-0.03299050187389151,9.809962744966482,0.0,0.0,0.0,0.0,0.0,0.0,0.0,0.0,0.0
2025/05/20 13:08:26.460855277,1747739306,460630164,mA1/imu,0.25845332451646297,0.9660232357268935,0.000673011782199648,0.0007308469550466425,0.0,0.0,0.0,0.0,0.0,0.0,0.0,0.0,0.0,-0.0008975770644320018,0.0022499543502304655,0.0005943375567781989,0.0,0.0,0.0,0.0,0.0,0.0,0.0,0.0,0.0,0.010093196285487245,-0.040724257459775565,9.81006852476502,0.0,0.0,0.0,0.0,0.0,0.0,0.0,0.0,0.0
2025/05/20 13:08:26.512254553,1747739306,512046896,mA1/imu,0.258467911223622,0.9660193574157653,0.0006947659563529916,0.0006762144597634647,0.0,0.0,0.0,0.0,0.0,0.0,0.0,0.0,0.0,-0.00033146009870400596,0.0023754758735953824,0.0005840836532794599,0.0,0.0,0.0,0.0,0.0,0.0,0.0,0.0,0.0,0.01049821670564523,-0.005563775101121708,9.810110203568119,0.0,0.0,0.0,0.0,0.0,0.0,0.0,0.0,0.0
2025/05/20 13:08:26.561760444,1747739306,561553836,mA1/imu,0.25847829816805473,0.9660165990672058,0.0007142302545783189,0.0006241617732310739,0.0,0.0,0.0,0.0,0.0,0.0,0.0,0.0,0.0,-0.0002649273866433539,0.002048671720374692,0.0002808978722249542,0.0,0.0,0.0,0.0,0.0,0.0,0.0,0.0,0.0,0.022817724469733472,0.04894484499283327,9.810396860581841,0.0,0.0,0.0,0.0,0.0,0.0,0.0,0.0,0.0
2025/05/20 13:08:26.613305007,1747739306,613032155,mA1/imu,0.25847924374542597,0.9660163641528979,0.0007258859625803903,0.0005812324644833845,0.0,0.0,0.0,0.0,0.0,0.0,0.0,0.0,0.0,0.0008186788856648725,0.0015809956040682585,-0.00012755832536751348,0.0,0.0,0.0,0.0,0.0,0.0,0.0,0.0,0.0,0.021737676680684513,-0.5905622914790934,9.807305510196977,0.0,0.0,0.0,0.0,0.0,0.0,0.0,0.0,0.0
2025/05/20 13:08:26.662802899,1747739306,662552561,mA1/imu,0.25846974285983504,0.9660189229558912,0.0007291640336570742,0.0005484860279051673,0.0,0.0,0.0,0.0,0.0,0.0,0.0,0.0,0.0,0.0017229547920376309,0.0010967696316761756,-0.0005736513450140277,0.0,0.0,0.0,0.0,0.0,0.0,0.0,0.0,0.0,0.019825690917936883,-0.5394403561046649,9.806772217462171,0.0,0.0,0.0,0.0,0.0,0.0,0.0,0.0,0.0
2025/05/20 13:08:26.713624559,1747739306,713484865,mA1/imu,0.2584544009050503,0.9660230427446794,0.0007302826399712493,0.0005198330391160019,0.0,0.0,0.0,0.0,0.0,0.0,0.0,0.0,0.0,0.0017304869507995153,0.001114497879004017,-0.0006748032225121575,0.0,0.0,0.0,0.0,0.0,0.0,0.0,0.0,0.0,0.001886518861477813,-0.5414604146020254,9.807742801213283,0.0,0.0,0.0,0.0,0.0,0.0,0.0,0.0,0.0
2025/05/20 13:08:26.763491099,1747739306,763298728,mA1/imu,0.25843660933794027,0.9660278184067849,0.0007296464856141238,0.0004905447409690419,0.0,0.0,0.0,0.0,0.0,0.0,0.0,0.0,0.0,-0.00038179054805221756,0.0011415857845942623,-0.0007788488456177342,0.0,0.0,0.0,0.0,0.0,0.0,0.0,0.0,0.0,0.0008909329834666125,0.5563677939979584,9.808663639992934,0.0,0.0,0.0,0.0,0.0,0.0,0.0,0.0,0.0
2025/05/20 13:08:26.815657734,1747739306,815332798,mA1/imu,0.2584189277065621,0.9660325721892165,0.0007212242321640264,0.00045509129186067205,0.0,0.0,0.0,0.0,0.0,0.0,0.0,0.0,0.0,0.00034987130853972667,0.0013788111232530295,-0.0007006501515186421,0.0,0.0,0.0,0.0,0.0,0.0,0.0,0.0,0.0,-0.007746851974903762,-0.035114499066715196,9.809161454295754,0.0,0.0,0.0,0.0,0.0,0.0,0.0,0.0,0.0
2025/05/20 13:08:26.864576033,1747739306,864312740,mA1/imu,0.258401824527616,0.9660371699905164,0.0007154647905562811,0.00041398991123547935,0.0,0.0,0.0,0.0,0.0,0.0,0.0,0.0,0.0,0.0006393075694882185,0.0015991066372540996,-0.0007154466416667856,0.0,0.0,0.0,0.0,0.0,0.0,0.0,0.0,0.0,-0.007446052918812031,-0.6537678840073808,9.809292478125759,0.0,0.0,0.0,0.0,0.0,0.0,0.0,0.0,0.0
2025/05/20 13:08:26.915430068,1747739306,915276223,mA1/imu,0.2583855586405036,0.9660415584632622,0.0006910888515314978,0.00036442297613518537,0.0,0.0,0.0,0.0,0.0,0.0,0.0,0.0,0.0,0.0021179181496085086,0.001685526453012476,-0.000653445718776564,0.0,0.0,0.0,0.0,0.0,0.0,0.0,0.0,0.0,-0.005456478689983077,-0.5597085761963995,9.809025250766153,0.0,0.0,0.0,0.0,0.0,0.0,0.0,0.0,0.0
2025/05/20 13:08:26.968661579,1747739306,968334453,mA1/imu,0.258362835041375,0.9660476600132888,0.0006756483948437949,0.00032795042185032846,0.0,0.0,0.0,0.0,0.0,0.0,0.0,0.0,0.0,0.00015362736419213412,0.0010315689080611086,-0.0011020029610215084,0.0,0.0,0.0,0.0,0.0,0.0,0.0,0.0,0.0,-0.0012632358748826964,0.5594710638287534,9.809539468594688,0.0,0.0,0.0,0.0,0.0,0.0,0.0,0.0,0.0
2025/05/20 13:08:27.14969480,1747739307,13478348,mA1/imu,0.25833614369615604,0.9660548196583331,0.0006584716602014965,0.0002978089615049647,0.0,0.0,0.0,0.0,0.0,0.0,0.0,0.0,0.0,0.0006633775207010306,0.0009558316277842497,-0.0011066008265329342,0.0,0.0,0.0,0.0,0.0,0.0,0.0,0.0,0.0,-0.0060429823706208375,-0.1711286765162543,9.810866916798021,0.0,0.0,0.0,0.0,0.0,0.0,0.0,0.0,0.0
2025/05/20 13:08:27.66411720,1747739307,66236194,mA1/imu,0.25830949389761965,0.9660619720922901,0.0006323792324910557,0.0002674621791777457,0.0,0.0,0.0,0.0,0.0,0.0,0.0,0.0,0.0,0.0017482521707797372,0.0008515282676730208,-0.0011005640639432832,0.0,0.0,0.0,0.0,0.0,0.0,0.0,0.0,0.0,-0.006539803268422503,-0.1018211761046884,9.810786715218434,0.0,0.0,0.0,0.0,0.0,0.0,0.0,0.0,0.0
2025/05/20 13:08:27.117738363,1747739307,117536911,mA1/imu,0.25828303126808083,0.9660690648805434,0.0006153652330841296,0.00024282799232924052,0.0,0.0,0.0,0.0,0.0,0.0,0.0,0.0,0.0,0.0009225366909405267,0.0007140166144230464,-0.0010911819965978883,0.0,0.0,0.0,0.0,0.0,0.0,0.0,0.0,0.0,-0.006998371367296996,-0.19802368105383875,9.810110674802004,0.0,0.0,0.0,0.0,0.0,0.0,0.0,0.0,0.0
2025/05/20 13:08:27.171432716,1747739307,167826158,mA1/imu,0.2582484969417753,0.9660783171610698,0.0005882075414177135,0.00023010961991718016,0.0,0.0,0.0,0.0,0.0,0.0,0.0,0.0,0.0,0.0024438819563366845,-9.827778113017814e-05,-0.0016218794979938323,0.0,0.0,0.0,0.0,0.0,0.0,0.0,0.0,0.0,-0.00040784329714538443,-0.5305958998138632,9.810366938554804,0.0,0.0,0.0,0.0,0.0,0.0,0.0,0.0,0.0
2025/05/20 13:08:27.219073225,1747739307,218958375,mA1/imu,0.2582092052293807,0.9660888320124527,0.0005681659589456627,0.00022843613935049083,0.0,0.0,0.0,0.0,0.0,0.0,0.0,0.0,0.0,0.0013855530635700046,-0.0001839133375660224,-0.0016308335150969063,0.0,0.0,0.0,0.0,0.0,0.0,0.0,0.0,0.0,-0.009234965297709384,0.04608222482087583,9.811343240844216,0.0,0.0,0.0,0.0,0.0,0.0,0.0,0.0,0.0
2025/05/20 13:08:27.269579974,1747739307,269024681,mA1/imu,0.2581703901266486,0.9660992110592895,0.0005574736843874456,0.00023081499851308816,0.0,0.0,0.0,0.0,0.0,0.0,0.0,0.0,0.0,-2.5772123590727126e-05,-0.000205962872735381,-0.0015931052233304512,0.0,0.0,0.0,0.0,0.0,0.0,0.0,0.0,0.0,-0.010357775712908012,-0.03554597663458178,9.811203293757309,0.0,0.0,0.0,0.0,0.0,0.0,0.0,0.0,0.0
2025/05/20 13:08:27.320098370,1747739307,319948519,mA1/imu,0.25813180129424707,0.9661095234498344,0.000553056059045767,0.00023662019548291793,0.0,0.0,0.0,0.0,0.0,0.0,0.0,0.0,0.0,-3.263234847427243e-05,-0.0003184565613437143,-0.0016013801867645152,0.0,0.0,0.0,0.0,0.0,0.0,0.0,0.0,0.0,-0.007507660376946575,-0.6528885544299939,9.81191613547917,0.0,0.0,0.0,0.0,0.0,0.0,0.0,0.0,0.0
2025/05/20 13:08:27.369925462,1747739307,369775976,mA1/imu,0.2580959516459521,0.9661191123397384,0.0005336308514972181,0.0002361227661039612,0.0,0.0,0.0,0.0,0.0,0.0,0.0,0.0,0.0,0.0002863133188200272,-9.983812935631654e-05,-0.0014141133546394782,0.0,0.0,0.0,0.0,0.0,0.0,0.0,0.0,0.0,-0.011263673961825031,0.015067377507255085,9.809020674928993,0.0,0.0,0.0,0.0,0.0,0.0,0.0,0.0,0.0
2025/05/20 13:08:27.420953599,1747739307,420819575,mA1/imu,0.25806183502412655,0.9661282251878646,0.0005326001758197052,0.00024111486873369924,0.0,0.0,0.0,0.0,0.0,0.0,0.0,0.0,0.0,9.914777351128427e-06,-0.000337849788444031,-0.0014159991977279933,0.0,0.0,0.0,0.0,0.0,0.0,0.0,0.0,0.0,0.008278477842635478,0.6415611250984338,9.811558886130193,0.0,0.0,0.0,0.0,0.0,0.0,0.0,0.0,0.0
2025/05/20 13:08:27.460818087,1747739307,460555918,mA1/imu,0.25802419681488625,0.9661382710414586,0.0005322805018868311,0.0002678890094235292,0.0,0.0,0.0,0.0,0.0,0.0,0.0,0.0,0.0,0.0005697379891685199,-0.0015168252850535683,-0.0016675285379821932,0.0,0.0,0.0,0.0,0.0,0.0,0.0,0.0,0.0,0.021954187372230524,0.06511545215162988,9.812174769452023,0.0,0.0,0.0,0.0,0.0,0.0,0.0,0.0,0.0
2025/05/20 13:08:27.511806053,1747739307,511580606,mA1/imu,0.25798415607726105,0.9661489494803025,0.0005305658302936499,0.00031801118047863365,0.0,0.0,0.0,0.0,0.0,0.0,0.0,0.0,0.0,0.00027627320664020284,-0.002183358324178881,-0.0016195128785881144,0.0,0.0,0.0,0.0,0.0,0.0,0.0,0.0,0.0,0.007305355139954749,0.05504320835974812,9.811617978316084,0.0,0.0,0.0,0.0,0.0,0.0,0.0,0.0,0.0
2025/05/20 13:08:27.561759284,1747739307,561583226,mA1/imu,0.25795478110924286,0.9661567735526334,0.0005342969671759636,0.00036653512645994275,0.0,0.0,0.0,0.0,0.0,0.0,0.0,0.0,0.0,0.0004995310264922006,-0.0014544629992473339,-0.000825725950365545,0.0,0.0,0.0,0.0,0.0,0.0,0.0,0.0,0.0,-0.03568142540223758,-0.5461474198753131,9.809497614653361,0.0,0.0,0.0,0.0,0.0,0.0,0.0,0.0,0.0
2025/05/20 13:08:27.612871214,1747739307,612646564,mA1/imu,0.2579486086048424,0.9661584063863642,0.000545286527916483,0.0003895515233681064,0.0,0.0,0.0,0.0,0.0,0.0,0.0,0.0,0.0,5.329671280218902e-06,-0.0006381165664348924,-6.293097941517137e-06,0.0,0.0,0.0,0.0,0.0,0.0,0.0,0.0,0.0,0.014770095781917182,-0.5838380945409442,9.810214858568132,0.0,0.0,0.0,0.0,0.0,0.0,0.0,0.0,0.0
2025/05/20 13:08:27.662587517,1747739307,662464802,mA1/imu,0.25795254878127005,0.9661573401424944,0.0005542622763181232,0.0004116544129171791,0.0,0.0,0.0,0.0,0.0,0.0,0.0,0.0,0.0,-0.0008312551284832898,-0.0008736222338414251,0.00025694440116055063,0.0,0.0,0.0,0.0,0.0,0.0,0.0,0.0,0.0,0.012839278868238643,-0.011672916275828532,9.809481538466777,0.0,0.0,0.0,0.0,0.0,0.0,0.0,0.0,0.0
2025/05/20 13:08:27.715163690,1747739307,713532480,mA1/imu,0.25795818587786923,0.9661558130458587,0.0005656792889666747,0.00044638910846078104,0.0,0.0,0.0,0.0,0.0,0.0,0.0,0.0,0.0,-0.0023128937192286574,-0.0014320548938566574,0.00022893221303060967,0.0,0.0,0.0,0.0,0.0,0.0,0.0,0.0,0.0,0.016268221983145675,0.29591204890055905,9.810180534923274,0.0,0.0,0.0,0.0,0.0,0.0,0.0,0.0,0.0
2025/05/20 13:08:27.763685401,1747739307,763390883,mA1/imu,0.2579645145394469,0.9661541009954417,0.0005674783773064976,0.000490241173962681,0.0,0.0,0.0,0.0,0.0,0.0,0.0,0.0,0.0,-0.002477972324472663,-0.0018082615411024146,0.000283940576995275,0.0,0.0,0.0,0.0,0.0,0.0,0.0,0.0,0.0,0.014013271921378908,0.5070862729165782,9.810296918410167,0.0,0.0,0.0,0.0,0.0,0.0,0.0,0.0,0.0
2025/05/20 13:08:27.815256369,1747739307,814787140,mA1/imu,0.2579714590568317,0.9661522168674236,0.0005691107752257042,0.0005443043061331358,0.0,0.0,0.0,0.0,0.0,0.0,0.0,0.0,0.0,-0.001273841420088148,-0.002216279332426788,0.000287258905190756,0.0,0.0,0.0,0.0,0.0,0.0,0.0,0.0,0.0,0.016566820484587002,-0.041225752478390366,9.808424021214726,0.0,0.0,0.0,0.0,0.0,0.0,0.0,0.0,0.0
2025/05/20 13:08:27.864465103,1747739307,864290451,mA1/imu,0.2579776009205038,0.9661505446665075,0.0005623023278474616,0.0006052107104891186,0.0,0.0,0.0,0.0,0.0,0.0,0.0,0.0,0.0,-0.0004348791703207606,-0.0025489981490621548,0.0002231445457163015,0.0,0.0,0.0,0.0,0.0,0.0,0.0,0.0,0.0,0.018603082226218686,0.13641154122890123,9.808805507111115,0.0,0.0,0.0,0.0,0.0,0.0,0.0,0.0,0.0
2025/05/20 13:08:27.915464175,1747739307,915294214,mA1/imu,0.2579823398121182,0.966149229050144,0.0005684410499331593,0.000675592813655625,0.0,0.0,0.0,0.0,0.0,0.0,0.0,0.0,0.0,-0.0022886663923111592,-0.002695710923730442,0.00018867738961556103,0.0,0.0,0.0,0.0,0.0,0.0,0.0,0.0,0.0,0.0163070350118484,0.4559483235199598,9.809427490026534,0.0,0.0,0.0,0.0,0.0,0.0,0.0,0.0,0.0
2025/05/20 13:08:27.965532162,1747739307,965251183,mA1/imu,0.25798973586971474,0.9661472130566271,0.0005583053777221744,0.000739718792769199,0.0,0.0,0.0,0.0,0.0,0.0,0.0,0.0,0.0,-0.0010436614058484729,-0.0024882597789630512,0.0003804904276225417,0.0,0.0,0.0,0.0,0.0,0.0,0.0,0.0,0.0,0.013262766344892648,-0.037009285724790314,9.809341328471831,0.0,0.0,0.0,0.0,0.0,0.0,0.0,0.0,0.0
2025/05/20 13:08:28.17228510,1747739308,16967660,mA1/imu,0.25799921771773837,0.9661446408449134,0.000545239681526705,0.0007995857540116246,0.0,0.0,0.0,0.0,0.0,0.0,0.0,0.0,0.0,0.0007371003022887826,-0.002394518219364851,0.00039739314267110877,0.0,0.0,0.0,0.0,0.0,0.0,0.0,0.0,0.0,0.016532176765476324,0.07588786734403542,9.809565452813509,0.0,0.0,0.0,0.0,0.0,0.0,0.0,0.0,0.0
2025/05/20 13:08:28.66370411,1747739308,66157579,mA1/imu,0.25800834066838263,0.9661421584502669,0.0005385963710604956,0.0008577438755889428,0.0,0.0,0.0,0.0,0.0,0.0,0.0,0.0,0.0,0.0006077265806306903,-0.0022631708827367024,0.00035636545386786883,0.0,0.0,0.0,0.0,0.0,0.0,0.0,0.0,0.0,0.01936622353793129,-0.21729572264930344,9.809148673572963,0.0,0.0,0.0,0.0,0.0,0.0,0.0,0.0,0.0
