time,header_stamp_secs,header_stamp_nsecs,header_frame_id,orientation_x,orientation_y,orientation_z,orientation_w,orientation_covariance_0,orientation_covariance_1,orientation_covariance_2,orientation_covariance_3,orientation_covariance_4,orientation_covariance_5,orientation_covariance_6,orientation_covariance_7,orientation_covariance_8,angular_velocity_x,angular_velocity_y,angular_velocity_z,angular_velocity_covariance_0,angular_velocity_covariance_1,angular_velocity_covariance_2,angular_velocity_covariance_3,angular_velocity_covariance_4,angular_velocity_covariance_5,angular_velocity_covariance_6,angular_velocity_covariance_7,angular_velocity_covariance_8,linear_acceleration_x,linear_acceleration_y,linear_acceleration_z,linear_acceleration_covariance_0,linear_acceleration_covariance_1,linear_acceleration_covariance_2,linear_acceleration_covariance_3,linear_acceleration_covariance_4,linear_acceleration_covariance_5,linear_acceleration_covariance_6,linear_acceleration_covariance_7,linear_acceleration_covariance_8
2025/04/09 11:15:45.331728310,1744190145,207657067,mA1/imu,0.7085862685729527,0.7056235021169788,0.00021032778864524238,0.0009638528159573024,0.0,0.0,0.0,0.0,0.0,0.0,0.0,0.0,0.0,-0.0012398591756940414,0.0012558021944219263,0.00044749835322581026,0.0,0.0,0.0,0.0,0.0,0.0,0.0,0.0,0.0,0.010385928804662868,-0.05954470618352757,9.8095174303973,0.0,0.0,0.0,0.0,0.0,0.0,0.0,0.0,0.0
2025/04/09 11:15:45.331877027,1744190145,246219381,mA1/imu,0.7085940945511394,0.7056156534102263,0.0002431706353517228,0.0009485239862678998,0.0,0.0,0.0,0.0,0.0,0.0,0.0,0.0,0.0,-0.001267644168919409,0.0014322056442121138,0.0004429205470113078,0.0,0.0,0.0,0.0,0.0,0.0,0.0,0.0,0.0,0.009833065569572114,-0.06372308716280473,9.809820640725603,0.0,0.0,0.0,0.0,0.0,0.0,0.0,0.0,0.0
2025/04/09 11:15:45.331948695,1744190145,300447995,mA1/imu,0.7086018415304319,0.7056078933051645,0.0002723708121144381,0.0009256885376899284,0.0,0.0,0.0,0.0,0.0,0.0,0.0,0.0,0.0,-0.001065956815684415,0.001498777355882835,0.0004381775326815237,0.0,0.0,0.0,0.0,0.0,0.0,0.0,0.0,0.0,0.010712020236005452,0.5714331668487572,9.810036869012706,0.0,0.0,0.0,0.0,0.0,0.0,0.0,0.0,0.0
2025/04/09 11:15:45.352423111,1744190145,351888620,mA1/imu,0.7086095197212787,0.7056001919167953,0.0003066929896122185,0.0009075608908306481,0.0,0.0,0.0,0.0,0.0,0.0,0.0,0.0,0.0,-0.0008877345245392512,0.0014754993701744518,0.00043529835203543344,0.0,0.0,0.0,0.0,0.0,0.0,0.0,0.0,0.0,0.010666872784878349,0.5768553959952541,9.810468458369915,0.0,0.0,0.0,0.0,0.0,0.0,0.0,0.0,0.0
2025/04/09 11:15:45.403192017,1744190145,402980879,mA1/imu,0.7086167753973474,0.7055929154068242,0.00033644163290679136,0.0008889095516554282,0.0,0.0,0.0,0.0,0.0,0.0,0.0,0.0,0.0,0.0010308666776079778,0.001265916586884845,0.00038161227359168287,0.0,0.0,0.0,0.0,0.0,0.0,0.0,0.0,0.0,0.014236140168787135,-0.5579518562199339,9.81019888465277,0.0,0.0,0.0,0.0,0.0,0.0,0.0,0.0,0.0
2025/04/09 11:15:45.452984756,1744190145,452767555,mA1/imu,0.7086226572812659,0.705587016292559,0.0003597577883043646,0.0008732704823326419,0.0,0.0,0.0,0.0,0.0,0.0,0.0,0.0,0.0,0.0012262919267196032,0.0009475691512248194,0.0003008220673032302,0.0,0.0,0.0,0.0,0.0,0.0,0.0,0.0,0.0,0.016659043967766945,-0.5576690532642467,9.808455726880368,0.0,0.0,0.0,0.0,0.0,0.0,0.0,0.0,0.0
2025/04/09 11:15:45.504747613,1744190145,504539263,mA1/imu,0.7086274169952209,0.7055822424880384,0.0003759855718590022,0.0008611637953501758,0.0,0.0,0.0,0.0,0.0,0.0,0.0,0.0,0.0,-0.0002688915250986165,0.0007033644010974669,0.0002678243621892942,0.0,0.0,0.0,0.0,0.0,0.0,0.0,0.0,0.0,0.011398399163775306,-0.03849681205485357,9.809091914032411,0.0,0.0,0.0,0.0,0.0,0.0,0.0,0.0,0.0
2025/04/09 11:15:45.553975157,1744190145,553690192,mA1/imu,0.7086321624524369,0.705577483988221,0.0003853235605627796,0.0008508540348412999,0.0,0.0,0.0,0.0,0.0,0.0,0.0,0.0,0.0,-0.0017848195375124722,0.00046868279146604927,0.000269604952196984,0.0,0.0,0.0,0.0,0.0,0.0,0.0,0.0,0.0,0.010572470947203495,0.479768606917722,9.809875725831468,0.0,0.0,0.0,0.0,0.0,0.0,0.0,0.0,0.0
2025/04/09 11:15:45.599024289,1744190145,597340847,mA1/imu,0.7086369186330044,0.7055727260647269,0.0003815074402639426,0.0008368010417653215,0.0,0.0,0.0,0.0,0.0,0.0,0.0,0.0,0.0,-0.00014962150492063084,0.00018914936023585517,0.00026857628102885483,0.0,0.0,0.0,0.0,0.0,0.0,0.0,0.0,0.0,0.01097522190641399,-0.04845217559307843,9.810680323433564,0.0,0.0,0.0,0.0,0.0,0.0,0.0,0.0,0.0
2025/04/09 11:15:45.647357431,1744190145,647146930,mA1/imu,0.7086416537804642,0.7055679895975725,0.0003707811483314963,0.0008252901723084538,0.0,0.0,0.0,0.0,0.0,0.0,0.0,0.0,0.0,0.0014548092298477084,-9.020480956280796e-05,0.00026724318677301634,0.0,0.0,0.0,0.0,0.0,0.0,0.0,0.0,0.0,0.010965886570721794,0.05417418948446984,9.811277620992191,0.0,0.0,0.0,0.0,0.0,0.0,0.0,0.0,0.0
2025/04/09 11:15:45.699393093,1744190145,699210436,mA1/imu,0.7086463688379212,0.7055632628668744,0.0003595980757995209,0.0008226267090746418,0.0,0.0,0.0,0.0,0.0,0.0,0.0,0.0,0.0,0.0015997177961542112,-0.00034963937616471895,0.00026648366655547935,0.0,0.0,0.0,0.0,0.0,0.0,0.0,0.0,0.0,0.009664694587298715,0.06329005528108113,9.809628958132878,0.0,0.0,0.0,0.0,0.0,0.0,0.0,0.0,0.0
2025/04/09 11:15:45.749448723,1744190145,749304309,mA1/imu,0.7086510632864154,0.7055585460554755,0.00034876473128526704,0.0008288270499080692,0.0,0.0,0.0,0.0,0.0,0.0,0.0,0.0,0.0,0.00027363952234832155,-0.0005767826607673146,0.0002653036362254051,0.0,0.0,0.0,0.0,0.0,0.0,0.0,0.0,0.0,0.01048951371553261,-0.034847164705276344,9.808446283748994,0.0,0.0,0.0,0.0,0.0,0.0,0.0,0.0,0.0
2025/04/09 11:15:45.802899575,1744190145,802669861,mA1/imu,0.7086557521025012,0.7055538422734262,0.000328035022417235,0.0008325012116679267,0.0,0.0,0.0,0.0,0.0,0.0,0.0,0.0,0.0,0.00039355185629198677,-0.0007687789512971527,0.00026482009879457623,0.0,0.0,0.0,0.0,0.0,0.0,0.0,0.0,0.0,0.010475307895581955,-0.6606952206151998,9.809774696017906,0.0,0.0,0.0,0.0,0.0,0.0,0.0,0.0,0.0
2025/04/09 11:15:45.852727295,1744190145,852535521,mA1/imu,0.7086604417952298,0.7055491437389959,0.0002987168652658425,0.0008335298398014716,0.0,0.0,0.0,0.0,0.0,0.0,0.0,0.0,0.0,0.00020579070051298342,-0.0009094241273470292,0.00026424291377554143,0.0,0.0,0.0,0.0,0.0,0.0,0.0,0.0,0.0,0.009978290515972717,-0.043675704340516416,9.8107406027008,0.0,0.0,0.0,0.0,0.0,0.0,0.0,0.0,0.0
2025/04/09 11:15:45.903875293,1744190145,903649908,mA1/imu,0.7086651210357704,0.7055444530425475,0.00026740100248090145,0.0008363641271376115,0.0,0.0,0.0,0.0,0.0,0.0,0.0,0.0,0.0,-1.817244535419497e-05,-0.0009901568078300451,0.0002637918656548255,0.0,0.0,0.0,0.0,0.0,0.0,0.0,0.0,0.0,0.009198726828678573,0.5734283607002654,9.809905407721772,0.0,0.0,0.0,0.0,0.0,0.0,0.0,0.0,0.0
2025/04/09 11:15:45.953706490,1744190145,953494899,mA1/imu,0.7086697949245275,0.7055397570873074,0.00024072435181226795,0.0008455664361853324,0.0,0.0,0.0,0.0,0.0,0.0,0.0,0.0,0.0,-1.1854924972619429e-05,-0.0010104608167162748,0.00026455951726833264,0.0,0.0,0.0,0.0,0.0,0.0,0.0,0.0,0.0,0.008515301430362774,0.5776941477055013,9.810340087517497,0.0,0.0,0.0,0.0,0.0,0.0,0.0,0.0,0.0
2025/04/09 11:15:46.4713890,1744190146,4507356,mA1/imu,0.708674515081437,0.7055350127635582,0.00021512631781089875,0.0008550786415225753,0.0,0.0,0.0,0.0,0.0,0.0,0.0,0.0,0.0,0.0017141871093404543,-0.0009750035093112014,0.00026825456469887723,0.0,0.0,0.0,0.0,0.0,0.0,0.0,0.0,0.0,0.008442371690947428,-0.5585959957866234,9.810219492975538,0.0,0.0,0.0,0.0,0.0,0.0,0.0,0.0,0.0
2025/04/09 11:15:46.54581627,1744190146,54393435,mA1/imu,0.7086792995787392,0.7055302009197213,0.00019305668051711427,0.000865255964074456,0.0,0.0,0.0,0.0,0.0,0.0,0.0,0.0,0.0,0.0016874370164576505,-0.0008848552543004715,0.00027234515297227895,0.0,0.0,0.0,0.0,0.0,0.0,0.0,0.0,0.0,0.00900018104088572,-0.5584061732784791,9.809158229837342,0.0,0.0,0.0,0.0,0.0,0.0,0.0,0.0,0.0
2025/04/09 11:15:46.105632356,1744190146,105452835,mA1/imu,0.7086841468270504,0.7055253240017532,0.0001758936159517636,0.0008753797305958153,0.0,0.0,0.0,0.0,0.0,0.0,0.0,0.0,0.0,-5.2414007577602794e-05,-0.0007088062011770555,0.0002758006087251509,0.0,0.0,0.0,0.0,0.0,0.0,0.0,0.0,0.0,0.008497593841458161,-0.03840442732489813,9.809278985482154,0.0,0.0,0.0,0.0,0.0,0.0,0.0,0.0,0.0
2025/04/09 11:15:46.155809541,1744190146,155376522,mA1/imu,0.7086890532860854,0.7055203876604861,0.00016361148166526738,0.0008840696537315461,0.0,0.0,0.0,0.0,0.0,0.0,0.0,0.0,0.0,-0.0018098893940429674,-0.0004954119260676275,0.00027862140283637304,0.0,0.0,0.0,0.0,0.0,0.0,0.0,0.0,0.0,0.007510494979507443,0.4797288539621682,9.810014271208487,0.0,0.0,0.0,0.0,0.0,0.0,0.0,0.0,0.0
2025/04/09 11:15:46.206544718,1744190146,206333395,mA1/imu,0.7086939744160146,0.7055154464117518,0.00015104577997669124,0.0008846954461388873,0.0,0.0,0.0,0.0,0.0,0.0,0.0,0.0,0.0,-0.0004126648592843494,-0.0002703977604864297,0.0002781859402655062,0.0,0.0,0.0,0.0,0.0,0.0,0.0,0.0,0.0,0.008071825597018032,-0.048346252330668124,9.810900636867114,0.0,0.0,0.0,0.0,0.0,0.0,0.0,0.0,0.0
2025/04/09 11:15:46.246291256,1744190146,246138823,mA1/imu,0.7086988818702339,0.7055105203231091,0.00014460247969737549,0.0008829719243245845,0.0,0.0,0.0,0.0,0.0,0.0,0.0,0.0,0.0,0.0009689557290925434,-4.266657130953983e-05,0.0002778609271687215,0.0,0.0,0.0,0.0,0.0,0.0,0.0,0.0,0.0,0.008392890873922193,0.05421536336975458,9.811497698175833,0.0,0.0,0.0,0.0,0.0,0.0,0.0,0.0,0.0
2025/04/09 11:15:46.297480706,1744190146,297257363,mA1/imu,0.7087037698793651,0.7055056066777312,0.00015041779620901432,0.0008848048083101482,0.0,0.0,0.0,0.0,0.0,0.0,0.0,0.0,0.0,0.000915352981820522,0.0002059971221331054,0.000277241482350066,0.0,0.0,0.0,0.0,0.0,0.0,0.0,0.0,0.0,0.007096040202217782,0.06342027516779776,9.809860933803662,0.0,0.0,0.0,0.0,0.0,0.0,0.0,0.0,0.0
2025/04/09 11:15:46.347559145,1744190146,347068531,mA1/imu,0.708708635497556,0.7055007081091427,0.00016823013834237527,0.0008902400300905748,0.0,0.0,0.0,0.0,0.0,0.0,0.0,0.0,0.0,-0.0005765215262790751,0.0004324658691743758,0.00027659445470747275,0.0,0.0,0.0,0.0,0.0,0.0,0.0,0.0,0.0,0.00846563775030843,-0.0347080484023452,9.808647299008095,0.0,0.0,0.0,0.0,0.0,0.0,0.0,0.0,0.0
2025/04/09 11:15:46.398232766,1744190146,398036966,mA1/imu,0.7087135252186727,0.7054957938951045,0.00018588374344800056,0.0008884906706026106,0.0,0.0,0.0,0.0,0.0,0.0,0.0,0.0,0.0,-0.0005829915303719278,0.000620110411703638,0.00027870284266588724,0.0,0.0,0.0,0.0,0.0,0.0,0.0,0.0,0.0,0.00900549190456852,-0.6606537595918722,9.809885326719805,0.0,0.0,0.0,0.0,0.0,0.0,0.0,0.0,0.0
2025/04/09 11:15:46.448050035,1744190146,447897125,mA1/imu,0.7087184518024479,0.7054908508306482,0.00020262352606081207,0.000880007213611003,0.0,0.0,0.0,0.0,0.0,0.0,0.0,0.0,0.0,-0.000853820718706108,0.0007720718060808606,0.00028050273114104204,0.0,0.0,0.0,0.0,0.0,0.0,0.0,0.0,0.0,0.009030500890224986,-0.043588036785662976,9.810833316685834,0.0,0.0,0.0,0.0,0.0,0.0,0.0,0.0,0.0
2025/04/09 11:15:46.499097261,1744190146,498921061,mA1/imu,0.7087217568978909,0.7054875345503611,0.0002196733691089579,0.0008727182999109778,0.0,0.0,0.0,0.0,0.0,0.0,0.0,0.0,0.0,-0.0011002203784732125,0.0005247438074094593,5.062187005808215e-05,0.0,0.0,0.0,0.0,0.0,0.0,0.0,0.0,0.0,0.02696596838890292,0.5742578020514296,9.810279065803261,0.0,0.0,0.0,0.0,0.0,0.0,0.0,0.0,0.0
2025/04/09 11:15:46.548941683,1744190146,548750953,mA1/imu,0.7087184210960261,0.705490871630023,0.00023314975690800224,0.0008805038654322145,0.0,0.0,0.0,0.0,0.0,0.0,0.0,0.0,0.0,-0.0010971404772879252,-4.7600035436061114e-05,-0.00034902911089733325,0.0,0.0,0.0,0.0,0.0,0.0,0.0,0.0,0.0,0.02674362133817506,0.5786348744595452,9.811006525298263,0.0,0.0,0.0,0.0,0.0,0.0,0.0,0.0,0.0
2025/04/09 11:15:46.600636761,1744190146,600421318,mA1/imu,0.7087115932323106,0.7054977123158019,0.00024257820998671413,0.0008925755440755096,0.0,0.0,0.0,0.0,0.0,0.0,0.0,0.0,0.0,0.0006718530984033001,7.081064318629915e-05,-0.00031116062349399265,0.0,0.0,0.0,0.0,0.0,0.0,0.0,0.0,0.0,0.008028986733430131,-0.5582296709481522,9.810075070451402,0.0,0.0,0.0,0.0,0.0,0.0,0.0,0.0,0.0
2025/04/09 11:15:46.649909543,1744190146,649789571,mA1/imu,0.7087061488393483,0.7055031653139255,0.00025653733036074466,0.0009013977643463696,0.0,0.0,0.0,0.0,0.0,0.0,0.0,0.0,0.0,0.0007572300281774861,0.0001775859756557411,-0.0003054136070118367,0.0,0.0,0.0,0.0,0.0,0.0,0.0,0.0,0.0,0.008187023569660407,-0.5581352506350927,9.809018977351506,0.0,0.0,0.0,0.0,0.0,0.0,0.0,0.0,0.0
2025/04/09 11:15:46.701911330,1744190146,701705446,mA1/imu,0.7087008328204281,0.7055084908473437,0.00027254323961660345,0.0009080870650191895,0.0,0.0,0.0,0.0,0.0,0.0,0.0,0.0,0.0,-0.0008258817229080694,0.00030038964094608334,-0.00029734712971390997,0.0,0.0,0.0,0.0,0.0,0.0,0.0,0.0,0.0,0.008315063700697808,-0.03780738408166913,9.809202190946117,0.0,0.0,0.0,0.0,0.0,0.0,0.0,0.0,0.0
2025/04/09 11:15:46.750883366,1744190146,750721263,mA1/imu,0.7086956575581492,0.7055136782591267,0.00028874423078663786,0.000911797274106284,0.0,0.0,0.0,0.0,0.0,0.0,0.0,0.0,0.0,-0.0023946834126877697,0.0004064404167516081,-0.0002892512231437085,0.0,0.0,0.0,0.0,0.0,0.0,0.0,0.0,0.0,0.007238636267849372,0.48040533708499233,9.809967737201461,0.0,0.0,0.0,0.0,0.0,0.0,0.0,0.0,0.0
2025/04/09 11:15:46.802380115,1744190146,802147581,mA1/imu,0.7086900362494856,0.7055193282773589,0.0002989302036577001,0.0009058634005591702,0.0,0.0,0.0,0.0,0.0,0.0,0.0,0.0,0.0,-0.0007825551883861902,0.0005119587033639052,-0.00035472841538744033,0.0,0.0,0.0,0.0,0.0,0.0,0.0,0.0,0.0,0.008087314849755257,-0.04879064472144657,9.811053947836932,0.0,0.0,0.0,0.0,0.0,0.0,0.0,0.0,0.0
2025/04/09 11:15:46.851862581,1744190146,851679857,mA1/imu,0.7086837033005292,0.7055256972682858,0.00030829931073168165,0.0008967284325054508,0.0,0.0,0.0,0.0,0.0,0.0,0.0,0.0,0.0,0.0008248408891241573,0.0005292003527748675,-0.00035596314244971304,0.0,0.0,0.0,0.0,0.0,0.0,0.0,0.0,0.0,0.00862308701826031,0.05500411134893131,9.81145205316627,0.0,0.0,0.0,0.0,0.0,0.0,0.0,0.0,0.0
2025/04/09 11:15:46.903273025,1744190146,902720083,mA1/imu,0.7086828613732461,0.7055265489355589,0.0003302470375803731,0.0008841265763887033,0.0,0.0,0.0,0.0,0.0,0.0,0.0,0.0,0.0,0.0009250399822370455,0.0016159233336538023,0.000390239516851256,0.0,0.0,0.0,0.0,0.0,0.0,0.0,0.0,0.0,-0.04883347407674434,0.06352150553368748,9.811547550473174,0.0,0.0,0.0,0.0,0.0,0.0,0.0,0.0,0.0
2025/04/09 11:15:46.954062151,1744190146,953829470,mA1/imu,0.7086997332569787,0.7055096171415209,0.0003834050690739942,0.0008492366366137596,0.0,0.0,0.0,0.0,0.0,0.0,0.0,0.0,0.0,-0.0003575313303991867,0.002793084043082832,0.0012019061097931093,0.0,0.0,0.0,0.0,0.0,0.0,0.0,0.0,0.0,-0.010802384632057637,-0.03253012230743381,9.806843229842439,0.0,0.0,0.0,0.0,0.0,0.0,0.0,0.0,0.0
2025/04/09 11:15:47.5093855,1744190147,4817986,mA1/imu,0.708724607376674,0.7054846578522753,0.000437587599552836,0.0007980920561357415,0.0,0.0,0.0,0.0,0.0,0.0,0.0,0.0,0.0,-0.00012913814081733785,0.003051431453324516,0.0015527458380934325,0.0,0.0,0.0,0.0,0.0,0.0,0.0,0.0,0.0,-0.0064473492118744865,-0.660564487337266,9.808579041032086,0.0,0.0,0.0,0.0,0.0,0.0,0.0,0.0,0.0
2025/04/09 11:15:47.54957350,1744190147,54718674,mA1/imu,0.7087530264070809,0.7054561393039284,0.00048208003143704044,0.0007420754972861988,0.0,0.0,0.0,0.0,0.0,0.0,0.0,0.0,0.0,-0.00020905028332800365,0.0026107645592565935,0.0015972333144988495,0.0,0.0,0.0,0.0,0.0,0.0,0.0,0.0,0.0,0.012550191564346294,-0.04266454358881042,9.811212202966965,0.0,0.0,0.0,0.0,0.0,0.0,0.0,0.0,0.0
2025/04/09 11:15:47.106023350,1744190147,105812241,mA1/imu,0.7087807773719526,0.7054282839032766,0.0005128574824300171,0.0006948917120089003,0.0,0.0,0.0,0.0,0.0,0.0,0.0,0.0,0.0,-0.00029489422762183395,0.0019255162673837722,0.0015592277551558919,0.0,0.0,0.0,0.0,0.0,0.0,0.0,0.0,0.0,0.012626829928990047,0.574408397650432,9.810414780430301,0.0,0.0,0.0,0.0,0.0,0.0,0.0,0.0,0.0
2025/04/09 11:15:47.155932652,1744190147,155622096,mA1/imu,0.7088078353484643,0.7054011110256095,0.0005334114885454785,0.0006637655036630511,0.0,0.0,0.0,0.0,0.0,0.0,0.0,0.0,0.0,-0.00014060924721528485,0.0011532788612412062,0.0015189112565812913,0.0,0.0,0.0,0.0,0.0,0.0,0.0,0.0,0.0,0.012226049705775417,0.5783987095838338,9.810844370563787,0.0,0.0,0.0,0.0,0.0,0.0,0.0,0.0,0.0
2025/04/09 11:15:47.198517013,1744190147,196764992,mA1/imu,0.7088342105832921,0.7053746216450055,0.0005378128228496815,0.0006448281120911975,0.0,0.0,0.0,0.0,0.0,0.0,0.0,0.0,0.0,0.0017326797601429442,0.00032764244801189874,0.0014808761493843255,0.0,0.0,0.0,0.0,0.0,0.0,0.0,0.0,0.0,0.011843647321133384,-0.5579483347867525,9.810790996946247,0.0,0.0,0.0,0.0,0.0,0.0,0.0,0.0,0.0
2025/04/09 11:15:47.247939429,1744190147,247499471,mA1/imu,0.7088599438403806,0.705348773864374,0.0005273564359239256,0.000639626317311843,0.0,0.0,0.0,0.0,0.0,0.0,0.0,0.0,0.0,0.0018512289833352688,-0.0004878667148365742,0.0014443374444617536,0.0,0.0,0.0,0.0,0.0,0.0,0.0,0.0,0.0,0.012330338659223334,-0.5576619736241746,9.80967839889716,0.0,0.0,0.0,0.0,0.0,0.0,0.0,0.0,0.0
2025/04/09 11:15:47.298685034,1744190147,298501076,mA1/imu,0.7088851096361922,0.7053234903576672,0.0005042398689366357,0.0006488666396510972,0.0,0.0,0.0,0.0,0.0,0.0,0.0,0.0,0.0,0.0002106860316748743,-0.0012103786778228766,0.001414232152994191,0.0,0.0,0.0,0.0,0.0,0.0,0.0,0.0,0.0,0.010943190524047942,-0.04061396176038626,9.809579501270791,0.0,0.0,0.0,0.0,0.0,0.0,0.0,0.0,0.0
2025/04/09 11:15:47.348627280,1744190147,348428894,mA1/imu,0.7089097800005157,0.7052987007282977,0.0004677668871581755,0.0006691522507716488,0.0,0.0,0.0,0.0,0.0,0.0,0.0,0.0,0.0,-0.0014003266121795574,-0.001843331480347353,0.001386604437781228,0.0,0.0,0.0,0.0,0.0,0.0,0.0,0.0,0.0,0.0100138795620482,0.4793429488848724,9.810284958656174,0.0,0.0,0.0,0.0,0.0,0.0,0.0,0.0,0.0
2025/04/09 11:15:47.400238044,1744190147,400012661,mA1/imu,0.708933636556031,0.705274731190321,0.00041418990701799037,0.0006935060077782744,0.0,0.0,0.0,0.0,0.0,0.0,0.0,0.0,0.0,0.00011973031098101387,-0.0024275826475524307,0.001312983703093718,0.0,0.0,0.0,0.0,0.0,0.0,0.0,0.0,0.0,0.012154171716500139,-0.04759023520657427,9.811105047450743,0.0,0.0,0.0,0.0,0.0,0.0,0.0,0.0,0.0
2025/04/09 11:15:47.449985061,1744190147,449804529,mA1/imu,0.7089557396997899,0.7052525127307573,0.0003512032206839536,0.0007273857122233243,0.0,0.0,0.0,0.0,0.0,0.0,0.0,0.0,0.0,0.0015883481778814,-0.0029250796333669124,0.0012111432302924585,0.0,0.0,0.0,0.0,0.0,0.0,0.0,0.0,0.0,0.012320598126291795,0.055287764532676476,9.811701373987402,0.0,0.0,0.0,0.0,0.0,0.0,0.0,0.0,0.0
2025/04/09 11:15:47.501715153,1744190147,501492419,mA1/imu,0.7089661053700566,0.7052420581140166,0.0002735653473924705,0.00079124302251206,0.0,0.0,0.0,0.0,0.0,0.0,0.0,0.0,0.0,0.0014792799925140753,-0.005287000039488572,-0.0002004804905726066,0.0,0.0,0.0,0.0,0.0,0.0,0.0,0.0,0.0,0.08000982116578234,0.07172091070711513,9.811425343439307,0.0,0.0,0.0,0.0,0.0,0.0,0.0,0.0,0.0
2025/04/09 11:15:47.550928962,1744190147,550741376,mA1/imu,0.7089540043421113,0.7052541301625618,0.00017015161959853568,0.0008959153757403197,0.0,0.0,0.0,0.0,0.0,0.0,0.0,0.0,0.0,2.2375894515176427e-05,-0.006045558929999468,-0.0008533642324808728,0.0,0.0,0.0,0.0,0.0,0.0,0.0,0.0,0.0,0.02569297147458733,-0.03446758652926781,9.806432888529045,0.0,0.0,0.0,0.0,0.0,0.0,0.0,0.0,0.0
2025/04/09 11:15:47.602261419,1744190147,602102210,mA1/imu,0.7089349641971133,0.7052731488718871,6.053658550364896e-05,0.0009991769073523535,0.0,0.0,0.0,0.0,0.0,0.0,0.0,0.0,0.0,2.019947229186435e-05,-0.005976531113924722,-0.0012362782353328831,0.0,0.0,0.0,0.0,0.0,0.0,0.0,0.0,0.0,0.02170262071999101,-0.6625031198487009,9.8079942135077,0.0,0.0,0.0,0.0,0.0,0.0,0.0,0.0,0.0
2025/04/09 11:15:47.651903517,1744190147,651731369,mA1/imu,0.7089090867475993,0.7052990196394123,-4.764453255833023e-05,0.0010942359741732558,0.0,0.0,0.0,0.0,0.0,0.0,0.0,0.0,0.0,-0.00027370377433455414,-0.005516156088498512,-0.0016117928058553479,0.0,0.0,0.0,0.0,0.0,0.0,0.0,0.0,0.0,0.016499595847264462,-0.04361372052909755,9.811262187124527,0.0,0.0,0.0,0.0,0.0,0.0,0.0,0.0,0.0
2025/04/09 11:15:47.702866654,1744190147,702732184,mA1/imu,0.7088765290447123,0.7053315914429439,-0.00014280983265152318,0.0011799523027941823,0.0,0.0,0.0,0.0,0.0,0.0,0.0,0.0,0.0,-0.0005975541409812299,-0.0047497101091350065,-0.0019908014554249377,0.0,0.0,0.0,0.0,0.0,0.0,0.0,0.0,0.0,0.013440409643368062,0.5750279581709281,9.810362198421073,0.0,0.0,0.0,0.0,0.0,0.0,0.0,0.0,0.0
2025/04/09 11:15:47.752801002,1744190147,752554988,mA1/imu,0.708837508806344,0.7053706573846932,-0.0002138253246462854,0.0012554236864485335,0.0,0.0,0.0,0.0,0.0,0.0,0.0,0.0,0.0,-0.0006631734956873867,-0.0036725694464400283,-0.002359861810464249,0.0,0.0,0.0,0.0,0.0,0.0,0.0,0.0,0.0,0.013127400323022375,0.5794687230569898,9.811188833734892,0.0,0.0,0.0,0.0,0.0,0.0,0.0,0.0,0.0
2025/04/09 11:15:47.803900696,1744190147,803697635,mA1/imu,0.7087921817411095,0.70541608876962,-0.0002623239913878781,0.001309959454811609,0.0,0.0,0.0,0.0,0.0,0.0,0.0,0.0,0.0,0.0010605382190781044,-0.0023956025603070873,-0.002715445851497168,0.0,0.0,0.0,0.0,0.0,0.0,0.0,0.0,0.0,0.013148624445941157,-0.5557062118617312,9.811087876313232,0.0,0.0,0.0,0.0,0.0,0.0,0.0,0.0,0.0
2025/04/09 11:15:47.853726858,1744190147,853585029,mA1/imu,0.7087406227067363,0.7054678210131874,-0.0002833039584971441,0.0013427505501311904,0.0,0.0,0.0,0.0,0.0,0.0,0.0,0.0,0.0,0.0009842804558030677,-0.0009828886437159192,-0.0030631973839395843,0.0,0.0,0.0,0.0,0.0,0.0,0.0,0.0,0.0,0.01645527371943723,-0.5597204307664064,9.807634556556128,0.0,0.0,0.0,0.0,0.0,0.0,0.0,0.0,0.0
2025/04/09 11:15:47.905052033,1744190147,904779303,mA1/imu,0.7086829947294725,0.705525696945969,-0.0002755535431824219,0.0013520356564573955,0.0,0.0,0.0,0.0,0.0,0.0,0.0,0.0,0.0,-0.000734659576007826,0.0005359693435324026,-0.003402327282118588,0.0,0.0,0.0,0.0,0.0,0.0,0.0,0.0,0.0,0.01732463813897058,-0.0384674537141706,9.807504202007555,0.0,0.0,0.0,0.0,0.0,0.0,0.0,0.0,0.0
2025/04/09 11:15:47.954845840,1744190147,954459378,mA1/imu,0.7086193776175334,0.7055896334750569,-0.00024116441530165427,0.00133739941645084,0.0,0.0,0.0,0.0,0.0,0.0,0.0,0.0,0.0,-0.0024371093431324493,0.00199778279548271,-0.0037333295671922056,0.0,0.0,0.0,0.0,0.0,0.0,0.0,0.0,0.0,0.011433194737620056,0.48133113970876046,9.810481727154311,0.0,0.0,0.0,0.0,0.0,0.0,0.0,0.0,0.0
2025/04/09 11:15:48.6109816,1744190148,5835808,mA1/imu,0.7085499976260025,0.7056594014310242,-0.0001884093554660127,0.0012940394565945058,0.0,0.0,0.0,0.0,0.0,0.0,0.0,0.0,0.0,-0.0009722133300763546,0.0032454179693292445,-0.004059666008224186,0.0,0.0,0.0,0.0,0.0,0.0,0.0,0.0,0.0,0.013850758816564886,-0.04893091286476634,9.811532086878756,0.0,0.0,0.0,0.0,0.0,0.0,0.0,0.0,0.0
2025/04/09 11:15:48.56386023,1744190148,55780434,mA1/imu,0.7084749310102796,0.7057348967352698,-0.00011488621940529799,0.0012306344681501978,0.0,0.0,0.0,0.0,0.0,0.0,0.0,0.0,0.0,0.0004965846002788269,0.004280652815760675,-0.004383379148735697,0.0,0.0,0.0,0.0,0.0,0.0,0.0,0.0,0.0,0.014685205053399777,0.053219966974561585,9.812477918529368,0.0,0.0,0.0,0.0,0.0,0.0,0.0,0.0,0.0
2025/04/09 11:15:48.97015073,1744190148,96656620,mA1/imu,0.708397217572271,0.7058130490572755,-1.1129797543273524e-05,0.001149692334542029,0.0,0.0,0.0,0.0,0.0,0.0,0.0,0.0,0.0,0.0005194223767568276,0.005797186899929484,-0.004384299454162006,0.0,0.0,0.0,0.0,0.0,0.0,0.0,0.0,0.0,-0.007153671038738159,0.0640013436382437,9.810410721384352,0.0,0.0,0.0,0.0,0.0,0.0,0.0,0.0,0.0
2025/04/09 11:15:48.146815339,1744190148,146544018,mA1/imu,0.7083214194639896,0.7058892591036164,0.00012149853329628907,0.0010515934445224533,0.0,0.0,0.0,0.0,0.0,0.0,0.0,0.0,0.0,-0.0008375872203253168,0.006946941101666128,-0.004229860733009916,0.0,0.0,0.0,0.0,0.0,0.0,0.0,0.0,0.0,-0.004288172879805506,-0.03523640730517141,9.808428803468683,0.0,0.0,0.0,0.0,0.0,0.0,0.0,0.0,0.0
2025/04/09 11:15:48.198115584,1744190148,197913004,mA1/imu,0.7082482972559785,0.7059627550254182,0.00026310466725680456,0.0009320551821708515,0.0,0.0,0.0,0.0,0.0,0.0,0.0,0.0,0.0,-0.0006893935705067719,0.007617040433607371,-0.0040762388866151,0.0,0.0,0.0,0.0,0.0,0.0,0.0,0.0,0.0,-0.0012485422960126016,-0.6620299480242839,9.80967962640822,0.0,0.0,0.0,0.0,0.0,0.0,0.0,0.0,0.0
2025/04/09 11:15:48.248060141,1744190148,247765280,mA1/imu,0.7081777861381524,0.7060335830652517,0.00040490905708080884,0.0007992829054909286,0.0,0.0,0.0,0.0,0.0,0.0,0.0,0.0,0.0,-0.0007978432958368638,0.0077890767680851535,-0.003956704201793642,0.0,0.0,0.0,0.0,0.0,0.0,0.0,0.0,0.0,0.004016206245144021,-0.0422385618174852,9.811191794437558,0.0,0.0,0.0,0.0,0.0,0.0,0.0,0.0,0.0
2025/04/09 11:15:48.299244524,1744190148,299050356,mA1/imu,0.7081085097633112,0.7061031083568619,0.0005414051532620793,0.0006675702364153943,0.0,0.0,0.0,0.0,0.0,0.0,0.0,0.0,0.0,-0.0008889157131831614,0.007406467113218125,-0.0038940790022860146,0.0,0.0,0.0,0.0,0.0,0.0,0.0,0.0,0.0,0.005978502196003026,0.5748929815873287,9.810233966242418,0.0,0.0,0.0,0.0,0.0,0.0,0.0,0.0,0.0
2025/04/09 11:15:48.348955005,1744190148,348766110,mA1/imu,0.7080403613475196,0.706171433759391,0.0006704519789518472,0.0005507624021778461,0.0,0.0,0.0,0.0,0.0,0.0,0.0,0.0,0.0,-0.000841271736964312,0.006616090131415474,-0.0038274768320782347,0.0,0.0,0.0,0.0,0.0,0.0,0.0,0.0,0.0,0.006232970459867727,0.570197601368873,9.810478117891037,0.0,0.0,0.0,0.0,0.0,0.0,0.0,0.0,0.0
2025/04/09 11:15:48.400016735,1744190148,399752459,mA1/imu,0.7079738119601003,0.706238112605585,0.0007797753852969284,0.0004492575365521831,0.0,0.0,0.0,0.0,0.0,0.0,0.0,0.0,0.0,0.0011555068664960233,0.005511145647159665,-0.0037065415099609912,0.0,0.0,0.0,0.0,0.0,0.0,0.0,0.0,0.0,0.00735772772921712,-0.560830272476042,9.810210452554502,0.0,0.0,0.0,0.0,0.0,0.0,0.0,0.0,0.0
2025/04/09 11:15:48.449730461,1744190148,449577499,mA1/imu,0.7079090349150523,0.7063030037279806,0.0008570100321802638,0.00036158577953756095,0.0,0.0,0.0,0.0,0.0,0.0,0.0,0.0,0.0,0.0019056036495230853,0.004051922307371865,-0.0036383198844622167,0.0,0.0,0.0,0.0,0.0,0.0,0.0,0.0,0.0,0.008734714717901094,-0.5227225094176328,9.809856179618434,0.0,0.0,0.0,0.0,0.0,0.0,0.0,0.0,0.0
2025/04/09 11:15:48.501389903,1744190148,501184300,mA1/imu,0.7078453992911327,0.7063667305973579,0.0009145704277177991,0.00031011047903726406,0.0,0.0,0.0,0.0,0.0,0.0,0.0,0.0,0.0,0.0006222733072609358,0.002405049769189245,-0.0035744964467402554,0.0,0.0,0.0,0.0,0.0,0.0,0.0,0.0,0.0,0.00880609386591089,0.012913958010339056,9.808876405686174,0.0,0.0,0.0,0.0,0.0,0.0,0.0,0.0,0.0
2025/04/09 11:15:48.550740697,1744190148,550595631,mA1/imu,0.7077828629864963,0.7064293821445575,0.0009320804684517963,0.0002795201208869056,0.0,0.0,0.0,0.0,0.0,0.0,0.0,0.0,0.0,0.00011590852975649693,0.0006600819245175033,-0.0035163502776029048,0.0,0.0,0.0,0.0,0.0,0.0,0.0,0.0,0.0,0.008780009512487065,-0.031225757140902595,9.808712726432184,0.0,0.0,0.0,0.0,0.0,0.0,0.0,0.0,0.0
2025/04/09 11:15:48.601721053,1744190148,601576594,mA1/imu,0.7077213847567727,0.7064909916443578,0.0009178169888548787,0.00027909730046586087,0.0,0.0,0.0,0.0,0.0,0.0,0.0,0.0,0.0,0.00028152938028041955,-0.0010738977323498371,-0.0034580614148754093,0.0,0.0,0.0,0.0,0.0,0.0,0.0,0.0,0.0,0.008319533307148056,-0.029057199859627396,9.810935426443404,0.0,0.0,0.0,0.0,0.0,0.0,0.0,0.0,0.0
2025/04/09 11:15:48.651596167,1744190148,651459931,mA1/imu,0.7076609493318017,0.7065515761107124,0.0008705890016241067,0.0003052229866452014,0.0,0.0,0.0,0.0,0.0,0.0,0.0,0.0,0.0,0.0006045895980150141,-0.0027163351401962954,-0.00340274574305705,0.0,0.0,0.0,0.0,0.0,0.0,0.0,0.0,0.0,0.007561075454517991,-0.011988845806596763,9.810675027176483,0.0,0.0,0.0,0.0,0.0,0.0,0.0,0.0,0.0
2025/04/09 11:15:48.703499154,1744190148,703291160,mA1/imu,0.7076020706893711,0.7066106039977352,0.000797714652178836,0.00035710699219454445,0.0,0.0,0.0,0.0,0.0,0.0,0.0,0.0,0.0,0.0005157794061016934,-0.004012062408744324,-0.003277863000335383,0.0,0.0,0.0,0.0,0.0,0.0,0.0,0.0,0.0,0.0006871537843558678,0.019061608274846365,9.808545803273415,0.0,0.0,0.0,0.0,0.0,0.0,0.0,0.0,0.0
2025/04/09 11:15:48.753152851,1744190148,752945946,mA1/imu,0.7075459011290531,0.7066669044917046,0.0007064256796090805,0.0004299469123582385,0.0,0.0,0.0,0.0,0.0,0.0,0.0,0.0,0.0,0.000540685040583019,-0.005023103334254402,-0.0031222913880797768,0.0,0.0,0.0,0.0,0.0,0.0,0.0,0.0,0.0,8.712551084545661e-05,-0.02061476412118636,9.807898464761095,0.0,0.0,0.0,0.0,0.0,0.0,0.0,0.0,0.0
2025/04/09 11:15:48.804461392,1744190148,804146352,mA1/imu,0.7074918464012153,0.7067210641321414,0.000599267301983574,0.0005154283978825097,0.0,0.0,0.0,0.0,0.0,0.0,0.0,0.0,0.0,0.0006013251134308376,-0.005692381127976979,-0.003048304123710457,0.0,0.0,0.0,0.0,0.0,0.0,0.0,0.0,0.0,-0.0011317561427354327,-0.01578786723814642,9.811270040684967,0.0,0.0,0.0,0.0,0.0,0.0,0.0,0.0,0.0
2025/04/09 11:15:48.855557926,1744190148,853850308,mA1/imu,0.7074394277467305,0.7067735480263092,0.00048458621511247667,0.0006107830064053591,0.0,0.0,0.0,0.0,0.0,0.0,0.0,0.0,0.0,0.00045285290957295066,-0.00604273385978735,-0.002909990434156057,0.0,0.0,0.0,0.0,0.0,0.0,0.0,0.0,0.0,-0.00349345311293705,0.013313070111534023,9.81091113594217,0.0,0.0,0.0,0.0,0.0,0.0,0.0,0.0,0.0
2025/04/09 11:15:48.905498651,1744190148,905238702,mA1/imu,0.7073896985063935,0.7068232971885912,0.0003696501952376803,0.0007101811143938767,0.0,0.0,0.0,0.0,0.0,0.0,0.0,0.0,0.0,0.00042072699136513447,-0.006021625010358117,-0.0027571303391480317,0.0,0.0,0.0,0.0,0.0,0.0,0.0,0.0,0.0,-0.004887612414286648,-0.018557396830817696,9.808533537870131,0.0,0.0,0.0,0.0,0.0,0.0,0.0,0.0,0.0
2025/04/09 11:15:48.955030676,1744190148,954824079,mA1/imu,0.7073426513701865,0.7068703253358589,0.0002591158844622198,0.0008059597571822455,0.0,0.0,0.0,0.0,0.0,0.0,0.0,0.0,0.0,0.0005092446505483631,-0.005665858364521186,-0.0026034662582509493,0.0,0.0,0.0,0.0,0.0,0.0,0.0,0.0,0.0,-0.005328071131144868,-0.07205369153563303,9.808186650091706,0.0,0.0,0.0,0.0,0.0,0.0,0.0,0.0,0.0
2025/04/09 11:15:49.6745627,1744190149,6384928,mA1/imu,0.7072967998328478,0.7069161276064646,0.00016106743697191897,0.0008941663010678014,0.0,0.0,0.0,0.0,0.0,0.0,0.0,0.0,0.0,4.186918871915203e-05,-0.004957782920876653,-0.00257114066345334,0.0,0.0,0.0,0.0,0.0,0.0,0.0,0.0,0.0,-0.00684368315434288,-0.015167845675065463,9.810934610349864,0.0,0.0,0.0,0.0,0.0,0.0,0.0,0.0,0.0
2025/04/09 11:15:49.46286958,1744190149,46064703,mA1/imu,0.7072525172488946,0.7069603470058986,7.833152455081029e-05,0.0009687469090542528,0.0,0.0,0.0,0.0,0.0,0.0,0.0,0.0,0.0,-0.00016073438033916004,-0.004074605525939418,-0.0024734812838279607,0.0,0.0,0.0,0.0,0.0,0.0,0.0,0.0,0.0,-0.005135502464166839,0.0807051929790435,9.810163598830874,0.0,0.0,0.0,0.0,0.0,0.0,0.0,0.0,0.0
2025/04/09 11:15:49.97375292,1744190149,97101032,mA1/imu,0.707209736758166,0.7070030618702057,1.935243885456124e-05,0.0010287692077340272,0.0,0.0,0.0,0.0,0.0,0.0,0.0,0.0,0.0,-0.0008477948881696538,-0.0027904634959720807,-0.0023799318866976832,0.0,0.0,0.0,0.0,0.0,0.0,0.0,0.0,0.0,-0.014039539397658134,0.5415852307899152,9.810303124696407,0.0,0.0,0.0,0.0,0.0,0.0,0.0,0.0,0.0
2025/04/09 11:15:49.147687067,1744190149,147488071,mA1/imu,0.7071687619534098,0.7070440028654355,-1.796516858253573e-05,0.001058209126936765,0.0,0.0,0.0,0.0,0.0,0.0,0.0,0.0,0.0,0.0003872628385622969,-0.001281444836354982,-0.002278281310607108,0.0,0.0,0.0,0.0,0.0,0.0,0.0,0.0,0.0,-0.013501516740911866,-0.5451037011962478,9.808800348871868,0.0,0.0,0.0,0.0,0.0,0.0,0.0,0.0,0.0
2025/04/09 11:15:49.199070927,1744190149,198833136,mA1/imu,0.7071295422035345,0.7070832188852626,-2.6700249469605508e-05,0.0010636733390598733,0.0,0.0,0.0,0.0,0.0,0.0,0.0,0.0,0.0,0.0005107648228069344,0.00018513961697367654,-0.002179477226751484,0.0,0.0,0.0,0.0,0.0,0.0,0.0,0.0,0.0,-0.012355553805974978,0.025258299778137105,9.80912167676043,0.0,0.0,0.0,0.0,0.0,0.0,0.0,0.0,0.0
2025/04/09 11:15:49.248621646,1744190149,248414979,mA1/imu,0.7070919318296212,0.707120851927614,-4.906034515821242e-06,0.0010491360973649412,0.0,0.0,0.0,0.0,0.0,0.0,0.0,0.0,0.0,-0.0009909312151664483,0.0015842785255703931,-0.0020911523070806046,0.0,0.0,0.0,0.0,0.0,0.0,0.0,0.0,0.0,-0.010940154769938157,0.5553764239731687,9.809943545606867,0.0,0.0,0.0,0.0,0.0,0.0,0.0,0.0,0.0
2025/04/09 11:15:49.299559206,1744190149,299421439,mA1/imu,0.707055539598192,0.7071572974854388,3.728153858958326e-05,0.0010095279525714432,0.0,0.0,0.0,0.0,0.0,0.0,0.0,0.0,0.0,0.00019180069994291526,0.00277370554538446,-0.002051187159194214,0.0,0.0,0.0,0.0,0.0,0.0,0.0,0.0,0.0,-0.006249126741940624,-0.4003680235031048,9.811986899998551,0.0,0.0,0.0,0.0,0.0,0.0,0.0,0.0,0.0
2025/04/09 11:15:49.349522060,1744190149,349335327,mA1/imu,0.7070199333492906,0.7071929736916654,9.725686766282737e-05,0.000949920525905108,0.0,0.0,0.0,0.0,0.0,0.0,0.0,0.0,0.0,0.000938598446165552,0.003755249053132546,-0.0019805528275321743,0.0,0.0,0.0,0.0,0.0,0.0,0.0,0.0,0.0,-0.007613891994724224,-0.2747761041146065,9.811770063686485,0.0,0.0,0.0,0.0,0.0,0.0,0.0,0.0,0.0
2025/04/09 11:15:49.400758200,1744190149,400534168,mA1/imu,0.7069856657874155,0.7072273056751085,0.00017821324148424025,0.0008801810564598064,0.0,0.0,0.0,0.0,0.0,0.0,0.0,0.0,0.0,-0.000621639323874191,0.0045247442111418686,-0.0019062803617653314,0.0,0.0,0.0,0.0,0.0,0.0,0.0,0.0,0.0,-0.004163549812195801,-0.036487052774919856,9.811295313644203,0.0,0.0,0.0,0.0,0.0,0.0,0.0,0.0,0.0
2025/04/09 11:15:49.450400581,1744190149,450226294,mA1/imu,0.7069527677816694,0.7072602630811378,0.00026410099344783026,0.0007966447779368094,0.0,0.0,0.0,0.0,0.0,0.0,0.0,0.0,0.0,-8.865422673075797e-05,0.004938400196098252,-0.0018262123908130811,0.0,0.0,0.0,0.0,0.0,0.0,0.0,0.0,0.0,-0.0037817458982599217,-0.1270839187618271,9.811571170430524,0.0,0.0,0.0,0.0,0.0,0.0,0.0,0.0,0.0
2025/04/09 11:15:49.501374576,1744190149,501201513,mA1/imu,0.7069212858959086,0.7072917825446634,0.0003547323232370051,0.0007099697504622145,0.0,0.0,0.0,0.0,0.0,0.0,0.0,0.0,0.0,0.0002395422931050583,0.005028000183360946,-0.0017468802921285808,0.0,0.0,0.0,0.0,0.0,0.0,0.0,0.0,0.0,-0.0012091611085730102,-0.32616086362407504,9.81121522892151,0.0,0.0,0.0,0.0,0.0,0.0,0.0,0.0,0.0
2025/04/09 11:15:49.551105121,1744190149,550994979,mA1/imu,0.7068910415837314,0.7073220409428562,0.00044352476530715857,0.000623707369147593,0.0,0.0,0.0,0.0,0.0,0.0,0.0,0.0,0.0,0.00012407013779827065,0.00484674689466437,-0.0016806983473651538,0.0,0.0,0.0,0.0,0.0,0.0,0.0,0.0,0.0,-0.0009053373687082423,-0.2554898884388514,9.811388275193663,0.0,0.0,0.0,0.0,0.0,0.0,0.0,0.0,0.0
2025/04/09 11:15:49.602251650,1744190149,602034459,mA1/imu,0.7068619955005288,0.707351086200055,0.0005199341409416187,0.0005383652120872721,0.0,0.0,0.0,0.0,0.0,0.0,0.0,0.0,0.0,0.0009649351744308235,0.004362259974310057,-0.001611489400326021,0.0,0.0,0.0,0.0,0.0,0.0,0.0,0.0,0.0,0.0015365083284668588,-0.2474212783043343,9.809793146759752,0.0,0.0,0.0,0.0,0.0,0.0,0.0,0.0,0.0
2025/04/09 11:15:49.652087295,1744190149,651908082,mA1/imu,0.7068341788640812,0.7073788827911223,0.0005858381625255139,0.0004653647719438335,0.0,0.0,0.0,0.0,0.0,0.0,0.0,0.0,0.0,0.0004782896122011642,0.0036173503472195514,-0.001542348831979931,0.0,0.0,0.0,0.0,0.0,0.0,0.0,0.0,0.0,0.0014221825521795154,0.021087943466462707,9.8105023936194,0.0,0.0,0.0,0.0,0.0,0.0,0.0,0.0,0.0
2025/04/09 11:15:49.703173283,1744190149,702854559,mA1/imu,0.7068076203800638,0.7074054124648059,0.0006360318462902191,0.00040700326743725406,0.0,0.0,0.0,0.0,0.0,0.0,0.0,0.0,0.0,0.0002946211282815072,0.0026832784951615757,-0.0014721902054469947,0.0,0.0,0.0,0.0,0.0,0.0,0.0,0.0,0.0,0.0027166496029900223,-0.08590129287352949,9.809773981633052,0.0,0.0,0.0,0.0,0.0,0.0,0.0,0.0,0.0
2025/04/09 11:15:49.754601132,1744190149,752771062,mA1/imu,0.7067822714903245,0.7074307358179207,0.0006650848097028357,0.0003638533888849643,0.0,0.0,0.0,0.0,0.0,0.0,0.0,0.0,0.0,0.0004940126723127271,0.0016138886207333314,-0.001404672179236765,0.0,0.0,0.0,0.0,0.0,0.0,0.0,0.0,0.0,0.0015181901044144953,-0.4001553432228259,9.809493916370986,0.0,0.0,0.0,0.0,0.0,0.0,0.0,0.0,0.0
2025/04/09 11:15:49.804651359,1744190149,803645434,mA1/imu,0.7067580580114244,0.7074549372748052,0.0006688650365977631,0.0003343366327935367,0.0,0.0,0.0,0.0,0.0,0.0,0.0,0.0,0.0,0.0014091347357909542,0.0004978157941152549,-0.0013476075619108412,0.0,0.0,0.0,0.0,0.0,0.0,0.0,0.0,0.0,0.0014357477569581865,-0.08596107075694903,9.809147851299834,0.0,0.0,0.0,0.0,0.0,0.0,0.0,0.0,0.0
2025/04/09 11:15:49.853661028,1744190149,853472861,mA1/imu,0.7067346653059138,0.7074783198772183,0.0006570163206176949,0.0003287677002096127,0.0,0.0,0.0,0.0,0.0,0.0,0.0,0.0,0.0,-0.00019528994649136209,-0.0005992921201224941,-0.0013094363494542847,0.0,0.0,0.0,0.0,0.0,0.0,0.0,0.0,0.0,-2.673873034563217e-05,0.5812792345466271,9.80843600451731,0.0,0.0,0.0,0.0,0.0,0.0,0.0,0.0,0.0
2025/04/09 11:15:49.904932328,1744190149,904504512,mA1/imu,0.7067119096603941,0.7075010720188468,0.0006263859794278088,0.0003427491005687417,0.0,0.0,0.0,0.0,0.0,0.0,0.0,0.0,0.0,0.00025789780573111826,-0.0016812366892789922,-0.0012743819811113467,0.0,0.0,0.0,0.0,0.0,0.0,0.0,0.0,0.0,0.000806542732683168,-0.14935441637159175,9.810846175024972,0.0,0.0,0.0,0.0,0.0,0.0,0.0,0.0,0.0
2025/04/09 11:15:49.954802231,1744190149,954541617,mA1/imu,0.7066898469771485,0.7075231419556547,0.0005726938283619757,0.00036850833370881837,0.0,0.0,0.0,0.0,0.0,0.0,0.0,0.0,0.0,0.0010609627243448377,-0.002602794608687885,-0.0012270567654036587,0.0,0.0,0.0,0.0,0.0,0.0,0.0,0.0,0.0,-0.00020717345940785697,-0.5871054518202025,9.80888294045378,0.0,0.0,0.0,0.0,0.0,0.0,0.0,0.0,0.0
2025/04/09 11:15:50.6801469,1744190150,6677516,mA1/imu,0.7066725343300992,0.7075404653942298,0.000507632716326362,0.00040169916174122154,0.0,0.0,0.0,0.0,0.0,0.0,0.0,0.0,0.0,0.0007364936329816596,-0.0028616751140870867,-0.0008126804732328164,0.0,0.0,0.0,0.0,0.0,0.0,0.0,0.0,0.0,-0.019555305355847027,0.008877987401771441,9.812356788446863,0.0,0.0,0.0,0.0,0.0,0.0,0.0,0.0,0.0
2025/04/09 11:15:50.46008669,1744190150,45858345,mA1/imu,0.7066618487866678,0.7075511556928876,0.00044351394560194867,0.00044366929982182286,0.0,0.0,0.0,0.0,0.0,0.0,0.0,0.0,0.0,-0.00018092436943628352,-0.0031851665106657832,-0.000543309334479696,0.0,0.0,0.0,0.0,0.0,0.0,0.0,0.0,0.0,-4.696083665385406e-05,0.4171819290803714,9.810435926679888,0.0,0.0,0.0,0.0,0.0,0.0,0.0,0.0,0.0
2025/04/09 11:15:50.97771872,1744190150,97553047,mA1/imu,0.7066527149556969,0.7075602935521456,0.00036503864867460474,0.00048803783581049154,0.0,0.0,0.0,0.0,0.0,0.0,0.0,0.0,0.0,0.0013817397362906056,-0.003632068607798889,-0.0005006649025429088,0.0,0.0,0.0,0.0,0.0,0.0,0.0,0.0,0.0,-0.0026840961874133222,-0.5665038892958442,9.808650575282826,0.0,0.0,0.0,0.0,0.0,0.0,0.0,0.0,0.0
2025/04/09 11:15:50.146820982,1744190150,146684051,mA1/imu,0.7066443442110288,0.707568655577921,0.0002808572210999887,0.0005381054168266579,0.0,0.0,0.0,0.0,0.0,0.0,0.0,0.0,0.0,0.0015251841317515365,-0.0038842367338492493,-0.00045966894467154194,0.0,0.0,0.0,0.0,0.0,0.0,0.0,0.0,0.0,-0.0025809779307865745,-0.05819304763314083,9.809272691680091,0.0,0.0,0.0,0.0,0.0,0.0,0.0,0.0,0.0
2025/04/09 11:15:50.197886539,1744190150,197677828,mA1/imu,0.7066383795962102,0.7075745981692748,0.00020038022007284138,0.000590216061356868,0.0,0.0,0.0,0.0,0.0,0.0,0.0,0.0,0.0,0.0011282926316418522,-0.0035316750537171906,-0.00018540061273367885,0.0,0.0,0.0,0.0,0.0,0.0,0.0,0.0,0.0,-0.02249343973749803,-0.11323841939218746,9.812278937573096,0.0,0.0,0.0,0.0,0.0,0.0,0.0,0.0,0.0
2025/04/09 11:15:50.247921594,1744190150,247700335,mA1/imu,0.7066393488203186,0.7075736159370534,0.00012668578210350118,0.0006266412626102851,0.0,0.0,0.0,0.0,0.0,0.0,0.0,0.0,0.0,0.00047874308910008176,-0.0028401476046396837,0.0002131441738591395,0.0,0.0,0.0,0.0,0.0,0.0,0.0,0.0,0.0,-0.01820612900346571,0.08535371872737572,9.808402395532374,0.0,0.0,0.0,0.0,0.0,0.0,0.0,0.0,0.0
2025/04/09 11:15:50.299333834,1744190150,299089425,mA1/imu,0.7066459482374463,0.707567012055829,6.485470119055233e-05,0.000650448963888189,0.0,0.0,0.0,0.0,0.0,0.0,0.0,0.0,0.0,0.00025724319789914606,-0.002235006408535798,0.0004022542102279481,0.0,0.0,0.0,0.0,0.0,0.0,0.0,0.0,0.0,-0.0046480985597687745,0.6186397586202215,9.810526639706708,0.0,0.0,0.0,0.0,0.0,0.0,0.0,0.0,0.0
2025/04/09 11:15:50.348667998,1744190150,348458697,mA1/imu,0.7066533042415584,0.7075596485809628,1.6735021366380597e-05,0.0006715835102002049,0.0,0.0,0.0,0.0,0.0,0.0,0.0,0.0,0.0,0.000265541277368596,-0.001738120088730329,0.0004222213128451474,0.0,0.0,0.0,0.0,0.0,0.0,0.0,0.0,0.0,-0.00544475339287967,0.6222933519040217,9.8107552670278,0.0,0.0,0.0,0.0,0.0,0.0,0.0,0.0,0.0
2025/04/09 11:15:50.399786082,1744190150,399420836,mA1/imu,0.7066611960551457,0.7075517574381495,-2.3578107741610295e-05,0.0006811608985632966,0.0,0.0,0.0,0.0,0.0,0.0,0.0,0.0,0.0,-0.00010185677343993648,-0.0011613683606261189,0.00045392794590577956,0.0,0.0,0.0,0.0,0.0,0.0,0.0,0.0,0.0,-0.004839078655890191,0.6009517150344967,9.809436192654633,0.0,0.0,0.0,0.0,0.0,0.0,0.0,0.0,0.0
2025/04/09 11:15:50.450163044,1744190150,449908788,mA1/imu,0.706669269477767,0.7075436958104778,-5.409961708565601e-05,0.0006776192445213333,0.0,0.0,0.0,0.0,0.0,0.0,0.0,0.0,0.0,-0.0005486323411703182,-0.0004487259580730479,0.0004558569518650533,0.0,0.0,0.0,0.0,0.0,0.0,0.0,0.0,0.0,-0.007548443979972581,0.5753360091164267,9.80957626031263,0.0,0.0,0.0,0.0,0.0,0.0,0.0,0.0,0.0
2025/04/09 11:15:50.501460558,1744190150,501252243,mA1/imu,0.7066774248061456,0.7075355614763305,-6.999028364984886e-05,0.0006645427663615837,0.0,0.0,0.0,0.0,0.0,0.0,0.0,0.0,0.0,0.0009925582034791386,0.0001919103659182694,0.0004669122242149179,0.0,0.0,0.0,0.0,0.0,0.0,0.0,0.0,0.0,-0.0055095027956196755,0.05685193160963611,9.812951116698773,0.0,0.0,0.0,0.0,0.0,0.0,0.0,0.0,0.0
2025/04/09 11:15:50.552800091,1744190150,550869645,mA1/imu,0.7066859046986355,0.7075271146760449,-7.509546950516122e-05,0.0006391080756399797,0.0,0.0,0.0,0.0,0.0,0.0,0.0,0.0,0.0,0.0027101469821783552,0.0008025558243993181,0.00048064743295148815,0.0,0.0,0.0,0.0,0.0,0.0,0.0,0.0,0.0,-0.0039300831853605785,-0.44946612756410453,9.810568000223642,0.0,0.0,0.0,0.0,0.0,0.0,0.0,0.0,0.0
2025/04/09 11:15:50.602738622,1744190150,602456203,mA1/imu,0.706694315854677,0.7075187425672761,-6.375453037182031e-05,0.0006072808825677418,0.0,0.0,0.0,0.0,0.0,0.0,0.0,0.0,0.0,0.001286064629643673,0.0014401948902574315,0.0004714928624750576,0.0,0.0,0.0,0.0,0.0,0.0,0.0,0.0,0.0,-0.0035628823236790886,0.09497992547759343,9.809132275687505,0.0,0.0,0.0,0.0,0.0,0.0,0.0,0.0,0.0
2025/04/09 11:15:50.652498762,1744190150,652208440,mA1/imu,0.706702503574725,0.7075105965920817,-3.90907604896401e-05,0.0005706338974242635,0.0,0.0,0.0,0.0,0.0,0.0,0.0,0.0,0.0,2.5724340222955704e-05,0.001931891183921833,0.0004567959321808241,0.0,0.0,0.0,0.0,0.0,0.0,0.0,0.0,0.0,-0.004049059595398422,0.017528055068183397,9.809205944637908,0.0,0.0,0.0,0.0,0.0,0.0,0.0,0.0,0.0
2025/04/09 11:15:50.703876814,1744190150,703578897,mA1/imu,0.7067099569885007,0.7075031886305242,-1.2746544825297022e-05,0.000524030989432912,0.0,0.0,0.0,0.0,0.0,0.0,0.0,0.0,0.0,0.0005869526287554726,0.00212506060399874,0.00038790932019715403,0.0,0.0,0.0,0.0,0.0,0.0,0.0,0.0,0.0,0.0029876677322699463,0.06355866012170551,9.811908830394298,0.0,0.0,0.0,0.0,0.0,0.0,0.0,0.0,0.0
2025/04/09 11:15:50.753363650,1744190150,753090529,mA1/imu,0.7067163584653723,0.7074968260526427,2.0115055020949703e-05,0.00047895538915767243,0.0,0.0,0.0,0.0,0.0,0.0,0.0,0.0,0.0,0.0011034395194347416,0.0022420300307437594,0.000348739036947882,0.0,0.0,0.0,0.0,0.0,0.0,0.0,0.0,0.0,0.0005577322908617011,-0.37905239772533433,9.81126182071037,0.0,0.0,0.0,0.0,0.0,0.0,0.0,0.0,0.0
2025/04/09 11:15:50.804597671,1744190150,804450783,mA1/imu,0.7067219063371921,0.7074913102139656,5.678181811667748e-05,0.0004357185748084713,0.0,0.0,0.0,0.0,0.0,0.0,0.0,0.0,0.0,3.219316165848261e-05,0.002242814952496078,0.00028987629076570264,0.0,0.0,0.0,0.0,0.0,0.0,0.0,0.0,0.0,0.0018817679562053214,0.332599907957258,9.809577687014752,0.0,0.0,0.0,0.0,0.0,0.0,0.0,0.0,0.0
2025/04/09 11:15:50.854703633,1744190150,854433866,mA1/imu,0.7067293098606007,0.7074839371225409,9.17845771113944e-05,0.0003909899476249841,0.0,0.0,0.0,0.0,0.0,0.0,0.0,0.0,0.0,0.0020935072603413545,0.0022788407775093714,0.000546096933420429,0.0,0.0,0.0,0.0,0.0,0.0,0.0,0.0,0.0,-0.0056920479131931535,-0.08256856112389546,9.811376562055983,0.0,0.0,0.0,0.0,0.0,0.0,0.0,0.0,0.0
2025/04/09 11:15:50.905877460,1744190150,905599047,mA1/imu,0.7067427755417648,0.7074704946098059,0.00014216726980123236,0.0003581404009104381,0.0,0.0,0.0,0.0,0.0,0.0,0.0,0.0,0.0,0.0005844664970223837,0.002284224108116976,0.0009114812545397005,0.0,0.0,0.0,0.0,0.0,0.0,0.0,0.0,0.0,-0.005217322130548027,-0.5289263253031459,9.805932714286145,0.0,0.0,0.0,0.0,0.0,0.0,0.0,0.0,0.0
2025/04/09 11:15:50.955891402,1744190150,955538458,mA1/imu,0.706760099769405,0.7074531989769736,0.00017182192755845908,0.0003211049865235585,0.0,0.0,0.0,0.0,0.0,0.0,0.0,0.0,0.0,2.54458084757927e-05,0.001532883666685822,0.0009637846830782835,0.0,0.0,0.0,0.0,0.0,0.0,0.0,0.0,0.0,0.016597308650319678,0.07215044608199951,9.8113278343625,0.0,0.0,0.0,0.0,0.0,0.0,0.0,0.0,0.0
2025/04/09 11:15:50.998381975,1744190150,996426334,mA1/imu,0.7067766905565318,0.7074366185375521,0.0002008980140435325,0.0003163512260352879,0.0,0.0,0.0,0.0,0.0,0.0,0.0,0.0,0.0,0.0005738305197040343,0.0005553929530923889,0.0009215918937374752,0.0,0.0,0.0,0.0,0.0,0.0,0.0,0.0,0.0,0.016495474750905622,-0.5160491321384999,9.809616335205103,0.0,0.0,0.0,0.0,0.0,0.0,0.0,0.0,0.0
2025/04/09 11:15:51.47269576,1744190151,46279955,mA1/imu,0.7067925126775361,0.7074208099658792,0.00020200367846464988,0.0003175605581146545,0.0,0.0,0.0,0.0,0.0,0.0,0.0,0.0,0.0,-0.0008022866821858673,-0.00037839992446152536,0.000876597472621666,0.0,0.0,0.0,0.0,0.0,0.0,0.0,0.0,0.0,0.016070490048166824,-0.39347072135315536,9.809743689393434,0.0,0.0,0.0,0.0,0.0,0.0,0.0,0.0,0.0
2025/04/09 11:15:51.99056297,1744190151,98168857,mA1/imu,0.7068076114296531,0.7074057208508018,0.00018724306651182314,0.00033387527597346676,0.0,0.0,0.0,0.0,0.0,0.0,0.0,0.0,0.0,0.0008603864913869768,-0.001172702513450619,0.0008408362154032577,0.0,0.0,0.0,0.0,0.0,0.0,0.0,0.0,0.0,0.012824300596725367,-0.4920964110318646,9.809587684395138,0.0,0.0,0.0,0.0,0.0,0.0,0.0,0.0,0.0
2025/04/09 11:15:51.151140161,1744190151,150945837,mA1/imu,0.7068219917557108,0.707391342558996,0.00016124920698428906,0.0003666630120025351,0.0,0.0,0.0,0.0,0.0,0.0,0.0,0.0,0.0,-3.0057358521133643e-05,-0.001992778506996744,0.0007936003293075514,0.0,0.0,0.0,0.0,0.0,0.0,0.0,0.0,0.0,0.015699172186375836,0.23502324914374623,9.810815625203837,0.0,0.0,0.0,0.0,0.0,0.0,0.0,0.0,0.0
2025/04/09 11:15:51.202493045,1744190151,202027460,mA1/imu,0.706835549733517,0.7073777771341541,0.0001228511346053342,0.00041346977959586743,0.0,0.0,0.0,0.0,0.0,0.0,0.0,0.0,0.0,-0.000726441840501082,-0.0026618307781709877,0.0007482688540058173,0.0,0.0,0.0,0.0,0.0,0.0,0.0,0.0,0.0,0.013689927164228979,0.6553858746577533,9.810702750011245,0.0,0.0,0.0,0.0,0.0,0.0,0.0,0.0,0.0
2025/04/09 11:15:51.252905660,1744190151,252645614,mA1/imu,0.7068483174093101,0.7073649895301519,7.505261738041316e-05,0.00047130641831966374,0.0,0.0,0.0,0.0,0.0,0.0,0.0,0.0,0.0,0.0008771756335128491,-0.0031897441156210557,0.0007042784983229982,0.0,0.0,0.0,0.0,0.0,0.0,0.0,0.0,0.0,0.013088877961730753,-0.43436328928336915,9.808425500941762,0.0,0.0,0.0,0.0,0.0,0.0,0.0,0.0,0.0
2025/04/09 11:15:51.304219454,1744190151,303820734,mA1/imu,0.7068602863637804,0.7073529888675973,1.753320385330931e-05,0.000533286393753512,0.0,0.0,0.0,0.0,0.0,0.0,0.0,0.0,0.0,-0.0016482959671510595,-0.0034874302770199466,0.0006584617829150111,0.0,0.0,0.0,0.0,0.0,0.0,0.0,0.0,0.0,0.012248078806094444,0.5822137588114032,9.809620499667988,0.0,0.0,0.0,0.0,0.0,0.0,0.0,0.0,0.0
2025/04/09 11:15:51.354648777,1744190151,354223772,mA1/imu,0.7068714629984251,0.707341773544494,-5.288031297883051e-05,0.0005894073875483468,0.0,0.0,0.0,0.0,0.0,0.0,0.0,0.0,0.0,-0.0002417465156731709,-0.003589701453220668,0.0006140160316785669,0.0,0.0,0.0,0.0,0.0,0.0,0.0,0.0,0.0,0.01097374044953428,0.6740520643213896,9.810315457292328,0.0,0.0,0.0,0.0,0.0,0.0,0.0,0.0,0.0
2025/04/09 11:15:51.405678116,1744190151,405320618,mA1/imu,0.7068818362123171,0.7073313364328271,-0.00010487421023360551,0.0006626723576597258,0.0,0.0,0.0,0.0,0.0,0.0,0.0,0.0,0.0,0.0003463542604238436,-0.0034920673542247747,0.0005701303298747964,0.0,0.0,0.0,0.0,0.0,0.0,0.0,0.0,0.0,0.010239940117881754,-0.5496362982884841,9.809050232965088,0.0,0.0,0.0,0.0,0.0,0.0,0.0,0.0,0.0
2025/04/09 11:15:51.455311643,1744190151,455025504,mA1/imu,0.706891459456676,0.7073216587684529,-0.00017374621538400432,0.000710912447111023,0.0,0.0,0.0,0.0,0.0,0.0,0.0,0.0,0.0,-8.039676506022978e-05,-0.003164089686555343,0.0005271011046869518,0.0,0.0,0.0,0.0,0.0,0.0,0.0,0.0,0.0,0.00976961602246654,0.045462800339939324,9.810742767654679,0.0,0.0,0.0,0.0,0.0,0.0,0.0,0.0,0.0
2025/04/09 11:15:51.497083010,1744190151,496733415,mA1/imu,0.7068987627610728,0.707314296483535,-0.00022872533390426138,0.00075688941590347,0.0,0.0,0.0,0.0,0.0,0.0,0.0,0.0,0.0,0.0005823008908675621,-0.002614055890572964,0.0003549037154792999,0.0,0.0,0.0,0.0,0.0,0.0,0.0,0.0,0.0,0.006944338979801278,0.08560293732057239,9.810137374849345,0.0,0.0,0.0,0.0,0.0,0.0,0.0,0.0,0.0
2025/04/09 11:15:51.546919706,1744190151,546639438,mA1/imu,0.7069043217357067,0.707308686920518,-0.0002704136197310522,0.0007925872994846571,0.0,0.0,0.0,0.0,0.0,0.0,0.0,0.0,0.0,-0.0006602585246348213,-0.0018880185024741996,0.0002885758833293084,0.0,0.0,0.0,0.0,0.0,0.0,0.0,0.0,0.0,0.00678203418415641,-0.005946052798646911,9.811110323504849,0.0,0.0,0.0,0.0,0.0,0.0,0.0,0.0,0.0
2025/04/09 11:15:51.597812892,1744190151,597654375,mA1/imu,0.7069087209105502,0.7073042577028461,-0.0003031233650756944,0.0008096000625673545,0.0,0.0,0.0,0.0,0.0,0.0,0.0,0.0,0.0,-0.0007337750759164138,-0.0010673171086933437,0.00022239713406452873,0.0,0.0,0.0,0.0,0.0,0.0,0.0,0.0,0.0,0.00728301007541933,-0.01852818491384746,9.81066071108725,0.0,0.0,0.0,0.0,0.0,0.0,0.0,0.0,0.0
2025/04/09 11:15:51.647701075,1744190151,647509763,mA1/imu,0.706911976466685,0.7073009991804295,-0.00032847870060259275,0.0008038582425896992,0.0,0.0,0.0,0.0,0.0,0.0,0.0,0.0,0.0,0.000762323463642397,-0.00019752646642269198,0.00015725699209449186,0.0,0.0,0.0,0.0,0.0,0.0,0.0,0.0,0.0,0.006502385242489762,0.08140064764783081,9.808886457384133,0.0,0.0,0.0,0.0,0.0,0.0,0.0,0.0,0.0
2025/04/09 11:15:51.698733561,1744190151,698576591,mA1/imu,0.7069156324711517,0.7072973622618609,-0.00032842672784824277,0.000788695891986444,0.0,0.0,0.0,0.0,0.0,0.0,0.0,0.0,0.0,-0.0005012379042225638,0.0008878101629081497,0.0002798551103478992,0.0,0.0,0.0,0.0,0.0,0.0,0.0,0.0,0.0,0.004890321483161398,0.6227759291984825,9.81206166790186,0.0,0.0,0.0,0.0,0.0,0.0,0.0,0.0,0.0
2025/04/09 11:15:51.748694825,1744190151,748313143,mA1/imu,0.7069204611863664,0.7072925821869339,-0.0003176064293267737,0.0007509098151508974,0.0,0.0,0.0,0.0,0.0,0.0,0.0,0.0,0.0,-0.00045779873075663834,0.0016893923234903498,0.0002559181877505882,0.0,0.0,0.0,0.0,0.0,0.0,0.0,0.0,0.0,0.0082513243328616,0.4981931148941288,9.80963164056371,0.0,0.0,0.0,0.0,0.0,0.0,0.0,0.0,0.0
2025/04/09 11:15:51.799642825,1744190151,799336530,mA1/imu,0.7069245935223073,0.7072885115583338,-0.00029129522008978235,0.0007040156333118771,0.0,0.0,0.0,0.0,0.0,0.0,0.0,0.0,0.0,0.0011326031726141541,0.00231375381830342,0.00021645751466094166,0.0,0.0,0.0,0.0,0.0,0.0,0.0,0.0,0.0,0.009825996920725898,-0.45978332312141706,9.809830026311513,0.0,0.0,0.0,0.0,0.0,0.0,0.0,0.0,0.0
2025/04/09 11:15:51.849382065,1744190151,849161384,mA1/imu,0.7069280270693102,0.707285147332317,-0.00025437947988600013,0.0006482268703853194,0.0,0.0,0.0,0.0,0.0,0.0,0.0,0.0,0.0,1.4428111065547147e-05,0.0028185382399425886,0.000176732988743101,0.0,0.0,0.0,0.0,0.0,0.0,0.0,0.0,0.0,0.009974282900901814,0.4128705609092586,9.810837715605999,0.0,0.0,0.0,0.0,0.0,0.0,0.0,0.0,0.0
2025/04/09 11:15:51.900398981,1744190151,900209959,mA1/imu,0.7069307403097677,0.7072825028910029,-0.000206817601327601,0.0005888427652699281,0.0,0.0,0.0,0.0,0.0,0.0,0.0,0.0,0.0,-7.41153050610168e-05,0.0031385213724303062,0.0001359205184304891,0.0,0.0,0.0,0.0,0.0,0.0,0.0,0.0,0.0,0.011543686936745212,-0.12439114881990868,9.81114959554266,0.0,0.0,0.0,0.0,0.0,0.0,0.0,0.0,0.0
2025/04/09 11:15:51.950246307,1744190151,950022024,mA1/imu,0.7069327391869371,0.70728057142954,-0.00016239327382673924,0.0005188182552638927,0.0,0.0,0.0,0.0,0.0,0.0,0.0,0.0,0.0,0.00031453815517162956,0.0032946559633986582,9.550364628220391e-05,0.0,0.0,0.0,0.0,0.0,0.0,0.0,0.0,0.0,0.010785474018133588,0.06400910405722322,9.80890010388658,0.0,0.0,0.0,0.0,0.0,0.0,0.0,0.0,0.0
2025/04/09 11:15:52.1371105,1744190152,1158128,mA1/imu,0.7069345630375141,0.7072788025823774,-0.0001116506535933624,0.00045446092104940445,0.0,0.0,0.0,0.0,0.0,0.0,0.0,0.0,0.0,0.00029426123754228877,0.003197183130142653,0.0001252222572084777,0.0,0.0,0.0,0.0,0.0,0.0,0.0,0.0,0.0,0.014117593180760123,0.3509707025822721,9.80936429556656,0.0,0.0,0.0,0.0,0.0,0.0,0.0,0.0,0.0
2025/04/09 11:15:52.51122133,1744190152,50942341,mA1/imu,0.7069368133571574,0.7072765948439629,-6.293865111288061e-05,0.00039540496026972666,0.0,0.0,0.0,0.0,0.0,0.0,0.0,0.0,0.0,0.0017251525641459472,0.002919529518816948,0.0001221322558752413,0.0,0.0,0.0,0.0,0.0,0.0,0.0,0.0,0.0,0.013737338953682928,-0.4459508084991176,9.809971264254422,0.0,0.0,0.0,0.0,0.0,0.0,0.0,0.0,0.0
2025/04/09 11:15:52.102210426,1744190152,101955891,mA1/imu,0.7069402782899171,0.7072731598061012,-1.3414318302970357e-05,0.0003466544731754583,0.0,0.0,0.0,0.0,0.0,0.0,0.0,0.0,0.0,0.0010974972063583527,0.0026850174902393596,0.0002825855804543538,0.0,0.0,0.0,0.0,0.0,0.0,0.0,0.0,0.0,0.013107035203117835,-0.4935906362598781,9.808881759861501,0.0,0.0,0.0,0.0,0.0,0.0,0.0,0.0,0.0
2025/04/09 11:15:52.152095876,1744190152,151873881,mA1/imu,0.7069457258245468,0.7072677334103924,2.7346610371831913e-05,0.0003053966169289613,0.0,0.0,0.0,0.0,0.0,0.0,0.0,0.0,0.0,-7.203214870560719e-05,0.0020383272121309447,0.00031566423906945705,0.0,0.0,0.0,0.0,0.0,0.0,0.0,0.0,0.0,0.016876932047266466,-0.17878421584176757,9.810511360895227,0.0,0.0,0.0,0.0,0.0,0.0,0.0,0.0,0.0
2025/04/09 11:15:52.204253595,1744190152,204011932,mA1/imu,0.7069506961757713,0.707262775005726,5.7065533755472136e-05,0.0002775091296905129,0.0,0.0,0.0,0.0,0.0,0.0,0.0,0.0,0.0,-0.001051251126900039,0.0013645821902724489,0.0002347826833680848,0.0,0.0,0.0,0.0,0.0,0.0,0.0,0.0,0.0,0.01608695415534647,0.0487546197238345,9.810801816098373,0.0,0.0,0.0,0.0,0.0,0.0,0.0,0.0,0.0
2025/04/09 11:15:52.253512410,1744190152,253292596,mA1/imu,0.7069544866326597,0.7072589899171128,7.439605016322992e-05,0.0002635841528370426,0.0,0.0,0.0,0.0,0.0,0.0,0.0,0.0,0.0,-0.001312367152788505,0.0005746089222465691,0.00020779423734848746,0.0,0.0,0.0,0.0,0.0,0.0,0.0,0.0,0.0,0.015355652959595492,0.6034959337607237,9.80944319135829,0.0,0.0,0.0,0.0,0.0,0.0,0.0,0.0,0.0
2025/04/09 11:15:52.305193151,1744190152,304423628,mA1/imu,0.7069572460263766,0.707256229667936,7.900495041487621e-05,0.00026766567733454473,0.0,0.0,0.0,0.0,0.0,0.0,0.0,0.0,0.0,-0.0009656754545801027,-0.0003335908327324485,0.0001296718744682305,0.0,0.0,0.0,0.0,0.0,0.0,0.0,0.0,0.0,0.015487601318069819,-0.07280919600119297,9.810005491200105,0.0,0.0,0.0,0.0,0.0,0.0,0.0,0.0,0.0
2025/04/09 11:15:52.354818661,1744190152,354624265,mA1/imu,0.7069593616983169,0.7072541089525907,6.820097568516351e-05,0.0002857016141741546,0.0,0.0,0.0,0.0,0.0,0.0,0.0,0.0,0.0,-0.0013968315480654035,-0.0011138296415125432,0.00011305436675723544,0.0,0.0,0.0,0.0,0.0,0.0,0.0,0.0,0.0,0.01478329926985649,0.6283364691543195,9.811354059678408,0.0,0.0,0.0,0.0,0.0,0.0,0.0,0.0,0.0
2025/04/09 11:15:52.406393065,1744190152,406134543,mA1/imu,0.7069611841727624,0.7072522727330741,5.066188342137533e-05,0.0003228317215005569,0.0,0.0,0.0,0.0,0.0,0.0,0.0,0.0,0.0,-0.0024645646195494823,-0.0018103731976075847,9.6388783437593e-05,0.0,0.0,0.0,0.0,0.0,0.0,0.0,0.0,0.0,0.014626240042282319,0.5541124152708053,9.811293367461765,0.0,0.0,0.0,0.0,0.0,0.0,0.0,0.0,0.0
2025/04/09 11:15:52.446270500,1744190152,446050022,mA1/imu,0.7069627144547131,0.7072507287245946,7.367633914124222e-06,0.0003564197968890379,0.0,0.0,0.0,0.0,0.0,0.0,0.0,0.0,0.0,0.0002591761295894783,-0.0023849938406315615,7.987305437055213e-05,0.0,0.0,0.0,0.0,0.0,0.0,0.0,0.0,0.0,0.013077784060652133,0.11513492428528127,9.809216687102673,0.0,0.0,0.0,0.0,0.0,0.0,0.0,0.0,0.0
2025/04/09 11:15:52.498081256,1744190152,497078764,mA1/imu,0.7069639771481425,0.707249431925206,-2.3905180006938726e-05,0.00041890917461781584,0.0,0.0,0.0,0.0,0.0,0.0,0.0,0.0,0.0,3.364628239798145e-05,-0.0028229115519454017,6.66063265998091e-05,0.0,0.0,0.0,0.0,0.0,0.0,0.0,0.0,0.0,0.012305091018575388,-0.3228226505232439,9.809329245714789,0.0,0.0,0.0,0.0,0.0,0.0,0.0,0.0,0.0
2025/04/09 11:15:52.547189270,1744190152,546987507,mA1/imu,0.7069650142898724,0.7072483574972258,-7.544528524640673e-05,0.00047296469823233505,0.0,0.0,0.0,0.0,0.0,0.0,0.0,0.0,0.0,-0.000842280817316996,-0.003064069195122098,5.399575082230951e-05,0.0,0.0,0.0,0.0,0.0,0.0,0.0,0.0,0.0,0.011641637647097865,0.039438009932134636,9.808640460305773,0.0,0.0,0.0,0.0,0.0,0.0,0.0,0.0,0.0
2025/04/09 11:15:52.598687378,1744190152,598474128,mA1/imu,0.7069658403174249,0.7072474808300437,-0.0001238084614396353,0.0005349348549057089,0.0,0.0,0.0,0.0,0.0,0.0,0.0,0.0,0.0,0.0005837666348429377,-0.0031229631913157834,4.353187217076478e-05,0.0,0.0,0.0,0.0,0.0,0.0,0.0,0.0,0.0,0.0100839558402786,0.13527645573754474,9.808939776327719,0.0,0.0,0.0,0.0,0.0,0.0,0.0,0.0,0.0
2025/04/09 11:15:52.648300144,1744190152,648111474,mA1/imu,0.7069664994467836,0.7072467651707609,-0.0001733760582200438,0.0005930903792862944,0.0,0.0,0.0,0.0,0.0,0.0,0.0,0.0,0.0,0.0007459122844635983,-0.0029876308895938836,3.446464072493943e-05,0.0,0.0,0.0,0.0,0.0,0.0,0.0,0.0,0.0,0.010245357125139874,-0.49010625205903363,9.809966153647625,0.0,0.0,0.0,0.0,0.0,0.0,0.0,0.0,0.0
2025/04/09 11:15:52.699556125,1744190152,699318643,mA1/imu,0.7069669757288237,0.7072462291065853,-0.0002181671555802781,0.0006473379707518787,0.0,0.0,0.0,0.0,0.0,0.0,0.0,0.0,0.0,0.00021070628841555507,-0.0026667638800231858,2.3749230194941826e-05,0.0,0.0,0.0,0.0,0.0,0.0,0.0,0.0,0.0,0.009219387189515808,-0.20891354260445655,9.809081114933914,0.0,0.0,0.0,0.0,0.0,0.0,0.0,0.0,0.0
2025/04/09 11:15:52.749273607,1744190152,749030685,mA1/imu,0.7069672728872405,0.7072458782305511,-0.00026133825513107616,0.0006888356776343846,0.0,0.0,0.0,0.0,0.0,0.0,0.0,0.0,0.0,-2.097667403127882e-05,-0.002188705193305899,1.3429106772297732e-05,0.0,0.0,0.0,0.0,0.0,0.0,0.0,0.0,0.0,0.008872354053021728,0.2130463474366354,9.809987853240727,0.0,0.0,0.0,0.0,0.0,0.0,0.0,0.0,0.0
2025/04/09 11:15:52.800453543,1744190152,800230772,mA1/imu,0.7069674709901074,0.7072456332312931,-0.00029097814494472317,0.0007242712462766041,0.0,0.0,0.0,0.0,0.0,0.0,0.0,0.0,0.0,-0.0004348801114862321,-0.0015957144997418556,1.1198469368674417e-05,0.0,0.0,0.0,0.0,0.0,0.0,0.0,0.0,0.0,0.008182535490809502,0.2751950868137368,9.809454756990972,0.0,0.0,0.0,0.0,0.0,0.0,0.0,0.0,0.0
2025/04/09 11:15:52.851179537,1744190152,850985198,mA1/imu,0.7069676436901271,0.7072454330062633,-0.00031761904010590915,0.0007398548221477814,0.0,0.0,0.0,0.0,0.0,0.0,0.0,0.0,0.0,0.0010907616331435573,-0.0009193330141779143,9.177752866204944e-06,0.0,0.0,0.0,0.0,0.0,0.0,0.0,0.0,0.0,0.008272478483886472,0.14030866110225823,9.80920356677217,0.0,0.0,0.0,0.0,0.0,0.0,0.0,0.0,0.0
2025/04/09 11:15:52.903506665,1744190152,903272171,mA1/imu,0.7069677762319712,0.7072452891269752,-0.00032420587024499156,0.0007478421468731226,0.0,0.0,0.0,0.0,0.0,0.0,0.0,0.0,0.0,0.0005269932272325299,-4.5719277068443655e-05,8.219062995848757e-06,0.0,0.0,0.0,0.0,0.0,0.0,0.0,0.0,0.0,0.005238472759940048,0.23653252079994352,9.809839466761481,0.0,0.0,0.0,0.0,0.0,0.0,0.0,0.0,0.0
2025/04/09 11:15:52.953675262,1744190152,953336843,mA1/imu,0.7069678682547201,0.7072452072606232,-0.0003154484948575467,0.0007419935995003731,0.0,0.0,0.0,0.0,0.0,0.0,0.0,0.0,0.0,-0.0011511501023270033,0.0007058289408413196,2.486611400787137e-06,0.0,0.0,0.0,0.0,0.0,0.0,0.0,0.0,0.0,0.008624979349127888,0.6097937163907686,9.810894678825992,0.0,0.0,0.0,0.0,0.0,0.0,0.0,0.0,0.0
2025/04/09 11:15:53.5318104,1744190153,5043961,mA1/imu,0.706967836019155,0.7072452682774455,-0.0002966572659307287,0.0007220304867596264,0.0,0.0,0.0,0.0,0.0,0.0,0.0,0.0,0.0,-0.000664083502539488,0.0013579407477084286,-5.834686483508918e-06,0.0,0.0,0.0,0.0,0.0,0.0,0.0,0.0,0.0,0.009745264799891273,-0.05622448689299189,9.810751229163301,0.0,0.0,0.0,0.0,0.0,0.0,0.0,0.0,0.0
2025/04/09 11:15:53.55175555,1744190153,54899204,mA1/imu,0.7069676575917042,0.7072454902694906,-0.0002685273079469969,0.0006895693234242249,0.0,0.0,0.0,0.0,0.0,0.0,0.0,0.0,0.0,-0.0007869257000577937,0.001947792050222585,-1.4059033161091603e-05,0.0,0.0,0.0,0.0,0.0,0.0,0.0,0.0,0.0,0.009069137276388046,0.0048105186011624355,9.80897720291139,0.0,0.0,0.0,0.0,0.0,0.0,0.0,0.0,0.0
2025/04/09 11:15:53.106736788,1744190153,106086462,mA1/imu,0.7069673597722173,0.7072458445827855,-0.00023879390360444005,0.000640714097103648,0.0,0.0,0.0,0.0,0.0,0.0,0.0,0.0,0.0,0.001242771444105148,0.0023976075180864626,-2.0859313907971182e-05,0.0,0.0,0.0,0.0,0.0,0.0,0.0,0.0,0.0,0.010047099015512775,-0.4888830884723118,9.808848082186502,0.0,0.0,0.0,0.0,0.0,0.0,0.0,0.0,0.0
2025/04/09 11:15:53.146442814,1744190153,146246990,mA1/imu,0.7069669368177407,0.7072463234664951,-0.00019624890143195268,0.000591334114510022,0.0,0.0,0.0,0.0,0.0,0.0,0.0,0.0,0.0,8.626222607239256e-05,0.002712450768164358,-2.7574815314057093e-05,0.0,0.0,0.0,0.0,0.0,0.0,0.0,0.0,0.0,0.010980696579294638,0.49190269664656744,9.810873104757063,0.0,0.0,0.0,0.0,0.0,0.0,0.0,0.0,0.0
2025/04/09 11:15:53.199215686,1744190153,197352872,mA1/imu,0.7069663769031163,0.7072469348712748,-0.00014601438330848811,0.0005419626072200815,0.0,0.0,0.0,0.0,0.0,0.0,0.0,0.0,0.0,-0.00020031610664324726,0.002865123038533848,-3.549150751961731e-05,0.0,0.0,0.0,0.0,0.0,0.0,0.0,0.0,0.0,0.011622812372786995,0.04142465705242336,9.810207265667225,0.0,0.0,0.0,0.0,0.0,0.0,0.0,0.0,0.0
2025/04/09 11:15:53.247529984,1744190153,247211496,mA1/imu,0.7069656746084388,0.7072476823886676,-9.507036213196037e-05,0.0004915718860184059,0.0,0.0,0.0,0.0,0.0,0.0,0.0,0.0,0.0,-0.00011483043670592242,0.002851141414957543,-4.3461050608303785e-05,0.0,0.0,0.0,0.0,0.0,0.0,0.0,0.0,0.0,0.011174159781473746,-0.25090708709856996,9.810025019551786,0.0,0.0,0.0,0.0,0.0,0.0,0.0,0.0,0.0
2025/04/09 11:15:53.298463899,1744190153,298236735,mA1/imu,0.7069648314374953,0.7072485645326668,-5.087067913369872e-05,0.0004387359228377428,0.0,0.0,0.0,0.0,0.0,0.0,0.0,0.0,0.0,0.0011149190052744578,0.0026500415717457273,-5.132255712259251e-05,0.0,0.0,0.0,0.0,0.0,0.0,0.0,0.0,0.0,0.012330469953517416,-0.48645015620032384,9.809038741376426,0.0,0.0,0.0,0.0,0.0,0.0,0.0,0.0,0.0
2025/04/09 11:15:53.348258633,1744190153,348134333,mA1/imu,0.7069638338577042,0.7072495873085394,-4.2728267638221604e-06,0.0003985609864701284,0.0,0.0,0.0,0.0,0.0,0.0,0.0,0.0,0.0,-0.0002272954758850189,0.002310372704920034,-5.995314406189661e-05,0.0,0.0,0.0,0.0,0.0,0.0,0.0,0.0,0.0,0.012613530237597497,0.18858326359248417,9.810670647818307,0.0,0.0,0.0,0.0,0.0,0.0,0.0,0.0,0.0
2025/04/09 11:15:53.400061197,1744190153,399873989,mA1/imu,0.706962747470699,0.7072506897334727,3.572572405735085e-05,0.0003664476504840184,0.0,0.0,0.0,0.0,0.0,0.0,0.0,0.0,0.0,-4.739374334564487e-05,0.0018397003156428316,-6.195804977975908e-05,0.0,0.0,0.0,0.0,0.0,0.0,0.0,0.0,0.0,0.012998768403037073,-0.22451848800803728,9.809676918317912,0.0,0.0,0.0,0.0,0.0,0.0,0.0,0.0,0.0
2025/04/09 11:15:53.450005395,1744190153,449726770,mA1/imu,0.7069616228688528,0.7072518243382973,6.442055317681957e-05,0.00034148320660628076,0.0,0.0,0.0,0.0,0.0,0.0,0.0,0.0,0.0,2.7550645343424053e-05,0.0012980166208394813,-6.458596625277168e-05,0.0,0.0,0.0,0.0,0.0,0.0,0.0,0.0,0.0,0.01263541544940022,0.08087253330358489,9.810081431910861,0.0,0.0,0.0,0.0,0.0,0.0,0.0,0.0,0.0
2025/04/09 11:15:53.500998907,1744190153,500687394,mA1/imu,0.7069604510947091,0.7072529991201818,8.498690184870612e-05,0.00032954620315927283,0.0,0.0,0.0,0.0,0.0,0.0,0.0,0.0,0.0,0.000600353376014737,0.0006591625835171604,-6.686255142146513e-05,0.0,0.0,0.0,0.0,0.0,0.0,0.0,0.0,0.0,0.012449712477680447,0.12659418164858272,9.80991832429124,0.0,0.0,0.0,0.0,0.0,0.0,0.0,0.0,0.0
2025/04/09 11:15:53.551322825,1744190153,551116586,mA1/imu,0.7069592233296259,0.7072542236794197,9.685840110192343e-05,0.0003320470500683647,0.0,0.0,0.0,0.0,0.0,0.0,0.0,0.0,0.0,0.00039032354455429243,-1.0677655063005729e-05,-7.065953656079321e-05,0.0,0.0,0.0,0.0,0.0,0.0,0.0,0.0,0.0,0.013272310265372678,0.11246112056160022,9.809202321113963,0.0,0.0,0.0,0.0,0.0,0.0,0.0,0.0,0.0
2025/04/09 11:15:53.602890539,1744190153,602675277,mA1/imu,0.7069579087027524,0.707255530273683,9.789466638021702e-05,0.00034732773649620715,0.0,0.0,0.0,0.0,0.0,0.0,0.0,0.0,0.0,0.0010437348734048191,-0.0006745908987176852,-7.639630237801079e-05,0.0,0.0,0.0,0.0,0.0,0.0,0.0,0.0,0.0,0.012069267822125699,-0.46668251729813837,9.808497702466655,0.0,0.0,0.0,0.0,0.0,0.0,0.0,0.0,0.0
2025/04/09 11:15:53.652427300,1744190153,652294997,mA1/imu,0.7069565029495298,0.7072569197858158,9.265058043152164e-05,0.00037916793293136446,0.0,0.0,0.0,0.0,0.0,0.0,0.0,0.0,0.0,0.00034395218811258564,-0.0013104200547275245,-8.135479630434768e-05,0.0,0.0,0.0,0.0,0.0,0.0,0.0,0.0,0.0,0.013199731948448734,-0.26137847098608546,9.810723545863732,0.0,0.0,0.0,0.0,0.0,0.0,0.0,0.0,0.0
2025/04/09 11:15:53.703989180,1744190153,703782557,mA1/imu,0.7069549631947228,0.7072584375031153,7.648333828701813e-05,0.00042041086919450724,0.0,0.0,0.0,0.0,0.0,0.0,0.0,0.0,0.0,0.0003136997966789879,-0.0018369894774569193,-9.043334029029752e-05,0.0,0.0,0.0,0.0,0.0,0.0,0.0,0.0,0.0,0.011869378481896887,-0.5135913445803617,9.810850745262591,0.0,0.0,0.0,0.0,0.0,0.0,0.0,0.0,0.0
2025/04/09 11:15:53.753761000,1744190153,753458668,mA1/imu,0.7069532648500008,0.7072601081094944,4.930845806234787e-05,0.0004672938548812174,0.0,0.0,0.0,0.0,0.0,0.0,0.0,0.0,0.0,0.00013051221364325207,-0.002257668421416826,-9.890890559639939e-05,0.0,0.0,0.0,0.0,0.0,0.0,0.0,0.0,0.0,0.011706434006816164,-0.5280421733421692,9.807901038390746,0.0,0.0,0.0,0.0,0.0,0.0,0.0,0.0,0.0
2025/04/09 11:15:53.805474954,1744190153,805265721,mA1/imu,0.7069514168986623,0.7072619194288456,1.7239194257248364e-05,0.000520743323657432,0.0,0.0,0.0,0.0,0.0,0.0,0.0,0.0,0.0,-0.0008895633074730983,-0.0025166742789218964,-0.00010750681435140391,0.0,0.0,0.0,0.0,0.0,0.0,0.0,0.0,0.0,0.01069560941680547,0.029702300120517354,9.808551699165506,0.0,0.0,0.0,0.0,0.0,0.0,0.0,0.0,0.0
2025/04/09 11:15:53.854805701,1744190153,854593014,mA1/imu,0.7069494275941262,0.7072638643813689,-1.8728465964173687e-05,0.0005767268977175744,0.0,0.0,0.0,0.0,0.0,0.0,0.0,0.0,0.0,-0.001085767516832422,-0.002625252860018315,-0.00011509213849467424,0.0,0.0,0.0,0.0,0.0,0.0,0.0,0.0,0.0,0.009715568379042687,-0.0804653398089664,9.809174565528702,0.0,0.0,0.0,0.0,0.0,0.0,0.0,0.0,0.0
2025/04/09 11:15:53.906026541,1744190153,905792785,mA1/imu,0.7069467093074346,0.7072665309256168,-5.620451700360206e-05,0.0006334610368669473,0.0,0.0,0.0,0.0,0.0,0.0,0.0,0.0,0.0,-0.0005968845749409436,-0.0026589688631145263,-0.00017221901765620014,0.0,0.0,0.0,0.0,0.0,0.0,0.0,0.0,0.0,0.009476676984271794,-0.1993905977689529,9.810432202409434,0.0,0.0,0.0,0.0,0.0,0.0,0.0,0.0,0.0
2025/04/09 11:15:53.955769415,1744190153,955595232,mA1/imu,0.7069435797106012,0.7072696077857792,-9.545280124210917e-05,0.0006840301700311328,0.0,0.0,0.0,0.0,0.0,0.0,0.0,0.0,0.0,-0.00045499265555103363,-0.0024327223765180724,-0.0001767714542292374,0.0,0.0,0.0,0.0,0.0,0.0,0.0,0.0,0.0,0.007901063591188445,0.046618177687667225,9.809974092900655,0.0,0.0,0.0,0.0,0.0,0.0,0.0,0.0,0.0
2025/04/09 11:15:54.701056,1744190154,336077,mA1/imu,0.7069388840233569,0.707274249773018,-0.00013134555912451746,0.000729802829010119,0.0,0.0,0.0,0.0,0.0,0.0,0.0,0.0,0.0,-8.215136957392651e-05,-0.00219255279209994,-0.0003306482386689989,0.0,0.0,0.0,0.0,0.0,0.0,0.0,0.0,0.0,0.010748206355568939,0.06509111365504844,9.81060586742116,0.0,0.0,0.0,0.0,0.0,0.0,0.0,0.0,0.0
2025/04/09 11:15:54.50437765,1744190154,50241793,mA1/imu,0.7069314975896457,0.7072815808729489,-0.00015516223733281565,0.0007739497419770325,0.0,0.0,0.0,0.0,0.0,0.0,0.0,0.0,0.0,-0.001225965232662766,-0.001643297925324399,-0.00042913516441684497,0.0,0.0,0.0,0.0,0.0,0.0,0.0,0.0,0.0,-0.0013081301522798496,0.574230244593788,9.81164281042106,0.0,0.0,0.0,0.0,0.0,0.0,0.0,0.0,0.0
2025/04/09 11:15:54.102685820,1744190154,101765721,mA1/imu,0.7069242844463995,0.7072887582325776,-0.0001697129280223703,0.0007998345368322764,0.0,0.0,0.0,0.0,0.0,0.0,0.0,0.0,0.0,-0.0005493194839377729,-0.0008150877753654045,-0.0004066715025602967,0.0,0.0,0.0,0.0,0.0,0.0,0.0,0.0,0.0,0.0023034976879729493,-0.138901341366667,9.809997138959996,0.0,0.0,0.0,0.0,0.0,0.0,0.0,0.0,0.0
2025/04/09 11:15:54.151759013,1744190154,151624963,mA1/imu,0.7069165577522905,0.7072964694410143,-0.00017229957706740102,0.000809323658754407,0.0,0.0,0.0,0.0,0.0,0.0,0.0,0.0,0.0,-0.0005972405516072257,-2.626776411378243e-05,-0.0004565189250462532,0.0,0.0,0.0,0.0,0.0,0.0,0.0,0.0,0.0,0.002938367499875954,0.4592278632992934,9.81065546869826,0.0,0.0,0.0,0.0,0.0,0.0,0.0,0.0,0.0
2025/04/09 11:15:54.203313435,1744190154,203052073,mA1/imu,0.7069079247532898,0.7073051029309522,-0.00015847995658029268,0.0008075722479502665,0.0,0.0,0.0,0.0,0.0,0.0,0.0,0.0,0.0,-0.0010133634715348216,0.0007467485813819266,-0.0005086712622667281,0.0,0.0,0.0,0.0,0.0,0.0,0.0,0.0,0.0,0.0033736281598836793,0.08562174746018196,9.81043168230381,0.0,0.0,0.0,0.0,0.0,0.0,0.0,0.0,0.0
2025/04/09 11:15:54.252934755,1744190154,252817466,mA1/imu,0.7068983894260719,0.7073146620356916,-0.00013879901146443183,0.0007852585533028498,0.0,0.0,0.0,0.0,0.0,0.0,0.0,0.0,0.0,0.000788778095236206,0.0014668867725527435,-0.0005604073289816969,0.0,0.0,0.0,0.0,0.0,0.0,0.0,0.0,0.0,0.003178243048049475,-0.5239495643682496,9.809061080915846,0.0,0.0,0.0,0.0,0.0,0.0,0.0,0.0,0.0
2025/04/09 11:15:54.304629192,1744190154,304390875,mA1/imu,0.7068921479657528,0.7073209461023083,-0.00010034958986795663,0.00074851804212737,0.0,0.0,0.0,0.0,0.0,0.0,0.0,0.0,0.0,-0.0005729151123990771,0.002648229511043663,-0.00010755576895163095,0.0,0.0,0.0,0.0,0.0,0.0,0.0,0.0,0.0,0.0012884467673241456,0.6349756774188074,9.810895893186066,0.0,0.0,0.0,0.0,0.0,0.0,0.0,0.0,0.0
2025/04/09 11:15:54.353942403,1744190154,353722783,mA1/imu,0.7068910162825081,0.7073221327277026,-4.657590969160371e-05,0.0006996308324689979,0.0,0.0,0.0,0.0,0.0,0.0,0.0,0.0,0.0,-0.000738554072725618,0.003018386856178574,-5.8585570972095534e-05,0.0,0.0,0.0,0.0,0.0,0.0,0.0,0.0,0.0,0.008761197251513565,-0.014623175694185309,9.808960525100028,0.0,0.0,0.0,0.0,0.0,0.0,0.0,0.0,0.0
2025/04/09 11:15:54.405422501,1744190154,405162503,mA1/imu,0.7068901258223678,0.7073230800340728,4.069760491668382e-06,0.0006406632396778926,0.0,0.0,0.0,0.0,0.0,0.0,0.0,0.0,0.0,-0.0011891231469325393,0.00314375066344944,-4.5032243126963994e-05,0.0,0.0,0.0,0.0,0.0,0.0,0.0,0.0,0.0,0.010699397416963933,0.4980146012386271,9.81023119904107,0.0,0.0,0.0,0.0,0.0,0.0,0.0,0.0,0.0
2025/04/09 11:15:54.456886059,1744190154,455191334,mA1/imu,0.7068894757144992,0.7073237786635687,5.5463101842288354e-05,0.0005815367707525908,0.0,0.0,0.0,0.0,0.0,0.0,0.0,0.0,0.0,6.659741988527177e-05,0.003087627731581665,-3.1825001693011414e-05,0.0,0.0,0.0,0.0,0.0,0.0,0.0,0.0,0.0,0.010647047980971694,0.031163008685330146,9.811522893355479,0.0,0.0,0.0,0.0,0.0,0.0,0.0,0.0,0.0
2025/04/09 11:15:54.506911017,1744190154,506682959,mA1/imu,0.7068890382529421,0.7073242534583303,0.00010484403774034803,0.0005263793059828918,0.0,0.0,0.0,0.0,0.0,0.0,0.0,0.0,0.0,-0.0003907745075784375,0.002845149307656915,-2.025097273043685e-05,0.0,0.0,0.0,0.0,0.0,0.0,0.0,0.0,0.0,0.012065756029482358,-0.005312761343875995,9.812384899046085,0.0,0.0,0.0,0.0,0.0,0.0,0.0,0.0,0.0
2025/04/09 11:15:54.547289050,1744190154,546065900,mA1/imu,0.706888789383453,0.7073245343103636,0.00014247537155831835,0.00047149484826997145,0.0,0.0,0.0,0.0,0.0,0.0,0.0,0.0,0.0,0.0007662508814784518,0.0024459421315685555,-9.621406898193023e-06,0.0,0.0,0.0,0.0,0.0,0.0,0.0,0.0,0.0,0.011628319836804828,-0.14800043986436145,9.810830295566607,0.0,0.0,0.0,0.0,0.0,0.0,0.0,0.0,0.0
2025/04/09 11:15:54.598632061,1744190154,598489111,mA1/imu,0.7068884624129015,0.7073248795245003,0.00017655349065363792,0.0004305136933647986,0.0,0.0,0.0,0.0,0.0,0.0,0.0,0.0,0.0,-0.0004043277832264699,0.0018860501281124482,-3.101529124939586e-05,0.0,0.0,0.0,0.0,0.0,0.0,0.0,0.0,0.0,0.013140349429174518,0.6177617447685471,9.81096555342907,0.0,0.0,0.0,0.0,0.0,0.0,0.0,0.0,0.0
2025/04/09 11:15:54.648457378,1744190154,648254523,mA1/imu,0.7068879132175258,0.7073254427242385,0.0001964469863350866,0.00039702709422272434,0.0,0.0,0.0,0.0,0.0,0.0,0.0,0.0,0.0,0.0011093259484608663,0.001243354582222193,-2.8264930956094395e-05,0.0,0.0,0.0,0.0,0.0,0.0,0.0,0.0,0.0,0.011934754219090384,-0.535485564743024,9.809760090368288,0.0,0.0,0.0,0.0,0.0,0.0,0.0,0.0,0.0
2025/04/09 11:15:54.699435749,1744190154,699255877,mA1/imu,0.7068874962804256,0.7073258660674935,0.00020781914596734263,0.0003789531161846633,0.0,0.0,0.0,0.0,0.0,0.0,0.0,0.0,0.0,0.00039750102632716427,0.0005409105098799762,-2.0248012721002687e-05,0.0,0.0,0.0,0.0,0.0,0.0,0.0,0.0,0.0,0.01263603230065349,-0.3157139651222429,9.810251408579767,0.0,0.0,0.0,0.0,0.0,0.0,0.0,0.0,0.0
2025/04/09 11:15:54.749331839,1744190154,749201332,mA1/imu,0.7068872307174054,0.7073261361731118,0.00020436097000588708,0.0003719834513316013,0.0,0.0,0.0,0.0,0.0,0.0,0.0,0.0,0.0,0.0012692765513202134,-0.00021460423867607892,-1.1229826743627289e-05,0.0,0.0,0.0,0.0,0.0,0.0,0.0,0.0,0.0,0.012995967765467933,-0.5238925103856937,9.809275704368194,0.0,0.0,0.0,0.0,0.0,0.0,0.0,0.0,0.0
2025/04/09 11:15:54.801979968,1744190154,801734670,mA1/imu,0.7068871425525304,0.7073262244149185,0.00018969647815434063,0.00037942601561524655,0.0,0.0,0.0,0.0,0.0,0.0,0.0,0.0,0.0,-0.00029929084509957036,-0.0009072120838882957,-9.586104058925478e-07,0.0,0.0,0.0,0.0,0.0,0.0,0.0,0.0,0.0,0.011856143228699656,0.0018604019503026398,9.809281241571972,0.0,0.0,0.0,0.0,0.0,0.0,0.0,0.0,0.0
2025/04/09 11:15:54.851094248,1744190154,850855578,mA1/imu,0.7068872460888095,0.707326114433559,0.0001660331289949259,0.00040198296309354426,0.0,0.0,0.0,0.0,0.0,0.0,0.0,0.0,0.0,-5.715264690331069e-05,-0.0015532552365137029,9.67465696494115e-06,0.0,0.0,0.0,0.0,0.0,0.0,0.0,0.0,0.0,0.010744222233312797,-0.2914770202492263,9.808701969801135,0.0,0.0,0.0,0.0,0.0,0.0,0.0,0.0,0.0
2025/04/09 11:15:54.902567553,1744190154,902434398,mA1/imu,0.7068875001514089,0.7073258506607745,0.000129120506424275,0.00043179230927140576,0.0,0.0,0.0,0.0,0.0,0.0,0.0,0.0,0.0,-0.0013685423631496771,-0.0020885564257056744,1.6761999906383313e-05,0.0,0.0,0.0,0.0,0.0,0.0,0.0,0.0,0.0,0.01111212115327273,0.5679976689014159,9.809709553305522,0.0,0.0,0.0,0.0,0.0,0.0,0.0,0.0,0.0
2025/04/09 11:15:54.954316597,1744190154,952698693,mA1/imu,0.7068878702148286,0.7073254604802562,8.752891430746114e-05,0.00047353798789016513,0.0,0.0,0.0,0.0,0.0,0.0,0.0,0.0,0.0,-0.0009371069778988515,-0.002501174704600154,2.3121021009466147e-05,0.0,0.0,0.0,0.0,0.0,0.0,0.0,0.0,0.0,0.009838805812580224,0.2135013117306506,9.808971382041921,0.0,0.0,0.0,0.0,0.0,0.0,0.0,0.0,0.0
2025/04/09 11:15:55.4522867,1744190155,4288785,mA1/imu,0.7068883805501848,0.7073249220844728,3.9004054963507413e-05,0.0005201153867679957,0.0,0.0,0.0,0.0,0.0,0.0,0.0,0.0,0.0,-0.00048185668482610773,-0.0027791342381442655,3.2464299426286614e-05,0.0,0.0,0.0,0.0,0.0,0.0,0.0,0.0,0.0,0.009169264980500084,0.46628831977137,9.809124425285981,0.0,0.0,0.0,0.0,0.0,0.0,0.0,0.0,0.0
2025/04/09 11:15:55.55498119,1744190155,55283107,mA1/imu,0.7068890518673148,0.7073242113551431,-8.904179795456689e-06,0.0005729761504595525,0.0,0.0,0.0,0.0,0.0,0.0,0.0,0.0,0.0,0.0010613898171797015,-0.0028822104128093397,4.1318789311449723e-05,0.0,0.0,0.0,0.0,0.0,0.0,0.0,0.0,0.0,0.008762649828688894,-0.5060367616103467,9.809173363918543,0.0,0.0,0.0,0.0,0.0,0.0,0.0,0.0,0.0
2025/04/09 11:15:55.97784295,1744190155,96866765,mA1/imu,0.7068898565081104,0.7073233575456815,-5.284215599160694e-05,0.0006291613095634484,0.0,0.0,0.0,0.0,0.0,0.0,0.0,0.0,0.0,0.0010054435513553632,-0.002793198286464179,4.8890636226922235e-05,0.0,0.0,0.0,0.0,0.0,0.0,0.0,0.0,0.0,0.007675946021013654,-0.5069041208131135,9.808779529446088,0.0,0.0,0.0,0.0,0.0,0.0,0.0,0.0,0.0
2025/04/09 11:15:55.146849537,1744190155,146664292,mA1/imu,0.7068907911136311,0.7073223688052984,-9.205510740470027e-05,0.0006837779343534557,0.0,0.0,0.0,0.0,0.0,0.0,0.0,0.0,0.0,-0.0004555234423121483,-0.0025480834585272856,5.656089585465388e-05,0.0,0.0,0.0,0.0,0.0,0.0,0.0,0.0,0.0,0.00800080584538572,-0.09199631469033151,9.810657359395671,0.0,0.0,0.0,0.0,0.0,0.0,0.0,0.0,0.0
2025/04/09 11:15:55.198456175,1744190155,197768137,mA1/imu,0.7068918972407553,0.7073212095038565,-0.00012522242593083723,0.0007324757408098925,0.0,0.0,0.0,0.0,0.0,0.0,0.0,0.0,0.0,-0.0012612729304770822,-0.002144473126972723,6.811330293881722e-05,0.0,0.0,0.0,0.0,0.0,0.0,0.0,0.0,0.0,0.00759957808550648,-0.0780456680318317,9.810262347053786,0.0,0.0,0.0,0.0,0.0,0.0,0.0,0.0,0.0
2025/04/09 11:15:55.247904191,1744190155,247622897,mA1/imu,0.7068932231141861,0.7073198376609415,-0.00015138709863595244,0.0007716530846951213,0.0,0.0,0.0,0.0,0.0,0.0,0.0,0.0,0.0,-0.001153572993837393,-0.0016245742039171114,8.068186125064018e-05,0.0,0.0,0.0,0.0,0.0,0.0,0.0,0.0,0.0,0.006543820471426748,-0.017285084811836736,9.808122507676996,0.0,0.0,0.0,0.0,0.0,0.0,0.0,0.0,0.0
2025/04/09 11:15:55.298977753,1744190155,298768321,mA1/imu,0.7068947104093525,0.7073183165163895,-0.00016882664049700327,0.0007993830519090857,0.0,0.0,0.0,0.0,0.0,0.0,0.0,0.0,0.0,-0.0014063007348822205,-0.0010221158629330788,8.728692922731935e-05,0.0,0.0,0.0,0.0,0.0,0.0,0.0,0.0,0.0,0.006948517703149609,0.5949866558443762,9.809614986510185,0.0,0.0,0.0,0.0,0.0,0.0,0.0,0.0,0.0
2025/04/09 11:15:55.348704291,1744190155,348503849,mA1/imu,0.7068963001536895,0.7073167070205644,-0.00017439532477824405,0.000816324004687068,0.0,0.0,0.0,0.0,0.0,0.0,0.0,0.0,0.0,-0.0012304123134824635,-0.0003616756746157553,9.224526420806201e-05,0.0,0.0,0.0,0.0,0.0,0.0,0.0,0.0,0.0,0.006550843352521302,0.6075642267340549,9.810779687934811,0.0,0.0,0.0,0.0,0.0,0.0,0.0,0.0,0.0
2025/04/09 11:15:55.400716829,1744190155,400531551,mA1/imu,0.7068980203637596,0.7073149860500836,-0.0001714222728194619,0.0008184920112900161,0.0,0.0,0.0,0.0,0.0,0.0,0.0,0.0,0.0,3.204123822698726e-07,0.00030035680228579763,0.0001006873579912495,0.0,0.0,0.0,0.0,0.0,0.0,0.0,0.0,0.0,0.006182569629163053,0.6903490250821469,9.810756717645425,0.0,0.0,0.0,0.0,0.0,0.0,0.0,0.0,0.0
2025/04/09 11:15:55.451046873,1744190155,450831341,mA1/imu,0.7068998733562548,0.7073131414359216,-0.0001489442724807297,0.0008165883678490487,0.0,0.0,0.0,0.0,0.0,0.0,0.0,0.0,0.0,0.0018725379425532725,0.0009251536082821683,0.00010839625311735151,0.0,0.0,0.0,0.0,0.0,0.0,0.0,0.0,0.0,0.007057723060207827,-0.44201066397680244,9.809726479777453,0.0,0.0,0.0,0.0,0.0,0.0,0.0,0.0,0.0
2025/04/09 11:15:55.502987157,1744190155,502813860,mA1/imu,0.7069018493662714,0.7073111808555692,-0.0001088570572956176,0.0008105241430325734,0.0,0.0,0.0,0.0,0.0,0.0,0.0,0.0,0.0,0.0005604443779087395,0.0015142242337523265,0.00011552913934515251,0.0,0.0,0.0,0.0,0.0,0.0,0.0,0.0,0.0,0.0076196298088512205,-0.5316584036924615,9.808937324569674,0.0,0.0,0.0,0.0,0.0,0.0,0.0,0.0,0.0
2025/04/09 11:15:55.552901937,1744190155,552681705,mA1/imu,0.7069039572037881,0.7073091058131393,-6.756825429385925e-05,0.0007871200501464652,0.0,0.0,0.0,0.0,0.0,0.0,0.0,0.0,0.0,-0.0005784169050690191,0.0020085489003662995,0.00012222508923158737,0.0,0.0,0.0,0.0,0.0,0.0,0.0,0.0,0.0,0.008190638718896897,-0.6147877397409354,9.810138284420907,0.0,0.0,0.0,0.0,0.0,0.0,0.0,0.0,0.0
2025/04/09 11:15:55.603933683,1744190155,603701296,mA1/imu,0.7069059215654697,0.7073071894760624,-3.0723142511534336e-05,0.0007462085739555469,0.0,0.0,0.0,0.0,0.0,0.0,0.0,0.0,0.0,0.0007127555648190157,0.0023100029038489634,0.00010260887125952209,0.0,0.0,0.0,0.0,0.0,0.0,0.0,0.0,0.0,0.01044254573688942,-0.5321604368919253,9.810202698661636,0.0,0.0,0.0,0.0,0.0,0.0,0.0,0.0,0.0
2025/04/09 11:15:55.653770668,1744190155,653545046,mA1/imu,0.7069074870412343,0.7073056647920556,1.5928170969620745e-05,0.0007078590316736142,0.0,0.0,0.0,0.0,0.0,0.0,0.0,0.0,0.0,-0.0006852436949178765,0.0024522616385200076,7.95372797107047e-05,0.0,0.0,0.0,0.0,0.0,0.0,0.0,0.0,0.0,0.011311938454244903,0.6277868232601989,9.811912605729423,0.0,0.0,0.0,0.0,0.0,0.0,0.0,0.0,0.0
2025/04/09 11:15:55.704822564,1744190155,704596946,mA1/imu,0.7069086145527655,0.7073045682764165,6.789365220086154e-05,0.0006736147663586211,0.0,0.0,0.0,0.0,0.0,0.0,0.0,0.0,0.0,0.000127231013081712,0.0024085713791894533,5.4566212757029705e-05,0.0,0.0,0.0,0.0,0.0,0.0,0.0,0.0,0.0,0.011559791895925282,0.05332258867748546,9.810385827817187,0.0,0.0,0.0,0.0,0.0,0.0,0.0,0.0,0.0
2025/04/09 11:15:55.746631865,1744190155,746502014,mA1/imu,0.7069092575076118,0.7073039549789248,0.00011347377965947988,0.0006356452700714728,0.0,0.0,0.0,0.0,0.0,0.0,0.0,0.0,0.0,-0.0015988654441037075,0.002304272415368333,2.280644343643652e-05,0.0,0.0,0.0,0.0,0.0,0.0,0.0,0.0,0.0,0.01214720955929876,-0.0719483031969403,9.81074858554075,0.0,0.0,0.0,0.0,0.0,0.0,0.0,0.0,0.0
2025/04/09 11:15:55.798858001,1744190155,798670014,mA1/imu,0.7069092153120801,0.7073040247369993,0.00014904682234776186,0.0005963914370566598,0.0,0.0,0.0,0.0,0.0,0.0,0.0,0.0,0.0,0.00014714781076880635,0.00199442140096548,-1.9175061198392062e-05,0.0,0.0,0.0,0.0,0.0,0.0,0.0,0.0,0.0,0.012652845741116713,0.04245707382816519,9.81030096171854,0.0,0.0,0.0,0.0,0.0,0.0,0.0,0.0,0.0
2025/04/09 11:15:55.855678762,1744190155,853373064,mA1/imu,0.7069084148819682,0.7073048433072908,0.00018032992662234143,0.0005648754105973596,0.0,0.0,0.0,0.0,0.0,0.0,0.0,0.0,0.0,0.0003202429558474222,0.001618839170202026,-6.197206084941762e-05,0.0,0.0,0.0,0.0,0.0,0.0,0.0,0.0,0.0,0.012586506723364067,0.047835126459659434,9.810534768263404,0.0,0.0,0.0,0.0,0.0,0.0,0.0,0.0,0.0
2025/04/09 11:15:55.904655825,1744190155,904394571,mA1/imu,0.7069070672486037,0.707306199351345,0.0002070169655430318,0.0005438539412571884,0.0,0.0,0.0,0.0,0.0,0.0,0.0,0.0,0.0,-0.0008414789473074516,0.0011601767943560106,-8.494749419577663e-05,0.0,0.0,0.0,0.0,0.0,0.0,0.0,0.0,0.0,0.013147484639931612,0.4537712826649903,9.810985852540496,0.0,0.0,0.0,0.0,0.0,0.0,0.0,0.0,0.0
2025/04/09 11:15:55.955208935,1744190155,954993450,mA1/imu,0.7069053078339753,0.7073079662133609,0.00022067910874502348,0.0005272456757291064,0.0,0.0,0.0,0.0,0.0,0.0,0.0,0.0,0.0,-0.0006316654750789396,0.0006480046505068773,-0.00010962695286310616,0.0,0.0,0.0,0.0,0.0,0.0,0.0,0.0,0.0,0.012633924695331408,-0.09223559259743622,9.810044016091423,0.0,0.0,0.0,0.0,0.0,0.0,0.0,0.0,0.0
2025/04/09 11:15:56.808492,1744190156,553685,mA1/imu,0.7069043589180862,0.7073089272653283,0.000217439491421591,0.0005113447443007708,0.0,0.0,0.0,0.0,0.0,0.0,0.0,0.0,0.0,0.00039574128973233905,0.0001422351969372976,-2.822743486720417e-05,0.0,0.0,0.0,0.0,0.0,0.0,0.0,0.0,0.0,0.015147434924226023,0.049324466075925166,9.809405032194906,0.0,0.0,0.0,0.0,0.0,0.0,0.0,0.0,0.0
2025/04/09 11:15:56.50696679,1744190156,50406661,mA1/imu,0.7069039507941476,0.7073093368493103,0.00020952864150911295,0.0005123037796940994,0.0,0.0,0.0,0.0,0.0,0.0,0.0,0.0,0.0,-0.0005153854692122728,-0.0004993224710197016,-1.992762973055355e-05,0.0,0.0,0.0,0.0,0.0,0.0,0.0,0.0,0.0,0.014942574809692483,0.596920299492789,9.809277979457573,0.0,0.0,0.0,0.0,0.0,0.0,0.0,0.0,0.0
2025/04/09 11:15:56.101873677,1744190156,101755401,mA1/imu,0.7069037215226825,0.7073095647939828,0.00018828998204647833,0.0005221065131864576,0.0,0.0,0.0,0.0,0.0,0.0,0.0,0.0,0.0,0.0001944609683630995,-0.0011155747148410438,-8.982037612161446e-06,0.0,0.0,0.0,0.0,0.0,0.0,0.0,0.0,0.0,0.014291385252526097,-0.06649223618676195,9.809947263140112,0.0,0.0,0.0,0.0,0.0,0.0,0.0,0.0,0.0
2025/04/09 11:15:56.151764998,1744190156,151534481,mA1/imu,0.706903700258108,0.7073095793535665,0.0001564829107330006,0.0005413216922317463,0.0,0.0,0.0,0.0,0.0,0.0,0.0,0.0,0.0,-0.0001583881600511355,-0.001655972419435639,3.171370761654215e-06,0.0,0.0,0.0,0.0,0.0,0.0,0.0,0.0,0.0,0.014749967403366374,0.43620277331200535,9.810431459115991,0.0,0.0,0.0,0.0,0.0,0.0,0.0,0.0,0.0
2025/04/09 11:15:56.196718053,1744190156,196484885,mA1/imu,0.7069031070191578,0.7073101596063209,0.00011524631230867835,0.0005675584808928738,0.0,0.0,0.0,0.0,0.0,0.0,0.0,0.0,0.0,0.0009525744452908775,-0.002052269201031649,-8.535261438595604e-05,0.0,0.0,0.0,0.0,0.0,0.0,0.0,0.0,0.0,0.011064467464988318,-0.5307059241740171,9.808774863866438,0.0,0.0,0.0,0.0,0.0,0.0,0.0,0.0,0.0
2025/04/09 11:15:56.247352276,1744190156,246323548,mA1/imu,0.7069011281648854,0.7073121162996481,6.992416726781854e-05,0.0006002045787003728,0.0,0.0,0.0,0.0,0.0,0.0,0.0,0.0,0.0,0.0007421260344182668,-0.0022932467100151696,-0.00012222049808725106,0.0,0.0,0.0,0.0,0.0,0.0,0.0,0.0,0.0,0.011186908805686527,0.05353689523359143,9.809025578602485,0.0,0.0,0.0,0.0,0.0,0.0,0.0,0.0,0.0
2025/04/09 11:15:56.300459486,1744190156,300105675,mA1/imu,0.7068987502493871,0.7073144665844839,2.1052395763291037e-05,0.0006338871810611007,0.0,0.0,0.0,0.0,0.0,0.0,0.0,0.0,0.0,0.0008023437306691868,-0.002344116773126803,-0.00014388984852975386,0.0,0.0,0.0,0.0,0.0,0.0,0.0,0.0,0.0,0.009149331876177074,0.06138549115474837,9.807752438770605,0.0,0.0,0.0,0.0,0.0,0.0,0.0,0.0,0.0
2025/04/09 11:15:56.350136327,1744190156,349934884,mA1/imu,0.7068959883759759,0.7073171904455834,-2.1160006167376608e-05,0.000673253572247358,0.0,0.0,0.0,0.0,0.0,0.0,0.0,0.0,0.0,0.0008024414029378198,-0.0022813196456407496,-0.00016420337046444805,0.0,0.0,0.0,0.0,0.0,0.0,0.0,0.0,0.0,0.00992993148347875,0.009402925661166777,9.809213644888363,0.0,0.0,0.0,0.0,0.0,0.0,0.0,0.0,0.0
2025/04/09 11:15:56.401201586,1744190156,400979296,mA1/imu,0.7068928232986353,0.7073203136842451,-5.908947218401521e-05,0.0007118475537328096,0.0,0.0,0.0,0.0,0.0,0.0,0.0,0.0,0.0,3.1408415076611044e-05,-0.0020767770635776823,-0.00018868961029111536,0.0,0.0,0.0,0.0,0.0,0.0,0.0,0.0,0.0,0.008894502845860996,0.016309544539344484,9.810973563862367,0.0,0.0,0.0,0.0,0.0,0.0,0.0,0.0,0.0
2025/04/09 11:15:56.451140682,1744190156,450886326,mA1/imu,0.7068892351498228,0.7073238631804336,-9.434302893336248e-05,0.0007435752811239698,0.0,0.0,0.0,0.0,0.0,0.0,0.0,0.0,0.0,-0.000329695049437426,-0.0017503079565445087,-0.0002120902233420309,0.0,0.0,0.0,0.0,0.0,0.0,0.0,0.0,0.0,0.008160633215686787,-0.17212499327533765,9.809864387177857,0.0,0.0,0.0,0.0,0.0,0.0,0.0,0.0,0.0
2025/04/09 11:15:56.502734666,1744190156,502538145,mA1/imu,0.706885074235258,0.7073279917556656,-0.00012453874971391009,0.0007670674093511027,0.0,0.0,0.0,0.0,0.0,0.0,0.0,0.0,0.0,0.0011145199942150352,-0.0013529322418193682,-0.00025057621226364256,0.0,0.0,0.0,0.0,0.0,0.0,0.0,0.0,0.0,0.008022818023556772,-0.5274976187851822,9.808560422909224,0.0,0.0,0.0,0.0,0.0,0.0,0.0,0.0,0.0
2025/04/09 11:15:56.552320825,1744190156,552108399,mA1/imu,0.7068802364303527,0.7073327994396914,-0.00014061932046422008,0.0007889278703233239,0.0,0.0,0.0,0.0,0.0,0.0,0.0,0.0,0.0,-0.00010961464769390641,-0.0008762442160175044,-0.00028809084052214593,0.0,0.0,0.0,0.0,0.0,0.0,0.0,0.0,0.0,0.00826428208728161,-0.02372616525057054,9.809447826823261,0.0,0.0,0.0,0.0,0.0,0.0,0.0,0.0,0.0
2025/04/09 11:15:56.603448410,1744190156,603179156,mA1/imu,0.7068749628235421,0.7073380558148551,-0.00014980943843627528,0.0007995538813212776,0.0,0.0,0.0,0.0,0.0,0.0,0.0,0.0,0.0,0.0004393732910480432,-0.0003516647606617832,-0.00030464137390157493,0.0,0.0,0.0,0.0,0.0,0.0,0.0,0.0,0.0,0.007854968249010535,-0.3929239758773285,9.809987462198222,0.0,0.0,0.0,0.0,0.0,0.0,0.0,0.0,0.0
2025/04/09 11:15:56.653188672,1744190156,652969304,mA1/imu,0.706869405460203,0.7073436048797369,-0.00014606884494727947,0.0008043158398746473,0.0,0.0,0.0,0.0,0.0,0.0,0.0,0.0,0.0,0.00033100837506189846,0.0001878036338712923,-0.0003202876873938494,0.0,0.0,0.0,0.0,0.0,0.0,0.0,0.0,0.0,0.00788696393545945,-0.2918174076300119,9.810482751106287,0.0,0.0,0.0,0.0,0.0,0.0,0.0,0.0,0.0
2025/04/09 11:15:56.704196860,1744190156,703996694,mA1/imu,0.7068634379388643,0.7073495738118589,-0.0001292627178880268,0.0008023868022415124,0.0,0.0,0.0,0.0,0.0,0.0,0.0,0.0,0.0,-0.00015962548206224517,0.0007448223281475336,-0.0003482035033773608,0.0,0.0,0.0,0.0,0.0,0.0,0.0,0.0,0.0,0.008048374941727388,-0.16555114428664433,9.81033003683164,0.0,0.0,0.0,0.0,0.0,0.0,0.0,0.0,0.0
2025/04/09 11:15:56.754181116,1744190156,753851115,mA1/imu,0.7068569799779639,0.7073560435847945,-0.00010267589810922543,0.0007917816355606619,0.0,0.0,0.0,0.0,0.0,0.0,0.0,0.0,0.0,0.0002184663055548822,0.0012340512748407774,-0.00037528101796590116,0.0,0.0,0.0,0.0,0.0,0.0,0.0,0.0,0.0,0.008492328450226686,-0.5669260394302287,9.809211783139787,0.0,0.0,0.0,0.0,0.0,0.0,0.0,0.0,0.0
2025/04/09 11:15:56.805694061,1744190156,805453048,mA1/imu,0.706850221861058,0.7073628257238332,-7.21599149518006e-05,0.0007690461063093433,0.0,0.0,0.0,0.0,0.0,0.0,0.0,0.0,0.0,0.0002900394664482718,0.0016637278004846623,-0.00038634785760164074,0.0,0.0,0.0,0.0,0.0,0.0,0.0,0.0,0.0,0.008782086993972222,-0.5590067112622982,9.809272220739405,0.0,0.0,0.0,0.0,0.0,0.0,0.0,0.0,0.0
2025/04/09 11:15:56.856147604,1744190156,854728788,mA1/imu,0.7068432597438542,0.707369815981589,-3.472035148226318e-05,0.0007405318037771622,0.0,0.0,0.0,0.0,0.0,0.0,0.0,0.0,0.0,0.00098979360253923,0.001985171974081418,-0.0003990231092092193,0.0,0.0,0.0,0.0,0.0,0.0,0.0,0.0,0.0,0.008662171727782643,-0.48880828135887017,9.810491856119036,0.0,0.0,0.0,0.0,0.0,0.0,0.0,0.0,0.0
2025/04/09 11:15:56.906736170,1744190156,906545223,mA1/imu,0.7068360438004466,0.707377051773722,1.679277896629209e-05,0.000716607600328768,0.0,0.0,0.0,0.0,0.0,0.0,0.0,0.0,0.0,-0.00022474534886597977,0.0021975352558018493,-0.00041257002153971534,0.0,0.0,0.0,0.0,0.0,0.0,0.0,0.0,0.0,0.009526401083310827,0.03764417468767312,9.811153980575753,0.0,0.0,0.0,0.0,0.0,0.0,0.0,0.0,0.0
2025/04/09 11:15:56.946771734,1744190156,946456612,mA1/imu,0.7068285940242096,0.707384519916366,6.930767520756895e-05,0.0006890928075520592,0.0,0.0,0.0,0.0,0.0,0.0,0.0,0.0,0.0,-0.002664480454464761,0.002297145866706279,-0.0004268707946886088,0.0,0.0,0.0,0.0,0.0,0.0,0.0,0.0,0.0,0.009322307120943642,0.4982654200425326,9.811856053771303,0.0,0.0,0.0,0.0,0.0,0.0,0.0,0.0,0.0
2025/04/09 11:15:56.999780564,1744190156,999553468,mA1/imu,0.7068189145946675,0.707394225009292,0.00010320930724380429,0.0006494170908869102,0.0,0.0,0.0,0.0,0.0,0.0,0.0,0.0,0.0,-0.0009972263846312682,0.002060320571459018,-0.0005924596933487422,0.0,0.0,0.0,0.0,0.0,0.0,0.0,0.0,0.0,0.0043022327782739666,0.6107918413228535,9.809838982359073,0.0,0.0,0.0,0.0,0.0,0.0,0.0,0.0,0.0
2025/04/09 11:15:57.49567976,1744190157,49362605,mA1/imu,0.7068087303359178,0.7074044205146567,0.00014607101453140291,0.0006190480671145328,0.0,0.0,0.0,0.0,0.0,0.0,0.0,0.0,0.0,0.0003720172561026951,0.0020421886986032815,-0.0005814568027476581,0.0,0.0,0.0,0.0,0.0,0.0,0.0,0.0,0.0,0.007830335881136095,0.3886047405420437,9.8121952486537,0.0,0.0,0.0,0.0,0.0,0.0,0.0,0.0,0.0
2025/04/09 11:15:57.101104940,1744190157,100910666,mA1/imu,0.706798520598347,0.7074146283716476,0.00019405204577807545,0.0005976534075257139,0.0,0.0,0.0,0.0,0.0,0.0,0.0,0.0,0.0,-0.0006504715412561365,0.001895651065955182,-0.0005592863582276926,0.0,0.0,0.0,0.0,0.0,0.0,0.0,0.0,0.0,0.007213730422632166,0.20972812552928566,9.811228916078493,0.0,0.0,0.0,0.0,0.0,0.0,0.0,0.0,0.0
2025/04/09 11:15:57.151350235,1744190157,151115823,mA1/imu,0.7067883027284925,0.7074248496401332,0.00022820499854774931,0.0005702282792068966,0.0,0.0,0.0,0.0,0.0,0.0,0.0,0.0,0.0,-0.0007780947992020228,0.0016229563074758979,-0.0005927490441431532,0.0,0.0,0.0,0.0,0.0,0.0,0.0,0.0,0.0,0.008639967177513785,0.6142611877593814,9.810929355290455,0.0,0.0,0.0,0.0,0.0,0.0,0.0,0.0,0.0
2025/04/09 11:15:57.205703026,1744190157,203279810,mA1/imu,0.7067771145847036,0.7074360286189929,0.0002609599767025363,0.0005546269004932767,0.0,0.0,0.0,0.0,0.0,0.0,0.0,0.0,0.0,-0.001878801266565718,0.0011848789573826017,-0.000663631221890961,0.0,0.0,0.0,0.0,0.0,0.0,0.0,0.0,0.0,0.00998998369761434,0.5323856626831831,9.810534018741794,0.0,0.0,0.0,0.0,0.0,0.0,0.0,0.0,0.0
2025/04/09 11:15:57.254857476,1744190157,254642013,mA1/imu,0.7067648523971373,0.707448281813969,0.00028010254647291673,0.0005417721652714364,0.0,0.0,0.0,0.0,0.0,0.0,0.0,0.0,0.0,-2.013549607000632e-05,0.0007141071986753106,-0.0007108529537725301,0.0,0.0,0.0,0.0,0.0,0.0,0.0,0.0,0.0,0.008584304435157081,-0.603234094767219,9.809119329065286,0.0,0.0,0.0,0.0,0.0,0.0,0.0,0.0,0.0
2025/04/09 11:15:57.306142009,1744190157,305896962,mA1/imu,0.7067522633837781,0.7074608680857658,0.00028093185466933075,0.0005285891928501079,0.0,0.0,0.0,0.0,0.0,0.0,0.0,0.0,0.0,0.001360974895851934,0.00017052477898650147,-0.0006950128340720634,0.0,0.0,0.0,0.0,0.0,0.0,0.0,0.0,0.0,0.010839795197257389,-0.3055573807033097,9.809122637362623,0.0,0.0,0.0,0.0,0.0,0.0,0.0,0.0,0.0
2025/04/09 11:15:57.355862630,1744190157,355510587,mA1/imu,0.7067400082207713,0.7074731121525806,0.00027554747818358616,0.0005295609816917456,0.0,0.0,0.0,0.0,0.0,0.0,0.0,0.0,0.0,0.0005632463806203824,-0.0004117425616114151,-0.0006964345719439783,0.0,0.0,0.0,0.0,0.0,0.0,0.0,0.0,0.0,0.01182274271262198,0.046926496255732045,9.808796814651705,0.0,0.0,0.0,0.0,0.0,0.0,0.0,0.0,0.0
2025/04/09 11:15:57.397054398,1744190157,396525343,mA1/imu,0.7067276285328875,0.7074854778232874,0.000258603217363022,0.0005393160590035269,0.0,0.0,0.0,0.0,0.0,0.0,0.0,0.0,0.0,0.0013190134235553375,-0.0009836836859745972,-0.0007029117607756191,0.0,0.0,0.0,0.0,0.0,0.0,0.0,0.0,0.0,0.011579988729000922,-0.5373882740240051,9.808575885060492,0.0,0.0,0.0,0.0,0.0,0.0,0.0,0.0,0.0
2025/04/09 11:15:57.446402146,1744190157,446248366,mA1/imu,0.7067151160544485,0.7074979714026212,0.00023115882574149653,0.0005583609231690166,0.0,0.0,0.0,0.0,0.0,0.0,0.0,0.0,0.0,0.00039765052997367133,-0.0015226326293871046,-0.0007113318944405602,0.0,0.0,0.0,0.0,0.0,0.0,0.0,0.0,0.0,0.011708854678376294,0.023028887749294652,9.809112650365762,0.0,0.0,0.0,0.0,0.0,0.0,0.0,0.0,0.0
2025/04/09 11:15:57.497515285,1744190157,497279785,mA1/imu,0.7067023130048875,0.7075107518117619,0.00019241811633473606,0.0005829576022472614,0.0,0.0,0.0,0.0,0.0,0.0,0.0,0.0,0.0,0.001112626487667616,-0.0019628847842115163,-0.0007334784253438113,0.0,0.0,0.0,0.0,0.0,0.0,0.0,0.0,0.0,0.010972772187816194,-0.5608974667869713,9.808892360021208,0.0,0.0,0.0,0.0,0.0,0.0,0.0,0.0,0.0
2025/04/09 11:15:57.547592755,1744190157,547115625,mA1/imu,0.7066891168450721,0.7075239155461461,0.00014815778850911496,0.0006157209205452545,0.0,0.0,0.0,0.0,0.0,0.0,0.0,0.0,0.0,0.0003900806143521709,-0.0023026163449988927,-0.0007555993276882684,0.0,0.0,0.0,0.0,0.0,0.0,0.0,0.0,0.0,0.011004121349566586,0.01609780524797786,9.809675282875098,0.0,0.0,0.0,0.0,0.0,0.0,0.0,0.0,0.0
2025/04/09 11:15:57.598476680,1744190157,598207310,mA1/imu,0.7066755472877888,0.7075374481515954,9.579942373569609e-05,0.0006489615575904918,0.0,0.0,0.0,0.0,0.0,0.0,0.0,0.0,0.0,0.0006137339389083486,-0.002480538970452272,-0.0007762628726894104,0.0,0.0,0.0,0.0,0.0,0.0,0.0,0.0,0.0,0.009466326292216816,0.03344129907565269,9.808457051458051,0.0,0.0,0.0,0.0,0.0,0.0,0.0,0.0,0.0
2025/04/09 11:15:57.648225827,1744190157,648045476,mA1/imu,0.7066615945979338,0.7075513508662298,4.706927895335521e-05,0.0006887613244018274,0.0,0.0,0.0,0.0,0.0,0.0,0.0,0.0,0.0,-1.4508625430338708e-05,-0.0024857129005217806,-0.0007976992787890224,0.0,0.0,0.0,0.0,0.0,0.0,0.0,0.0,0.0,0.008642349864992696,-0.008192636684907606,9.808660009537661,0.0,0.0,0.0,0.0,0.0,0.0,0.0,0.0,0.0
2025/04/09 11:15:57.699524633,1744190157,699294646,mA1/imu,0.7066473283539723,0.707565565523677,-3.329297867774386e-06,0.0007237432337932478,0.0,0.0,0.0,0.0,0.0,0.0,0.0,0.0,0.0,0.0008011348175301871,-0.0023426385575834483,-0.0008131012586571684,0.0,0.0,0.0,0.0,0.0,0.0,0.0,0.0,0.0,0.008546173820804095,-0.31887106120950826,9.810382845615282,0.0,0.0,0.0,0.0,0.0,0.0,0.0,0.0,0.0
2025/04/09 11:15:57.749163361,1744190157,748907027,mA1/imu,0.7066328039883489,0.7075800350218723,-4.8170580065325466e-05,0.0007563369649881604,0.0,0.0,0.0,0.0,0.0,0.0,0.0,0.0,0.0,-0.00020306686777109493,-0.0020644028589134286,-0.0008260936679496163,0.0,0.0,0.0,0.0,0.0,0.0,0.0,0.0,0.0,0.008331352908559993,0.28092964213581534,9.810699605482554,0.0,0.0,0.0,0.0,0.0,0.0,0.0,0.0,0.0
2025/04/09 11:15:57.800719423,1744190157,800513246,mA1/imu,0.7066181133917228,0.7075946773218247,-9.114514511272153e-05,0.0007785532144754101,0.0,0.0,0.0,0.0,0.0,0.0,0.0,0.0,0.0,0.0001004962995833392,-0.0016674679787213216,-0.0008340666410356869,0.0,0.0,0.0,0.0,0.0,0.0,0.0,0.0,0.0,0.006817071587105886,0.6356038340165023,9.809918455359142,0.0,0.0,0.0,0.0,0.0,0.0,0.0,0.0,0.0
2025/04/09 11:15:57.850543460,1744190157,850365790,mA1/imu,0.7066033047794587,0.7076094424144078,-0.00012410149190364547,0.0007945310175588041,0.0,0.0,0.0,0.0,0.0,0.0,0.0,0.0,0.0,0.0014452365326492864,-0.0011821196890717232,-0.0008395489413215547,0.0,0.0,0.0,0.0,0.0,0.0,0.0,0.0,0.0,0.007118965823833342,0.2866299926728277,9.811339750433367,0.0,0.0,0.0,0.0,0.0,0.0,0.0,0.0,0.0
2025/04/09 11:15:57.901593486,1744190157,901406220,mA1/imu,0.7065882069447097,0.7076244969435992,-0.00013725034515802678,0.000811353388717933,0.0,0.0,0.0,0.0,0.0,0.0,0.0,0.0,0.0,0.0004395292042952349,-0.0006325412561034634,-0.0008619376492623104,0.0,0.0,0.0,0.0,0.0,0.0,0.0,0.0,0.0,0.006754122258623297,0.2957003496601654,9.81003914970128,0.0,0.0,0.0,0.0,0.0,0.0,0.0,0.0,0.0
2025/04/09 11:15:57.951580487,1744190157,951224801,mA1/imu,0.7065726989097183,0.7076399740444494,-0.000140978495194718,0.0008175664324202806,0.0,0.0,0.0,0.0,0.0,0.0,0.0,0.0,0.0,0.00020450676651074945,-3.5382805186560074e-05,-0.0008860181217123066,0.0,0.0,0.0,0.0,0.0,0.0,0.0,0.0,0.0,0.0063565939830685595,-0.21863130415240337,9.809200427009241,0.0,0.0,0.0,0.0,0.0,0.0,0.0,0.0,0.0
2025/04/09 11:15:58.2665953,1744190158,2502912,mA1/imu,0.706556969001426,0.7076556860740632,-0.00013365108070521143,0.0008134248296549902,0.0,0.0,0.0,0.0,0.0,0.0,0.0,0.0,0.0,-0.0009227911723031982,0.0005646493364951466,-0.000891514794916448,0.0,0.0,0.0,0.0,0.0,0.0,0.0,0.0,0.0,0.007376827825895161,0.5861309098420684,9.811172865588068,0.0,0.0,0.0,0.0,0.0,0.0,0.0,0.0,0.0
2025/04/09 11:15:58.52764045,1744190158,52593596,mA1/imu,0.7065411296609824,0.7076715186697473,-0.00011445232183884287,0.0008004134573123183,0.0,0.0,0.0,0.0,0.0,0.0,0.0,0.0,0.0,0.00010577519738284117,0.0011300446719276628,-0.0008976238998711223,0.0,0.0,0.0,0.0,0.0,0.0,0.0,0.0,0.0,0.006998615489587035,-0.593740510709096,9.8098865160614,0.0,0.0,0.0,0.0,0.0,0.0,0.0,0.0,0.0
2025/04/09 11:15:58.103767977,1744190158,103569817,mA1/imu,0.7065251892234417,0.7076874664075612,-9.052893870308655e-05,0.000773748627378187,0.0,0.0,0.0,0.0,0.0,0.0,0.0,0.0,0.0,0.0005977503347847771,0.0016145479778019998,-0.0009046473308766041,0.0,0.0,0.0,0.0,0.0,0.0,0.0,0.0,0.0,0.00822616924005,-0.5568751911037474,9.810755865452453,0.0,0.0,0.0,0.0,0.0,0.0,0.0,0.0,0.0
2025/04/09 11:15:58.153696573,1744190158,153430288,mA1/imu,0.7065090862606658,0.7077035779326183,-5.4810666606400855e-05,0.0007441829618710062,0.0,0.0,0.0,0.0,0.0,0.0,0.0,0.0,0.0,0.0003714268925359659,0.0019806717213587104,-0.0009140275260750852,0.0,0.0,0.0,0.0,0.0,0.0,0.0,0.0,0.0,0.0089180809976089,0.059554707605507844,9.811721702065554,0.0,0.0,0.0,0.0,0.0,0.0,0.0,0.0,0.0
2025/04/09 11:15:58.205399353,1744190158,205168008,mA1/imu,0.7064926535651148,0.7077200133194207,-7.014127444775935e-06,0.0007163494146373705,0.0,0.0,0.0,0.0,0.0,0.0,0.0,0.0,0.0,-0.0012862269498387776,0.0022220691279024145,-0.0009379648485377254,0.0,0.0,0.0,0.0,0.0,0.0,0.0,0.0,0.0,0.009642539497807086,0.5822084067226406,9.81051031483314,0.0,0.0,0.0,0.0,0.0,0.0,0.0,0.0,0.0
2025/04/09 11:15:58.255320420,1744190158,254997387,mA1/imu,0.7064758025440117,0.7077368645057864,4.294059214818307e-05,0.0006849784073934497,0.0,0.0,0.0,0.0,0.0,0.0,0.0,0.0,0.0,-0.0018797139881320069,0.0023488204536436467,-0.0009584932936704225,0.0,0.0,0.0,0.0,0.0,0.0,0.0,0.0,0.0,0.008858927085127338,0.37672741569565693,9.810247855673406,0.0,0.0,0.0,0.0,0.0,0.0,0.0,0.0,0.0
2025/04/09 11:15:58.306323739,1744190158,305921446,mA1/imu,0.7064587970566774,0.70775387219052,8.604646211233163e-05,0.0006457991669662273,0.0,0.0,0.0,0.0,0.0,0.0,0.0,0.0,0.0,-0.0009272285824829122,0.002314139528239702,-0.0009635090234278868,0.0,0.0,0.0,0.0,0.0,0.0,0.0,0.0,0.0,0.010595794302588123,-0.018841731131541157,9.81151056939533,0.0,0.0,0.0,0.0,0.0,0.0,0.0,0.0,0.0
2025/04/09 11:15:58.357666452,1744190158,355811738,mA1/imu,0.7064416781002788,0.7077709838325642,0.00012949556781159237,0.0006108342199004468,0.0,0.0,0.0,0.0,0.0,0.0,0.0,0.0,0.0,0.0005294480742239476,0.0021388142946725517,-0.0009690198905903123,0.0,0.0,0.0,0.0,0.0,0.0,0.0,0.0,0.0,0.010609550144720183,0.08385486368410806,9.811801484311227,0.0,0.0,0.0,0.0,0.0,0.0,0.0,0.0,0.0
2025/04/09 11:15:58.397329903,1744190158,396728582,mA1/imu,0.7064287823163027,0.7077838737636294,0.0001762280756246912,0.0005766271949598284,0.0,0.0,0.0,0.0,0.0,0.0,0.0,0.0,0.0,0.0007970146284632921,0.002269912314546336,-0.0006026248394242127,0.0,0.0,0.0,0.0,0.0,0.0,0.0,0.0,0.0,0.012925969565510693,0.10719161073487295,9.809302265197937,0.0,0.0,0.0,0.0,0.0,0.0,0.0,0.0,0.0
2025/04/09 11:15:58.446823539,1744190158,446605459,mA1/imu,0.7064184952025149,0.7077941423067161,0.00022665610466451777,0.0005571167962646157,0.0,0.0,0.0,0.0,0.0,0.0,0.0,0.0,0.0,0.001140542693483939,0.0017368502102718814,-0.0005643656037142338,0.0,0.0,0.0,0.0,0.0,0.0,0.0,0.0,0.0,0.014602476609510638,-0.5048005887720656,9.808565667848436,0.0,0.0,0.0,0.0,0.0,0.0,0.0,0.0,0.0
2025/04/09 11:15:58.500415420,1744190158,499439301,mA1/imu,0.7064086494644137,0.7078039712670541,0.0002585323150960507,0.0005397976403262237,0.0,0.0,0.0,0.0,0.0,0.0,0.0,0.0,0.0,0.0003932622988299779,0.0011159820421477523,-0.0005560385851354065,0.0,0.0,0.0,0.0,0.0,0.0,0.0,0.0,0.0,0.015329904520473468,-0.5592176598017587,9.808194642897044,0.0,0.0,0.0,0.0,0.0,0.0,0.0,0.0,0.0
2025/04/09 11:15:58.549777476,1744190158,549580815,mA1/imu,0.7063990556506377,0.7078135405161623,0.0002801052508773012,0.0005362638444513077,0.0,0.0,0.0,0.0,0.0,0.0,0.0,0.0,0.0,-0.0003631101618484852,0.00042773399610404736,-0.0005303728683404612,0.0,0.0,0.0,0.0,0.0,0.0,0.0,0.0,0.0,0.014710202504281136,-0.3015750115251717,9.811278485507374,0.0,0.0,0.0,0.0,0.0,0.0,0.0,0.0,0.0
2025/04/09 11:15:58.600746195,1744190158,600574230,mA1/imu,0.7063899956782513,0.7078225766267806,0.00028550190919719026,0.000540843567925213,0.0,0.0,0.0,0.0,0.0,0.0,0.0,0.0,0.0,0.0003183912221900768,-0.00025416886393079326,-0.0005003159778583806,0.0,0.0,0.0,0.0,0.0,0.0,0.0,0.0,0.0,0.014224630723872818,-0.5759595421423078,9.810815784937454,0.0,0.0,0.0,0.0,0.0,0.0,0.0,0.0,0.0
2025/04/09 11:15:58.650733992,1744190158,650462633,mA1/imu,0.7063814448377699,0.7078311023064919,0.00027687532456848124,0.0005552805919189516,0.0,0.0,0.0,0.0,0.0,0.0,0.0,0.0,0.0,-0.0007910653790786714,-0.0009020689186391284,-0.00047140839326991716,0.0,0.0,0.0,0.0,0.0,0.0,0.0,0.0,0.0,0.01364535426668282,0.15764923763167127,9.809909451214251,0.0,0.0,0.0,0.0,0.0,0.0,0.0,0.0,0.0
2025/04/09 11:15:58.701671430,1744190158,701404610,mA1/imu,0.7063734700556368,0.7078390508484022,0.0002545682883369882,0.0005780056904310838,0.0,0.0,0.0,0.0,0.0,0.0,0.0,0.0,0.0,0.0010534123185889587,-0.0015088024770582502,-0.0004374239989595027,0.0,0.0,0.0,0.0,0.0,0.0,0.0,0.0,0.0,0.012619165068542873,-0.5342214441801217,9.808433524811045,0.0,0.0,0.0,0.0,0.0,0.0,0.0,0.0,0.0
2025/04/09 11:15:58.752706353,1744190158,751253122,mA1/imu,0.7063661034627183,0.7078463839131199,0.0002242208067139501,0.0006118701219807158,0.0,0.0,0.0,0.0,0.0,0.0,0.0,0.0,0.0,0.00031633523407806737,-0.002003833634765261,-0.00040338035912092967,0.0,0.0,0.0,0.0,0.0,0.0,0.0,0.0,0.0,0.012658240977261412,0.060806801835914005,9.809833120835886,0.0,0.0,0.0,0.0,0.0,0.0,0.0,0.0,0.0
2025/04/09 11:15:58.802901517,1744190158,802690311,mA1/imu,0.7063590626194594,0.7078533794075001,0.00019139862955429236,0.0006567216342993096,0.0,0.0,0.0,0.0,0.0,0.0,0.0,0.0,0.0,-0.000627443855978201,-0.00231816890579925,-0.0004112512400200858,0.0,0.0,0.0,0.0,0.0,0.0,0.0,0.0,0.0,0.007933538935228529,-0.03296334565616055,9.809359643868627,0.0,0.0,0.0,0.0,0.0,0.0,0.0,0.0,0.0
2025/04/09 11:15:58.852359533,1744190158,852101850,mA1/imu,0.7063528711600023,0.7078595271773598,0.00015192004458723586,0.0006986476693556223,0.0,0.0,0.0,0.0,0.0,0.0,0.0,0.0,0.0,0.00039589931886420073,-0.0022627404388420288,-0.00029081183483717387,0.0,0.0,0.0,0.0,0.0,0.0,0.0,0.0,0.0,0.0020042408037870343,-0.59280684420737,9.808090603894726,0.0,0.0,0.0,0.0,0.0,0.0,0.0,0.0,0.0
2025/04/09 11:15:58.905799997,1744190158,904865428,mA1/imu,0.7063490743858485,0.7078632855218351,0.00011339049443461624,0.0007357085588745077,0.0,0.0,0.0,0.0,0.0,0.0,0.0,0.0,0.0,0.001378449470719829,-0.002049161408957218,-0.0001648207749699986,0.0,0.0,0.0,0.0,0.0,0.0,0.0,0.0,0.0,0.0018190295635045267,-0.5254646688021866,9.80830860774185,0.0,0.0,0.0,0.0,0.0,0.0,0.0,0.0,0.0
2025/04/09 11:15:58.948136831,1744190158,947708465,mA1/imu,0.7063476111319157,0.707864712608569,8.360081719805762e-05,0.0007706508465568703,0.0,0.0,0.0,0.0,0.0,0.0,0.0,0.0,0.0,-0.00025783317781242235,-0.0016833801557474127,-2.597610868128224e-05,0.0,0.0,0.0,0.0,0.0,0.0,0.0,0.0,0.0,0.0017761927771858341,-0.06415584838230363,9.80974328902113,0.0,0.0,0.0,0.0,0.0,0.0,0.0,0.0,0.0
2025/04/09 11:15:59.3198730,1744190159,1783083,mA1/imu,0.7063486281681269,0.7078636690964805,6.142337546213649e-05,0.0007985520912433731,0.0,0.0,0.0,0.0,0.0,0.0,0.0,0.0,0.0,-0.0017499553009317059,-0.0012219262547051536,0.00011688351860810553,0.0,0.0,0.0,0.0,0.0,0.0,0.0,0.0,0.0,0.0012117047133663166,0.34303336287133696,9.809657195743966,0.0,0.0,0.0,0.0,0.0,0.0,0.0,0.0,0.0
2025/04/09 11:15:59.50863231,1744190159,50660873,mA1/imu,0.7063515306517373,0.7078607612512381,3.8336824583653996e-05,0.0008101586594076611,0.0,0.0,0.0,0.0,0.0,0.0,0.0,0.0,0.0,-0.00044563625188257904,-0.0008153806488212286,0.00017883780105826713,0.0,0.0,0.0,0.0,0.0,0.0,0.0,0.0,0.0,0.0048533434762942605,0.369736569759854,9.811412302623296,0.0,0.0,0.0,0.0,0.0,0.0,0.0,0.0,0.0
2025/04/09 11:15:59.101862213,1744190159,101676690,mA1/imu,0.7063550514035363,0.7078572349812572,2.9502568779296546e-05,0.000821809585779322,0.0,0.0,0.0,0.0,0.0,0.0,0.0,0.0,0.0,-0.0005963858610587965,-0.00040744576420775875,0.00021211770396672614,0.0,0.0,0.0,0.0,0.0,0.0,0.0,0.0,0.0,0.005112281588903218,0.589163260753601,9.810399856667784,0.0,0.0,0.0,0.0,0.0,0.0,0.0,0.0,0.0
2025/04/09 11:15:59.151722118,1744190159,151496057,mA1/imu,0.7063591562783874,0.7078531393559053,2.3613134479006997e-05,0.0008215157294130498,0.0,0.0,0.0,0.0,0.0,0.0,0.0,0.0,0.0,-0.0005235278564849591,2.2372463745050657e-05,0.0002444852527386476,0.0,0.0,0.0,0.0,0.0,0.0,0.0,0.0,0.0,0.00497563413257387,0.5932615745784888,9.8103098423762,0.0,0.0,0.0,0.0,0.0,0.0,0.0,0.0,0.0
2025/04/09 11:15:59.204061955,1744190159,203705113,mA1/imu,0.7063637781023554,0.7078485290001452,3.0936308098967254e-05,0.0008197684076376322,0.0,0.0,0.0,0.0,0.0,0.0,0.0,0.0,0.0,0.0007001270019449102,0.00041267843258812736,0.00027309317510134664,0.0,0.0,0.0,0.0,0.0,0.0,0.0,0.0,0.0,0.00546967072757692,-0.33180011121590464,9.810585071638371,0.0,0.0,0.0,0.0,0.0,0.0,0.0,0.0,0.0
2025/04/09 11:15:59.253772190,1744190159,253501920,mA1/imu,0.7063689058120216,0.7078434311303933,3.698510688507361e-05,0.0008028322248419911,0.0,0.0,0.0,0.0,0.0,0.0,0.0,0.0,0.0,0.0020422241459526476,0.0007920625007398479,0.00029998199303547855,0.0,0.0,0.0,0.0,0.0,0.0,0.0,0.0,0.0,0.005887369804584213,-0.46397173170015377,9.810423567058448,0.0,0.0,0.0,0.0,0.0,0.0,0.0,0.0,0.0
2025/04/09 11:15:59.305599878,1744190159,305154099,mA1/imu,0.7063744847924606,0.7078378754264015,6.130027994016954e-05,0.0007909414010383248,0.0,0.0,0.0,0.0,0.0,0.0,0.0,0.0,0.0,0.0001733488193508906,0.001142922891630106,0.0003264384471475064,0.0,0.0,0.0,0.0,0.0,0.0,0.0,0.0,0.0,0.0060098395977584256,0.013371985332613055,9.809136830848114,0.0,0.0,0.0,0.0,0.0,0.0,0.0,0.0,0.0
2025/04/09 11:15:59.355118816,1744190159,354903941,mA1/imu,0.7063805075064991,0.7078318776865397,9.316304192992476e-05,0.0007764446254145277,0.0,0.0,0.0,0.0,0.0,0.0,0.0,0.0,0.0,-0.0012622400652874438,0.0013942608351278684,0.0003436972865134499,0.0,0.0,0.0,0.0,0.0,0.0,0.0,0.0,0.0,0.009649026192536636,-0.0835424534600573,9.809241387984159,0.0,0.0,0.0,0.0,0.0,0.0,0.0,0.0,0.0
2025/04/09 11:15:59.406266393,1744190159,406054669,mA1/imu,0.7063879348047121,0.7078244932019635,0.00011382464060324672,0.0007479503114131031,0.0,0.0,0.0,0.0,0.0,0.0,0.0,0.0,0.0,0.00025519333051921575,0.0013897260737390478,0.0004572952714493418,0.0,0.0,0.0,0.0,0.0,0.0,0.0,0.0,0.0,0.013100305044760018,-0.609882519829876,9.810353653754524,0.0,0.0,0.0,0.0,0.0,0.0,0.0,0.0,0.0
2025/04/09 11:15:59.448290415,1744190159,446437005,mA1/imu,0.7063961129340145,0.7078163497965357,0.00013864123773912375,0.0007262031606344978,0.0,0.0,0.0,0.0,0.0,0.0,0.0,0.0,0.0,0.00023483711803159226,0.0012531508541260322,0.0004651460360900047,0.0,0.0,0.0,0.0,0.0,0.0,0.0,0.0,0.0,0.013553378315367157,0.019823219675433816,9.811151223641161,0.0,0.0,0.0,0.0,0.0,0.0,0.0,0.0,0.0
2025/04/09 11:15:59.497376860,1744190159,496774020,mA1/imu,0.7064043746962527,0.7078081143360151,0.00016446512160878172,0.0007110846042546186,0.0,0.0,0.0,0.0,0.0,0.0,0.0,0.0,0.0,-0.0007805116256882882,0.0010857540273247384,0.00046836806388274424,0.0,0.0,0.0,0.0,0.0,0.0,0.0,0.0,0.0,0.012886894823178504,0.5874711742904808,9.81049797932121,0.0,0.0,0.0,0.0,0.0,0.0,0.0,0.0,0.0
2025/04/09 11:15:59.546874805,1744190159,546647060,mA1/imu,0.7064126550436582,0.7077998557487576,0.00018727744336204398,0.0006999452597510844,0.0,0.0,0.0,0.0,0.0,0.0,0.0,0.0,0.0,-0.0014071940722196095,0.0008707327297802364,0.0004679310442662535,0.0,0.0,0.0,0.0,0.0,0.0,0.0,0.0,0.0,0.013043554552289175,0.4624222942616407,9.80949307638387,0.0,0.0,0.0,0.0,0.0,0.0,0.0,0.0,0.0
2025/04/09 11:15:59.598010324,1744190159,597841749,mA1/imu,0.7064209597917778,0.7077915704580778,0.00020381038197046916,0.0006919658081197659,0.0,0.0,0.0,0.0,0.0,0.0,0.0,0.0,0.0,-0.00031450490886378275,0.0005861120419241983,0.00047116537612577203,0.0,0.0,0.0,0.0,0.0,0.0,0.0,0.0,0.0,0.01285821269639229,0.10389038205544832,9.810351467716448,0.0,0.0,0.0,0.0,0.0,0.0,0.0,0.0,0.0
2025/04/09 11:15:59.647963707,1744190159,647737571,mA1/imu,0.7064293348806716,0.7077832084311464,0.00021725351528254215,0.0006910020798553341,0.0,0.0,0.0,0.0,0.0,0.0,0.0,0.0,0.0,-0.0007784049762139303,0.00027857508229758854,0.0004756260291653078,0.0,0.0,0.0,0.0,0.0,0.0,0.0,0.0,0.0,0.0135033095996091,0.4679461707866087,9.810829788998333,0.0,0.0,0.0,0.0,0.0,0.0,0.0,0.0,0.0
2025/04/09 11:15:59.698884843,1744190159,698678331,mA1/imu,0.706437699806519,0.70777485380191,0.00022361438425048865,0.000694704517349116,0.0,0.0,0.0,0.0,0.0,0.0,0.0,0.0,0.0,-0.0004140779157865969,-5.484127983512554e-05,0.00047137864519096847,0.0,0.0,0.0,0.0,0.0,0.0,0.0,0.0,0.0,0.012854718040627315,0.18128779494689098,9.809139501129428,0.0,0.0,0.0,0.0,0.0,0.0,0.0,0.0,0.0
2025/04/09 11:15:59.748772894,1744190159,748520963,mA1/imu,0.7064459796601888,0.7077665731578924,0.00022956007987718987,0.0007092562720132204,0.0,0.0,0.0,0.0,0.0,0.0,0.0,0.0,0.0,0.00018381009653674606,-0.00037576561519014776,0.000466199790635941,0.0,0.0,0.0,0.0,0.0,0.0,0.0,0.0,0.0,0.013181292886289928,0.03067440298255783,9.810312419935217,0.0,0.0,0.0,0.0,0.0,0.0,0.0,0.0,0.0
2025/04/09 11:15:59.800969519,1744190159,800643792,mA1/imu,0.706454710954807,0.7077578396508478,0.00022847870028823203,0.0007277224801066759,0.0,0.0,0.0,0.0,0.0,0.0,0.0,0.0,0.0,0.00020321943332476722,-0.0006987494466400342,0.0005312286599687022,0.0,0.0,0.0,0.0,0.0,0.0,0.0,0.0,0.0,0.015648093624417336,-0.5982813509888728,9.811272509326733,0.0,0.0,0.0,0.0,0.0,0.0,0.0,0.0,0.0
2025/04/09 11:15:59.850997345,1744190159,850765969,mA1/imu,0.7064646694053504,0.7077478754482471,0.00022138320986287634,0.0007527748373139349,0.0,0.0,0.0,0.0,0.0,0.0,0.0,0.0,0.0,0.0002634537461175476,-0.0010464617929416987,0.0005791325026995155,0.0,0.0,0.0,0.0,0.0,0.0,0.0,0.0,0.0,0.014781757701760474,-0.5940590074056412,9.80770946179461,0.0,0.0,0.0,0.0,0.0,0.0,0.0,0.0,0.0
2025/04/09 11:15:59.906153637,1744190159,905933280,mA1/imu,0.7064749707162595,0.7077375717260525,0.00020363119555074927,0.0007770798589938057,0.0,0.0,0.0,0.0,0.0,0.0,0.0,0.0,0.0,-0.0010405189035285532,-0.0012866346519874452,0.0005760688767477434,0.0,0.0,0.0,0.0,0.0,0.0,0.0,0.0,0.0,0.01487330815269506,0.16190123765550027,9.809585379420195,0.0,0.0,0.0,0.0,0.0,0.0,0.0,0.0,0.0
2025/04/09 11:15:59.955748220,1744190159,955517509,mA1/imu,0.7064854631177079,0.7077270649428499,0.00018746914296754807,0.0008104357207036571,0.0,0.0,0.0,0.0,0.0,0.0,0.0,0.0,0.0,-0.0006374657601772628,-0.001448927783005289,0.000607139962565909,0.0,0.0,0.0,0.0,0.0,0.0,0.0,0.0,0.0,0.012583068344968286,-0.17908356248128338,9.809245372517303,0.0,0.0,0.0,0.0,0.0,0.0,0.0,0.0,0.0
2025/04/09 11:15:59.996849250,1744190159,996697513,mA1/imu,0.7064966055144334,0.7077159094565558,0.0001665940495615963,0.0008427010657207815,0.0,0.0,0.0,0.0,0.0,0.0,0.0,0.0,0.0,-0.0006237329491410767,-0.0015284758078784799,0.000645161639610207,0.0,0.0,0.0,0.0,0.0,0.0,0.0,0.0,0.0,0.012654061201869501,0.047727929019147144,9.81039917531727,0.0,0.0,0.0,0.0,0.0,0.0,0.0,0.0,0.0
2025/04/09 11:16:00.46738978,1744190160,46522978,mA1/imu,0.7065084246514336,0.7077040738750795,0.00014662384034474666,0.0008764808127747271,0.0,0.0,0.0,0.0,0.0,0.0,0.0,0.0,0.0,-0.0010866787598854126,-0.001509270677194994,0.0006834054055641802,0.0,0.0,0.0,0.0,0.0,0.0,0.0,0.0,0.0,0.013237050946180119,0.5585107600711267,9.81109534415691,0.0,0.0,0.0,0.0,0.0,0.0,0.0,0.0,0.0
2025/04/09 11:16:00.98436214,1744190160,98115904,mA1/imu,0.7065195461368854,0.7076929354568054,0.00012302161349682806,0.0009082382627180151,0.0,0.0,0.0,0.0,0.0,0.0,0.0,0.0,0.0,0.00036569950127973396,-0.0016349085042642883,0.0005543178303718926,0.0,0.0,0.0,0.0,0.0,0.0,0.0,0.0,0.0,0.013827696502996827,-0.5993239445998461,9.80930930341961,0.0,0.0,0.0,0.0,0.0,0.0,0.0,0.0,0.0
2025/04/09 11:16:00.148216720,1744190160,147944982,mA1/imu,0.7065290769348879,0.7076833783595872,0.00010452018052025622,0.0009426105392112069,0.0,0.0,0.0,0.0,0.0,0.0,0.0,0.0,0.0,-0.00048552270823572354,-0.001371210090439084,0.0005396762694236664,0.0,0.0,0.0,0.0,0.0,0.0,0.0,0.0,0.0,0.009490291137280338,-0.03068415317985459,9.810976778765397,0.0,0.0,0.0,0.0,0.0,0.0,0.0,0.0,0.0
2025/04/09 11:16:00.201371352,1744190160,200991123,mA1/imu,0.7065385791660171,0.7076738630648781,8.686695471718319e-05,0.0009654734746177156,0.0,0.0,0.0,0.0,0.0,0.0,0.0,0.0,0.0,0.00028121046834485297,-0.0010083017298671251,0.0005237656026464331,0.0,0.0,0.0,0.0,0.0,0.0,0.0,0.0,0.0,0.010686577079624305,-0.5126606455909647,9.809197149316967,0.0,0.0,0.0,0.0,0.0,0.0,0.0,0.0,0.0
2025/04/09 11:16:00.250997277,1744190160,250798479,mA1/imu,0.7065474927395365,0.7076649382082988,7.797715196213218e-05,0.0009847099487765854,0.0,0.0,0.0,0.0,0.0,0.0,0.0,0.0,0.0,-0.00032209081164302295,-0.0006530354296530554,0.000490389449794293,0.0,0.0,0.0,0.0,0.0,0.0,0.0,0.0,0.0,0.011384569081528574,0.2510808988863222,9.810491446404628,0.0,0.0,0.0,0.0,0.0,0.0,0.0,0.0,0.0
2025/04/09 11:16:00.302133305,1744190160,301901426,mA1/imu,0.7065558707274375,0.707656559692763,7.414321225824612e-05,0.0009947699130101544,0.0,0.0,0.0,0.0,0.0,0.0,0.0,0.0,0.0,-0.0005258416690647925,-0.00021954108952655486,0.0004627525532355872,0.0,0.0,0.0,0.0,0.0,0.0,0.0,0.0,0.0,0.009976654414832323,-0.045511442006018026,9.810023714049443,0.0,0.0,0.0,0.0,0.0,0.0,0.0,0.0,0.0
2025/04/09 11:16:00.351876496,1744190160,351651198,mA1/imu,0.7065636345138324,0.7076488105086501,7.320621613625834e-05,0.0009929799322170375,0.0,0.0,0.0,0.0,0.0,0.0,0.0,0.0,0.0,0.0005010849413125432,0.00019801581815670447,0.0004195125714189388,0.0,0.0,0.0,0.0,0.0,0.0,0.0,0.0,0.0,0.010319752026491559,0.02260216781269695,9.810344837436203,0.0,0.0,0.0,0.0,0.0,0.0,0.0,0.0,0.0
2025/04/09 11:16:00.402823178,1744190160,402621292,mA1/imu,0.7065705572946843,0.707641900080626,8.65223765465401e-05,0.0009906202293373406,0.0,0.0,0.0,0.0,0.0,0.0,0.0,0.0,0.0,0.001417834856349908,0.0005887665409916518,0.00037423898900850675,0.0,0.0,0.0,0.0,0.0,0.0,0.0,0.0,0.0,0.009829586292014698,-0.5481312181026126,9.808239898296794,0.0,0.0,0.0,0.0,0.0,0.0,0.0,0.0,0.0
2025/04/09 11:16:00.452792272,1744190160,452621548,mA1/imu,0.7065766210586297,0.707635861875606,0.00010279461158861554,0.0009772380495397949,0.0,0.0,0.0,0.0,0.0,0.0,0.0,0.0,0.0,-0.0005090299944501534,0.0009880782412936525,0.0003225880218926849,0.0,0.0,0.0,0.0,0.0,0.0,0.0,0.0,0.0,0.011094051277144195,0.05958924662806481,9.810029122621561,0.0,0.0,0.0,0.0,0.0,0.0,0.0,0.0,0.0
2025/04/09 11:16:00.504413058,1744190160,504163317,mA1/imu,0.7065817768096802,0.7076307344268787,0.00012679713743783742,0.0009593213422784703,0.0,0.0,0.0,0.0,0.0,0.0,0.0,0.0,0.0,-0.001978547365244069,0.001311488262527433,0.0002690380021986384,0.0,0.0,0.0,0.0,0.0,0.0,0.0,0.0,0.0,0.01212429960908526,0.46303586517476086,9.8101664388343,0.0,0.0,0.0,0.0,0.0,0.0,0.0,0.0,0.0
2025/04/09 11:16:00.553982308,1744190160,553756204,mA1/imu,0.7065859897948734,0.7076265656933214,0.00014682708237030847,0.0009278968058028111,0.0,0.0,0.0,0.0,0.0,0.0,0.0,0.0,0.0,-0.0003368755287013928,0.0015535945057381128,0.00021102158623694068,0.0,0.0,0.0,0.0,0.0,0.0,0.0,0.0,0.0,0.012186777721436273,-0.05421426799757585,9.810589235696586,0.0,0.0,0.0,0.0,0.0,0.0,0.0,0.0,0.0
2025/04/09 11:16:00.605074830,1744190160,604812550,mA1/imu,0.7065890773224759,0.7076235225121794,0.00016929125043820914,0.0008930489906375147,0.0,0.0,0.0,0.0,0.0,0.0,0.0,0.0,0.0,0.00030883125361052735,0.0016634776618729124,0.00015158362623821775,0.0,0.0,0.0,0.0,0.0,0.0,0.0,0.0,0.0,0.012386231991273432,-0.014465086349432471,9.809568607438433,0.0,0.0,0.0,0.0,0.0,0.0,0.0,0.0,0.0
2025/04/09 11:16:00.655057928,1744190160,654824502,mA1/imu,0.7065910399600623,0.7076215965698381,0.00019509821205602757,0.0008603794502521951,0.0,0.0,0.0,0.0,0.0,0.0,0.0,0.0,0.0,0.00034575899451249064,0.001646035194414811,8.366176715465573e-05,0.0,0.0,0.0,0.0,0.0,0.0,0.0,0.0,0.0,0.013127438416595395,0.6007428688785716,9.81165912796267,0.0,0.0,0.0,0.0,0.0,0.0,0.0,0.0,0.0
2025/04/09 11:16:00.706065404,1744190160,705797569,mA1/imu,0.7065918978294964,0.707620765534605,0.0002237292637187126,0.0008318961152415547,0.0,0.0,0.0,0.0,0.0,0.0,0.0,0.0,0.0,-0.00013086306788356495,0.001578768660639421,2.544976406629172e-05,0.0,0.0,0.0,0.0,0.0,0.0,0.0,0.0,0.0,0.013454235482652403,-0.047692203869309335,9.809643868365612,0.0,0.0,0.0,0.0,0.0,0.0,0.0,0.0,0.0
2025/04/09 11:16:00.756932566,1744190160,755773991,mA1/imu,0.7065919429598262,0.7076207450478704,0.00024828658692477827,0.0008035396226959972,0.0,0.0,0.0,0.0,0.0,0.0,0.0,0.0,0.0,0.0006415016648244651,0.0014464352905448653,-1.078968969383066e-06,0.0,0.0,0.0,0.0,0.0,0.0,0.0,0.0,0.0,0.009989788812963706,-0.6217633445328166,9.809182624342979,0.0,0.0,0.0,0.0,0.0,0.0,0.0,0.0,0.0
2025/04/09 11:16:00.800281285,1744190160,798403957,mA1/imu,0.7065919953239829,0.7076207157724399,0.00026936267507163844,0.0007760138669880559,0.0,0.0,0.0,0.0,0.0,0.0,0.0,0.0,0.0,0.0005363431069601281,0.001315138572081522,6.692403692878977e-06,0.0,0.0,0.0,0.0,0.0,0.0,0.0,0.0,0.0,0.01032514537301473,-0.02438791122773569,9.81012357121645,0.0,0.0,0.0,0.0,0.0,0.0,0.0,0.0,0.0
2025/04/09 11:16:00.848498243,1744190160,848263451,mA1/imu,0.7065922049801449,0.7076205228108405,0.0002893405540817755,0.0007535517590225012,0.0,0.0,0.0,0.0,0.0,0.0,0.0,0.0,0.0,-0.00016212312940349247,0.0011154471826403923,1.582184523821438e-05,0.0,0.0,0.0,0.0,0.0,0.0,0.0,0.0,0.0,0.010506433749310182,0.21438015903707772,9.810838037940897,0.0,0.0,0.0,0.0,0.0,0.0,0.0,0.0,0.0
2025/04/09 11:16:00.899602005,1744190160,899228357,mA1/imu,0.7065923325563277,0.7076204069338016,0.000304911170526354,0.0007364052058855898,0.0,0.0,0.0,0.0,0.0,0.0,0.0,0.0,0.0,0.00012768035808343437,0.0007777767486250468,-8.486025043024642e-06,0.0,0.0,0.0,0.0,0.0,0.0,0.0,0.0,0.0,0.013268194073196831,-0.02220172710200099,9.81021385553217,0.0,0.0,0.0,0.0,0.0,0.0,0.0,0.0,0.0
