time,header_stamp_secs,header_stamp_nsecs,header_frame_id,orientation_x,orientation_y,orientation_z,orientation_w,orientation_covariance_0,orientation_covariance_1,orientation_covariance_2,orientation_covariance_3,orientation_covariance_4,orientation_covariance_5,orientation_covariance_6,orientation_covariance_7,orientation_covariance_8,angular_velocity_x,angular_velocity_y,angular_velocity_z,angular_velocity_covariance_0,angular_velocity_covariance_1,angular_velocity_covariance_2,angular_velocity_covariance_3,angular_velocity_covariance_4,angular_velocity_covariance_5,angular_velocity_covariance_6,angular_velocity_covariance_7,angular_velocity_covariance_8,linear_acceleration_x,linear_acceleration_y,linear_acceleration_z,linear_acceleration_covariance_0,linear_acceleration_covariance_1,linear_acceleration_covariance_2,linear_acceleration_covariance_3,linear_acceleration_covariance_4,linear_acceleration_covariance_5,linear_acceleration_covariance_6,linear_acceleration_covariance_7,linear_acceleration_covariance_8
2025/05/21 13:49:36.224275009,1747828175,979999876,mA1/imu,0.40315875324513056,0.9151295927760721,0.0005476002860476102,0.0007404331563921095,0.0,0.0,0.0,0.0,0.0,0.0,0.0,0.0,0.0,-0.0008210415318926065,-0.00023000264436322398,-0.00012154686935208638,0.0,0.0,0.0,0.0,0.0,0.0,0.0,0.0,0.0,0.008386550708601956,0.5547961126999836,9.811038332793359,0.0,0.0,0.0,0.0,0.0,0.0,0.0,0.0,0.0
2025/05/21 13:49:36.224472398,1747828176,31301929,mA1/imu,0.4031560133301231,0.9151307953497835,0.0005481551161307012,0.0007455495978383323,0.0,0.0,0.0,0.0,0.0,0.0,0.0,0.0,0.0,-0.0006849946002442727,-0.00013689978575199806,-0.00011866093443692917,0.0,0.0,0.0,0.0,0.0,0.0,0.0,0.0,0.0,0.008742060024862776,-0.06698669336713736,9.809788516840731,0.0,0.0,0.0,0.0,0.0,0.0,0.0,0.0,0.0
2025/05/21 13:49:36.224585242,1747828176,83791148,mA1/imu,0.40315334268636066,0.9151319757502985,0.0005423451212251666,0.0007450516346681708,0.0,0.0,0.0,0.0,0.0,0.0,0.0,0.0,0.0,0.0009125783890997699,-3.872237895738352e-05,-0.00011580610112262793,0.0,0.0,0.0,0.0,0.0,0.0,0.0,0.0,0.0,0.008344271023275656,-0.5854799959429864,9.808735130717073,0.0,0.0,0.0,0.0,0.0,0.0,0.0,0.0,0.0
2025/05/21 13:49:36.225503190,1747828176,135693733,mA1/imu,0.4031507328886879,0.9151331301505518,0.0005381896571678443,0.0007423099489104693,0.0,0.0,0.0,0.0,0.0,0.0,0.0,0.0,0.0,0.0007790894328625661,7.537837476426782e-05,-0.00011311706692788245,0.0,0.0,0.0,0.0,0.0,0.0,0.0,0.0,0.0,0.007995476941270256,0.035886270127626727,9.810249326531999,0.0,0.0,0.0,0.0,0.0,0.0,0.0,0.0,0.0
2025/05/21 13:49:36.225558921,1747828176,175472184,mA1/imu,0.40314817685392573,0.9151342553351205,0.0005423131498058445,0.0007403431893213627,0.0,0.0,0.0,0.0,0.0,0.0,0.0,0.0,0.0,-0.0008084532385486427,0.0001843344007963467,-0.00011052798839395851,0.0,0.0,0.0,0.0,0.0,0.0,0.0,0.0,0.0,0.00843792757926949,0.5549811342200657,9.811060097487179,0.0,0.0,0.0,0.0,0.0,0.0,0.0,0.0,0.0
2025/05/21 13:49:36.228319218,1747828176,226586028,mA1/imu,0.40314567956390546,0.9151353562485163,0.0005468495187411903,0.0007360356390324989,0.0,0.0,0.0,0.0,0.0,0.0,0.0,0.0,0.0,-0.0006829130498803742,0.0002655354594185406,-0.00010793416789165034,0.0,0.0,0.0,0.0,0.0,0.0,0.0,0.0,0.0,0.008931636840542488,-0.06696788365119591,9.80981754912197,0.0,0.0,0.0,0.0,0.0,0.0,0.0,0.0,0.0
2025/05/21 13:49:36.278102868,1747828176,277390436,mA1/imu,0.4031432446698012,0.9151364373709673,0.0005449994017570207,0.0007268072169754366,0.0,0.0,0.0,0.0,0.0,0.0,0.0,0.0,0.0,0.0009041026881973178,0.00032914024541594983,-0.00010539970952689496,0.0,0.0,0.0,0.0,0.0,0.0,0.0,0.0,0.0,0.008549743766230144,-0.585546444653046,9.808772935269952,0.0,0.0,0.0,0.0,0.0,0.0,0.0,0.0,0.0
2025/05/21 13:49:36.330652459,1747828176,328316111,mA1/imu,0.4031408634300506,0.9151374947531011,0.0005445386282638217,0.000716524649396982,0.0,0.0,0.0,0.0,0.0,0.0,0.0,0.0,0.0,0.0007621075710880989,0.00038703087817586076,-0.0001030498101053308,0.0,0.0,0.0,0.0,0.0,0.0,0.0,0.0,0.0,0.008296753207635135,0.0358767665254639,9.810289744557899,0.0,0.0,0.0,0.0,0.0,0.0,0.0,0.0,0.0
2025/05/21 13:49:36.379666493,1747828176,378235951,mA1/imu,0.40313852866263367,0.9151385249873504,0.0005519358117830873,0.0007086314722601049,0.0,0.0,0.0,0.0,0.0,0.0,0.0,0.0,0.0,-0.0008357246591897201,0.0004241784458363258,-0.00010082121048275253,0.0,0.0,0.0,0.0,0.0,0.0,0.0,0.0,0.0,0.008731591751203836,0.5548017083169665,9.811101958943235,0.0,0.0,0.0,0.0,0.0,0.0,0.0,0.0,0.0
2025/05/21 13:49:36.430917142,1747828176,429538510,mA1/imu,0.40313624510794066,0.9151395330178953,0.0005590781304872906,0.0007002997237487183,0.0,0.0,0.0,0.0,0.0,0.0,0.0,0.0,0.0,-0.0007154868001631174,0.0004199108499349423,-9.860545312535845e-05,0.0,0.0,0.0,0.0,0.0,0.0,0.0,0.0,0.0,0.009270803936121702,-0.06704587561461318,9.809856459565996,0.0,0.0,0.0,0.0,0.0,0.0,0.0,0.0,0.0
2025/05/21 13:49:36.480467922,1747828176,479214111,mA1/imu,0.4031340161345868,0.9151405234036637,0.0005590427012480808,0.0006891523237830613,0.0,0.0,0.0,0.0,0.0,0.0,0.0,0.0,0.0,0.0008668524916195507,0.00039130160279187993,-9.64485461539406e-05,0.0,0.0,0.0,0.0,0.0,0.0,0.0,0.0,0.0,0.00886784477681569,-0.5855815244839695,9.808790659989167,0.0,0.0,0.0,0.0,0.0,0.0,0.0,0.0,0.0
2025/05/21 13:49:36.531449465,1747828176,530370597,mA1/imu,0.4031318335209614,0.9151414921635282,0.0005594435797032751,0.0006790770354161803,0.0,0.0,0.0,0.0,0.0,0.0,0.0,0.0,0.0,0.0007277804980264225,0.0003562648643794078,-9.447443230539712e-05,0.0,0.0,0.0,0.0,0.0,0.0,0.0,0.0,0.0,0.008548531847529293,0.03625400052987611,9.81031239497689,0.0,0.0,0.0,0.0,0.0,0.0,0.0,0.0,0.0
2025/05/21 13:49:36.581553718,1747828176,580177391,mA1/imu,0.40312969037112156,0.9151424358033328,0.0005668501189898137,0.0006735088488092973,0.0,0.0,0.0,0.0,0.0,0.0,0.0,0.0,0.0,-0.000875305320047784,0.0003038758285585754,-9.261799043774497e-05,0.0,0.0,0.0,0.0,0.0,0.0,0.0,0.0,0.0,0.008954344814587335,0.5549250301780748,9.811114724584083,0.0,0.0,0.0,0.0,0.0,0.0,0.0,0.0,0.0
2025/05/21 13:49:36.632824822,1747828176,631915948,mA1/imu,0.403127591515007,0.9151433593742399,0.0005732175266941406,0.0006694581447240298,0.0,0.0,0.0,0.0,0.0,0.0,0.0,0.0,0.0,-0.0007565884106297806,0.0002198511538699457,-9.073973909128821e-05,0.0,0.0,0.0,0.0,0.0,0.0,0.0,0.0,0.0,0.009382663246958734,-0.06694361663901725,9.80984131916144,0.0,0.0,0.0,0.0,0.0,0.0,0.0,0.0,0.0
2025/05/21 13:49:36.682196844,1747828176,681122161,mA1/imu,0.4031255406012851,0.9151442675802209,0.0005716771237013498,0.0006642403548530805,0.0,0.0,0.0,0.0,0.0,0.0,0.0,0.0,0.0,0.0008270236550022694,0.00012437746160538855,-8.889462858055862e-05,0.0,0.0,0.0,0.0,0.0,0.0,0.0,0.0,0.0,0.008948410747630284,-0.5855071878118886,9.80879411919987,0.0,0.0,0.0,0.0,0.0,0.0,0.0,0.0,0.0
2025/05/21 13:49:36.733516943,1747828176,732578180,mA1/imu,0.40312352996861467,0.9151451563358947,0.0005700474921232318,0.0006614124665640024,0.0,0.0,0.0,0.0,0.0,0.0,0.0,0.0,0.0,0.0006850124530240968,3.9969301141983654e-05,-8.721774516938718e-05,0.0,0.0,0.0,0.0,0.0,0.0,0.0,0.0,0.0,0.008498736154100683,0.03576634789940416,9.810311481267577,0.0,0.0,0.0,0.0,0.0,0.0,0.0,0.0,0.0
2025/05/21 13:49:36.785392185,1747828176,782251544,mA1/imu,0.4031215533788054,0.9151460221597314,0.0005749283039479169,0.0006639157512979998,0.0,0.0,0.0,0.0,0.0,0.0,0.0,0.0,0.0,-0.0009097345062685808,-4.2772819923724066e-05,-8.56291254922522e-05,0.0,0.0,0.0,0.0,0.0,0.0,0.0,0.0,0.0,0.008865077204238687,0.5546723746541223,9.811102251999753,0.0,0.0,0.0,0.0,0.0,0.0,0.0,0.0,0.0
2025/05/21 13:49:36.834684439,1747828176,833505122,mA1/imu,0.4031196158110992,0.9151468703073402,0.0005784057030945808,0.0006682528223129352,0.0,0.0,0.0,0.0,0.0,0.0,0.0,0.0,0.0,-0.0007827551165588636,-0.00013560034002763072,-8.398293561741737e-05,0.0,0.0,0.0,0.0,0.0,0.0,0.0,0.0,0.0,0.00916487432507521,-0.0669445266240171,9.809812800622398,0.0,0.0,0.0,0.0,0.0,0.0,0.0,0.0,0.0
2025/05/21 13:49:36.884457592,1747828176,883409181,mA1/imu,0.40311772117789346,0.9151477055732847,0.0005738205625695473,0.0006712572208235218,0.0,0.0,0.0,0.0,0.0,0.0,0.0,0.0,0.0,0.0008094416081910726,-0.00021914913610173595,-8.234693964221899e-05,0.0,0.0,0.0,0.0,0.0,0.0,0.0,0.0,0.0,0.00869291985591332,-0.5854681249048947,9.808756362498565,0.0,0.0,0.0,0.0,0.0,0.0,0.0,0.0,0.0
2025/05/21 13:49:36.935711549,1747828176,934498085,mA1/imu,0.40311586210926437,0.9151485238762594,0.0005691900825408475,0.0006760071435061793,0.0,0.0,0.0,0.0,0.0,0.0,0.0,0.0,0.0,0.000676254115153201,-0.00027134462584198503,-8.08612703297404e-05,0.0,0.0,0.0,0.0,0.0,0.0,0.0,0.0,0.0,0.00815712977979955,0.035672823027295984,9.810276897972773,0.0,0.0,0.0,0.0,0.0,0.0,0.0,0.0,0.0
2025/05/21 13:49:36.985717789,1747828176,984583484,mA1/imu,0.40311403258044254,0.9151493217546598,0.0005712880567585489,0.0006850245807479634,0.0,0.0,0.0,0.0,0.0,0.0,0.0,0.0,0.0,-0.0009093075523147234,-0.0003053948577148031,-7.943392202863988e-05,0.0,0.0,0.0,0.0,0.0,0.0,0.0,0.0,0.0,0.008524411066367362,0.554595217771973,9.811064574188254,0.0,0.0,0.0,0.0,0.0,0.0,0.0,0.0,0.0
2025/05/21 13:49:37.36776593,1747828177,35949997,mA1/imu,0.4031122381490321,0.9151501044094723,0.0005723567423975919,0.0006944505520299947,0.0,0.0,0.0,0.0,0.0,0.0,0.0,0.0,0.0,-0.0007729450789480373,-0.0003342685162333077,-7.791395708336064e-05,0.0,0.0,0.0,0.0,0.0,0.0,0.0,0.0,0.0,0.008761196597263736,-0.0668864879843425,9.80977737745353,0.0,0.0,0.0,0.0,0.0,0.0,0.0,0.0,0.0
2025/05/21 13:49:37.77050803,1747828177,75392783,mA1/imu,0.4031104834944749,0.9151508764683005,0.000565860943767593,0.0007008548667985241,0.0,0.0,0.0,0.0,0.0,0.0,0.0,0.0,0.0,0.0008280850761829456,-0.0003444820285901262,-7.63759553090228e-05,0.0,0.0,0.0,0.0,0.0,0.0,0.0,0.0,0.0,0.008308397667374907,-0.5854220352345932,9.808722127495406,0.0,0.0,0.0,0.0,0.0,0.0,0.0,0.0,0.0
2025/05/21 13:49:37.127996052,1747828177,126493920,mA1/imu,0.4031087616594723,0.9151516337190222,0.0005599095907189093,0.0007071605345340354,0.0,0.0,0.0,0.0,0.0,0.0,0.0,0.0,0.0,0.0007025599564940714,-0.0003178148022296278,-7.495313178800828e-05,0.0,0.0,0.0,0.0,0.0,0.0,0.0,0.0,0.0,0.007791280295151835,0.03563662105340901,9.810250321479417,0.0,0.0,0.0,0.0,0.0,0.0,0.0,0.0,0.0
2025/05/21 13:49:37.178374892,1747828177,176957360,mA1/imu,0.403107067000423,0.9151523725743902,0.0005613286633942554,0.0007158323217433139,0.0,0.0,0.0,0.0,0.0,0.0,0.0,0.0,0.0,-0.0008763063303752246,-0.0002716789989710108,-7.356146822173812e-05,0.0,0.0,0.0,0.0,0.0,0.0,0.0,0.0,0.0,0.008175760117781277,0.5545781565687049,9.811058768906827,0.0,0.0,0.0,0.0,0.0,0.0,0.0,0.0,0.0
2025/05/21 13:49:37.231049026,1747828177,228566322,mA1/imu,0.40310540586490545,0.9151530979369814,0.0005623718112631071,0.0007230745338688478,0.0,0.0,0.0,0.0,0.0,0.0,0.0,0.0,0.0,-0.0007348845824069181,-0.00022497363493557742,-7.206443925553011e-05,0.0,0.0,0.0,0.0,0.0,0.0,0.0,0.0,0.0,0.008479344621234418,-0.06689172328442841,9.809782506188496,0.0,0.0,0.0,0.0,0.0,0.0,0.0,0.0,0.0
2025/05/21 13:49:37.279453759,1747828177,278114319,mA1/imu,0.4031037835183966,0.9151538141315415,0.0005564756528287638,0.000725622831473411,0.0,0.0,0.0,0.0,0.0,0.0,0.0,0.0,0.0,0.0008694905409198435,-0.00016739782947163887,-7.054005329078944e-05,0.0,0.0,0.0,0.0,0.0,0.0,0.0,0.0,0.0,0.008068528144926099,-0.5854383242803592,9.80872608596508,0.0,0.0,0.0,0.0,0.0,0.0,0.0,0.0,0.0
2025/05/21 13:49:37.330954884,1747828177,329457974,mA1/imu,0.40310219298066674,0.9151545168026065,0.0005516810137903951,0.0007266622489998657,0.0,0.0,0.0,0.0,0.0,0.0,0.0,0.0,0.0,0.0007455845218431751,-8.536373459926823e-05,-6.912323952306835e-05,0.0,0.0,0.0,0.0,0.0,0.0,0.0,0.0,0.0,0.00765368443107871,0.035656350933595024,9.810257212704625,0.0,0.0,0.0,0.0,0.0,0.0,0.0,0.0,0.0
2025/05/21 13:49:37.382207377,1747828177,379264692,mA1/imu,0.403100628500198,0.9151552022222638,0.0005547186146359845,0.0007289962492130904,0.0,0.0,0.0,0.0,0.0,0.0,0.0,0.0,0.0,-0.0008336333396387656,1.2351153612806482e-06,-6.774929870107155e-05,0.0,0.0,0.0,0.0,0.0,0.0,0.0,0.0,0.0,0.008085905456125664,0.5546060747582765,9.811077569490578,0.0,0.0,0.0,0.0,0.0,0.0,0.0,0.0,0.0
2025/05/21 13:49:37.433921949,1747828177,432476548,mA1/imu,0.40309909638414343,0.9151558750704669,0.0005577267012170848,0.0007292182262434296,0.0,0.0,0.0,0.0,0.0,0.0,0.0,0.0,0.0,-0.0006947239487196114,7.161912837452151e-05,-6.629946755181898e-05,0.0,0.0,0.0,0.0,0.0,0.0,0.0,0.0,0.0,0.008502799519679758,-0.06694378245989427,9.809803498072961,0.0,0.0,0.0,0.0,0.0,0.0,0.0,0.0,0.0
2025/05/21 13:49:37.482450805,1747828177,481723283,mA1/imu,0.40309760156716257,0.9151565395452521,0.0005539703127834257,0.0007244689456176264,0.0,0.0,0.0,0.0,0.0,0.0,0.0,0.0,0.0,0.0009089564513538121,0.00013529060782497654,-6.484762913198935e-05,0.0,0.0,0.0,0.0,0.0,0.0,0.0,0.0,0.0,0.00811369814597958,-0.5852504869439025,9.80874973466479,0.0,0.0,0.0,0.0,0.0,0.0,0.0,0.0,0.0
2025/05/21 13:49:37.533837341,1747828177,532694445,mA1/imu,0.4030961364753388,0.9151571912497497,0.0005513672854743155,0.0007183708240385506,0.0,0.0,0.0,0.0,0.0,0.0,0.0,0.0,0.0,0.000777318963251291,0.00020480813427820052,-6.352984312611082e-05,0.0,0.0,0.0,0.0,0.0,0.0,0.0,0.0,0.0,0.007813957337470815,0.03578344218605778,9.810283693846639,0.0,0.0,0.0,0.0,0.0,0.0,0.0,0.0,0.0
2025/05/21 13:49:37.583889279,1747828177,582582326,mA1/imu,0.40309469494103994,0.915157826353191,0.0005565522596859258,0.00071415997858553,0.0,0.0,0.0,0.0,0.0,0.0,0.0,0.0,0.0,-0.0008099299001065233,0.00026278195322868307,-6.228269114178285e-05,0.0,0.0,0.0,0.0,0.0,0.0,0.0,0.0,0.0,0.008251305488647135,0.5546648745752664,9.811097002400864,0.0,0.0,0.0,0.0,0.0,0.0,0.0,0.0,0.0
2025/05/21 13:49:37.635833124,1747828177,634599942,mA1/imu,0.40309328275451395,0.9151584495024541,0.0005615134689227757,0.0007088053880797178,0.0,0.0,0.0,0.0,0.0,0.0,0.0,0.0,0.0,-0.0006798513524682576,0.0002883343195306257,-6.099639431090902e-05,0.0,0.0,0.0,0.0,0.0,0.0,0.0,0.0,0.0,0.008743655901861278,-0.06696542921905511,9.809835972332083,0.0,0.0,0.0,0.0,0.0,0.0,0.0,0.0,0.0
2025/05/21 13:49:37.686144858,1747828177,685140305,mA1/imu,0.4030919042529643,0.9151590649139437,0.000559432632356972,0.0006997618773004543,0.0,0.0,0.0,0.0,0.0,0.0,0.0,0.0,0.0,0.0009111549904162391,0.00029647968701026643,-5.9727284098756076e-05,0.0,0.0,0.0,0.0,0.0,0.0,0.0,0.0,0.0,0.008351261905854454,-0.5855099286303143,9.808793517964855,0.0,0.0,0.0,0.0,0.0,0.0,0.0,0.0,0.0
2025/05/21 13:49:37.727647683,1747828177,726360243,mA1/imu,0.4030905518311716,0.9151596681626537,0.0005581177618558762,0.0006908671560700947,0.0,0.0,0.0,0.0,0.0,0.0,0.0,0.0,0.0,0.0007722056809602479,0.0003018806085323927,-5.859971775554833e-05,0.0,0.0,0.0,0.0,0.0,0.0,0.0,0.0,0.0,0.008062814011469684,0.035663685045206305,9.810306929756008,0.0,0.0,0.0,0.0,0.0,0.0,0.0,0.0,0.0
2025/05/21 13:49:37.777299926,1747828177,776020004,mA1/imu,0.4030892193613383,0.9151602554547074,0.0005640995792982116,0.0006854651020578411,0.0,0.0,0.0,0.0,0.0,0.0,0.0,0.0,0.0,-0.0008231670009783987,0.00029181190608118984,-5.7557301656693966e-05,0.0,0.0,0.0,0.0,0.0,0.0,0.0,0.0,0.0,0.008486550271927107,0.5545941940568695,9.811117576861133,0.0,0.0,0.0,0.0,0.0,0.0,0.0,0.0,0.0
2025/05/21 13:49:37.829139197,1747828177,827801595,mA1/imu,0.4030879122449106,0.915160831591352,0.0005693516630640287,0.0006805598783725393,0.0,0.0,0.0,0.0,0.0,0.0,0.0,0.0,0.0,-0.0007008017838619928,0.0002496355579477213,-5.648253713459959e-05,0.0,0.0,0.0,0.0,0.0,0.0,0.0,0.0,0.0,0.00894050907528542,-0.0669708911156212,9.809850372246883,0.0,0.0,0.0,0.0,0.0,0.0,0.0,0.0,0.0
2025/05/21 13:49:37.879949788,1747828177,877942379,mA1/imu,0.4030866345974188,0.9151614009395936,0.0005670652122701189,0.0006735549363783388,0.0,0.0,0.0,0.0,0.0,0.0,0.0,0.0,0.0,0.0008830896401470588,0.0001930775875000216,-5.542240959227664e-05,0.0,0.0,0.0,0.0,0.0,0.0,0.0,0.0,0.0,0.008526030287505926,-0.5855006135681354,9.808786729786837,0.0,0.0,0.0,0.0,0.0,0.0,0.0,0.0,0.0
2025/05/21 13:49:37.931299850,1747828177,929351568,mA1/imu,0.40308537913623277,0.9151619591063256,0.0005650859376537993,0.0006681385742425742,0.0,0.0,0.0,0.0,0.0,0.0,0.0,0.0,0.0,0.00073818614734308,0.00014182957236607427,-5.4496503973792584e-05,0.0,0.0,0.0,0.0,0.0,0.0,0.0,0.0,0.0,0.008165263374613794,0.035600576170904924,9.810296856476036,0.0,0.0,0.0,0.0,0.0,0.0,0.0,0.0,0.0
2025/05/21 13:49:37.980279353,1747828177,979393779,mA1/imu,0.403084140039822,0.9151625024105592,0.000569926463725449,0.0006673933070796151,0.0,0.0,0.0,0.0,0.0,0.0,0.0,0.0,0.0,-0.0008583124399122008,8.536044337392675e-05,-5.364838068928011e-05,0.0,0.0,0.0,0.0,0.0,0.0,0.0,0.0,0.0,0.008553030895644905,0.5547595853084418,9.811101960469681,0.0,0.0,0.0,0.0,0.0,0.0,0.0,0.0,0.0
2025/05/21 13:49:38.31923700,1747828178,30596442,mA1/imu,0.4030829225290245,0.9151630357737739,0.0005737599661600945,0.0006680705740439463,0.0,0.0,0.0,0.0,0.0,0.0,0.0,0.0,0.0,-0.0007404875469193709,1.0430688507760333e-05,-5.274881167305969e-05,0.0,0.0,0.0,0.0,0.0,0.0,0.0,0.0,0.0,0.00890849800966485,-0.06682158413057099,9.809828919906101,0.0,0.0,0.0,0.0,0.0,0.0,0.0,0.0,0.0
2025/05/21 13:49:38.82934412,1747828178,81003723,mA1/imu,0.4030817309677864,0.9151635636356356,0.0005698773563792931,0.000667228248528523,0.0,0.0,0.0,0.0,0.0,0.0,0.0,0.0,0.0,0.0008417318636185185,-6.420463905150774e-05,-5.184216329344931e-05,0.0,0.0,0.0,0.0,0.0,0.0,0.0,0.0,0.0,0.008459571145895045,-0.5854017901695477,9.808772528709513,0.0,0.0,0.0,0.0,0.0,0.0,0.0,0.0,0.0
2025/05/21 13:49:38.135661632,1747828178,133653156,mA1/imu,0.40308055851765895,0.9151640816094603,0.0005662187535098635,0.000668186597101508,0.0,0.0,0.0,0.0,0.0,0.0,0.0,0.0,0.0,0.00069734663600506,-0.00011847612761462359,-5.1050758020742645e-05,0.0,0.0,0.0,0.0,0.0,0.0,0.0,0.0,0.0,0.00801475324643686,0.035547528901189215,9.81027186715039,0.0,0.0,0.0,0.0,0.0,0.0,0.0,0.0,0.0
2025/05/21 13:49:38.178880457,1747828178,177086403,mA1/imu,0.4030793996075012,0.9151645859855907,0.0005694788918967743,0.0006736940481430716,0.0,0.0,0.0,0.0,0.0,0.0,0.0,0.0,0.0,-0.0009000999024498628,-0.0001633381055646666,-5.031050803458495e-05,0.0,0.0,0.0,0.0,0.0,0.0,0.0,0.0,0.0,0.008402024453621183,0.5544610144687042,9.811066414905511,0.0,0.0,0.0,0.0,0.0,0.0,0.0,0.0,0.0
2025/05/21 13:49:38.229081021,1747828178,228095515,mA1/imu,0.40307825997211266,0.9151650817301805,0.0005718198911742922,0.0006801041522974973,0.0,0.0,0.0,0.0,0.0,0.0,0.0,0.0,0.0,-0.0007756721123545989,-0.00021193246689766925,-4.9491279323899233e-05,0.0,0.0,0.0,0.0,0.0,0.0,0.0,0.0,0.0,0.008671368371638826,-0.06684281105988257,9.80980194974349,0.0,0.0,0.0,0.0,0.0,0.0,0.0,0.0,0.0
2025/05/21 13:49:38.281103376,1747828178,278028600,mA1/imu,0.4030771444438011,0.9151655732602426,0.0005666262379412227,0.0006841644458061314,0.0,0.0,0.0,0.0,0.0,0.0,0.0,0.0,0.0,0.0008136465930602771,-0.00024880531438707963,-4.864456576776739e-05,0.0,0.0,0.0,0.0,0.0,0.0,0.0,0.0,0.0,0.008224688570432945,-0.5853795166535266,9.808738156788753,0.0,0.0,0.0,0.0,0.0,0.0,0.0,0.0,0.0
2025/05/21 13:49:38.332297812,1747828178,331176124,mA1/imu,0.40307604649717493,0.9151660561598423,0.0005619345986282642,0.0006889285554897639,0.0,0.0,0.0,0.0,0.0,0.0,0.0,0.0,0.0,0.0006770028364586282,-0.0002543087621299514,-4.7887224817253895e-05,0.0,0.0,0.0,0.0,0.0,0.0,0.0,0.0,0.0,0.007748133841751799,0.03548687039117722,9.810241061821714,0.0,0.0,0.0,0.0,0.0,0.0,0.0,0.0,0.0
2025/05/21 13:49:38.382454280,1747828178,381223523,mA1/imu,0.40307496080216476,0.9151665266887433,0.0005645045649939521,0.0006969486286026267,0.0,0.0,0.0,0.0,0.0,0.0,0.0,0.0,0.0,-0.0009119541712932854,-0.00024380433248753753,-4.7159425193094316e-05,0.0,0.0,0.0,0.0,0.0,0.0,0.0,0.0,0.0,0.008133943779512865,0.554422065806464,9.81104784957713,0.0,0.0,0.0,0.0,0.0,0.0,0.0,0.0,0.0
2025/05/21 13:49:38.434632540,1747828178,432391545,mA1/imu,0.4030738936641645,0.9151669896937864,0.0005665369543967501,0.000704455180969274,0.0,0.0,0.0,0.0,0.0,0.0,0.0,0.0,0.0,-0.0007784002782618968,-0.00023314522718507382,-4.633570730023492e-05,0.0,0.0,0.0,0.0,0.0,0.0,0.0,0.0,0.0,0.008401237167165006,-0.06681608379186188,9.809791396088695,0.0,0.0,0.0,0.0,0.0,0.0,0.0,0.0,0.0
2025/05/21 13:49:38.484862170,1747828178,483661033,mA1/imu,0.40307285049924335,0.9151674494865633,0.0005613737560203404,0.0007081314704412932,0.0,0.0,0.0,0.0,0.0,0.0,0.0,0.0,0.0,0.0008254565045082569,-0.0002105980293085616,-4.547157278353735e-05,0.0,0.0,0.0,0.0,0.0,0.0,0.0,0.0,0.0,0.007976087802804824,-0.5849924632698295,9.8087297432882,0.0,0.0,0.0,0.0,0.0,0.0,0.0,0.0,0.0
2025/05/21 13:49:38.536240685,1747828178,534967647,mA1/imu,0.4030718247201207,0.9151679016073885,0.0005570661329459711,0.0007110988996433384,0.0,0.0,0.0,0.0,0.0,0.0,0.0,0.0,0.0,0.00069428924182749,-0.00016058153375079134,-4.4692204094115074e-05,0.0,0.0,0.0,0.0,0.0,0.0,0.0,0.0,0.0,0.007564467992398502,0.035660630404453164,9.810246365445122,0.0,0.0,0.0,0.0,0.0,0.0,0.0,0.0,0.0
2025/05/21 13:49:38.585971211,1747828178,584905995,mA1/imu,0.4030708109603644,0.9151683421877028,0.0005604025136539976,0.0007160713570620813,0.0,0.0,0.0,0.0,0.0,0.0,0.0,0.0,0.0,-0.0008881845819661473,-0.00010069384798964668,-4.393710812070913e-05,0.0,0.0,0.0,0.0,0.0,0.0,0.0,0.0,0.0,0.00796263597815088,0.5545116757889519,9.811048574889362,0.0,0.0,0.0,0.0,0.0,0.0,0.0,0.0,0.0
2025/05/21 13:49:38.628683678,1747828178,626592585,mA1/imu,0.40306981582319074,0.9151687759182796,0.0005635009959174928,0.000719460300762904,0.0,0.0,0.0,0.0,0.0,0.0,0.0,0.0,0.0,-0.0007488364085781887,-5.028244244102041e-05,-4.309576959596716e-05,0.0,0.0,0.0,0.0,0.0,0.0,0.0,0.0,0.0,0.008311907102868601,-0.06682392949277047,9.809811448610184,0.0,0.0,0.0,0.0,0.0,0.0,0.0,0.0,0.0
2025/05/21 13:49:38.677612749,1747828178,676041501,mA1/imu,0.40306884468962123,0.9151692069508529,0.0005596689193711616,0.0007182340994886078,0.0,0.0,0.0,0.0,0.0,0.0,0.0,0.0,0.0,0.0008544802567249164,6.398727996068153e-07,-4.22260394967192e-05,0.0,0.0,0.0,0.0,0.0,0.0,0.0,0.0,0.0,0.00791617696468227,-0.5853834075576312,9.808774477557032,0.0,0.0,0.0,0.0,0.0,0.0,0.0,0.0,0.0
2025/05/21 13:49:38.728479162,1747828178,727146412,mA1/imu,0.4030678907840908,0.915169630720375,0.0005568258580829306,0.0007158009223007,0.0,0.0,0.0,0.0,0.0,0.0,0.0,0.0,0.0,0.0007300960787655149,6.571815331430419e-05,-4.1444195289233276e-05,0.0,0.0,0.0,0.0,0.0,0.0,0.0,0.0,0.0,0.00758336640070675,0.03553989130229095,9.81027516736073,0.0,0.0,0.0,0.0,0.0,0.0,0.0,0.0,0.0
2025/05/21 13:49:38.778963418,1747828178,777205620,mA1/imu,0.40306694850651714,0.9151700433117552,0.000561594208454194,0.0007151631630618804,0.0,0.0,0.0,0.0,0.0,0.0,0.0,0.0,0.0,-0.000848976428141958,0.00012712238295032696,-4.071075148829354e-05,0.0,0.0,0.0,0.0,0.0,0.0,0.0,0.0,0.0,0.008019890635008261,0.5544793514383902,9.811063785237035,0.0,0.0,0.0,0.0,0.0,0.0,0.0,0.0,0.0
2025/05/21 13:49:38.829573638,1747828178,828541187,mA1/imu,0.40306602405687597,0.9151704493656079,0.0005660118918358432,0.0007130844771276461,0.0,0.0,0.0,0.0,0.0,0.0,0.0,0.0,0.0,-0.0007087658342407497,0.00016514660166636703,-3.9924738588805715e-05,0.0,0.0,0.0,0.0,0.0,0.0,0.0,0.0,0.0,0.008434498248629473,-0.06689072206022806,9.809846198600257,0.0,0.0,0.0,0.0,0.0,0.0,0.0,0.0,0.0
2025/05/21 13:49:38.880543871,1747828178,878831884,mA1/imu,0.4030651223374784,0.9151708530157017,0.0005633099805512785,0.0007068433010955529,0.0,0.0,0.0,0.0,0.0,0.0,0.0,0.0,0.0,0.0008932494583295515,0.0001917825560766629,-3.9131600848399926e-05,0.0,0.0,0.0,0.0,0.0,0.0,0.0,0.0,0.0,0.008052006552127266,-0.5854294152410294,9.808807945172445,0.0,0.0,0.0,0.0,0.0,0.0,0.0,0.0,0.0
2025/05/21 13:49:38.931072394,1747828178,929934477,mA1/imu,0.40306423627441756,0.9151712496268454,0.0005613363030688107,0.0007001389244753417,0.0,0.0,0.0,0.0,0.0,0.0,0.0,0.0,0.0,0.0007657353651118402,0.00022094276018048246,-3.8438686600682525e-05,0.0,0.0,0.0,0.0,0.0,0.0,0.0,0.0,0.0,0.007782537996416811,0.0355436886065365,9.810292920613591,0.0,0.0,0.0,0.0,0.0,0.0,0.0,0.0,0.0
2025/05/21 13:49:38.980983186,1747828178,979655099,mA1/imu,0.40306336009456617,0.9151716352398364,0.0005666536301352461,0.0006962078607135487,0.0,0.0,0.0,0.0,0.0,0.0,0.0,0.0,0.0,-0.0008179446662003704,0.0002384186139545001,-3.78108336644717e-05,0.0,0.0,0.0,0.0,0.0,0.0,0.0,0.0,0.0,0.00820987405394569,0.5544789708984669,9.811090896531498,0.0,0.0,0.0,0.0,0.0,0.0,0.0,0.0,0.0
2025/05/21 13:49:39.32522753,1747828179,31551856,mA1/imu,0.4030624995914508,0.9151720145605654,0.0005712699341536468,0.0006919818714104873,0.0,0.0,0.0,0.0,0.0,0.0,0.0,0.0,0.0,-0.0006839631145724178,0.0002267558263192929,-3.715158159301573e-05,0.0,0.0,0.0,0.0,0.0,0.0,0.0,0.0,0.0,0.008632138994420111,-0.06690267053691375,9.809875311669595,0.0,0.0,0.0,0.0,0.0,0.0,0.0,0.0,0.0
2025/05/21 13:49:39.81558392,1747828179,80509731,mA1/imu,0.4030616593320512,0.9151723917883954,0.0005684051183808684,0.0006848360555602312,0.0,0.0,0.0,0.0,0.0,0.0,0.0,0.0,0.0,0.0009108730580127479,0.00020147954026734913,-3.6490863075318026e-05,0.0,0.0,0.0,0.0,0.0,0.0,0.0,0.0,0.0,0.008230665078448635,-0.5854326545240972,9.808826642917957,0.0,0.0,0.0,0.0,0.0,0.0,0.0,0.0,0.0
2025/05/21 13:49:39.134574315,1747828179,132532139,mA1/imu,0.40306083235956147,0.9151727622673066,0.0005659205649761551,0.0006784950695246938,0.0,0.0,0.0,0.0,0.0,0.0,0.0,0.0,0.0,0.0007752690335977737,0.0001790071728537749,-3.592616613268976e-05,0.0,0.0,0.0,0.0,0.0,0.0,0.0,0.0,0.0,0.007936394744452638,0.03550516632314971,9.810271998843195,0.0,0.0,0.0,0.0,0.0,0.0,0.0,0.0,0.0
2025/05/21 13:49:39.183135491,1747828179,182243698,mA1/imu,0.4030600130180702,0.9151731220679099,0.0005704200802498702,0.0006761444221753418,0.0,0.0,0.0,0.0,0.0,0.0,0.0,0.0,0.0,-0.0008169300536864744,0.0001484205495870083,-3.542686225227425e-05,0.0,0.0,0.0,0.0,0.0,0.0,0.0,0.0,0.0,0.008353721824025861,0.5544373736104848,9.81107261507461,0.0,0.0,0.0,0.0,0.0,0.0,0.0,0.0,0.0
2025/05/21 13:49:39.234471959,1747828179,233493486,mA1/imu,0.40305920691826075,0.9151734760140255,0.0005739679245214055,0.0006745959161032024,0.0,0.0,0.0,0.0,0.0,0.0,0.0,0.0,0.0,-0.0006913717417261237,9.557523231797045e-05,-3.4891836149335956e-05,0.0,0.0,0.0,0.0,0.0,0.0,0.0,0.0,0.0,0.00870647357745323,-0.06687557319699881,9.80985400779997,0.0,0.0,0.0,0.0,0.0,0.0,0.0,0.0,0.0
2025/05/21 13:49:39.284223482,1747828179,283131660,mA1/imu,0.40305842508700257,0.9151738255374383,0.0005698606693746663,0.0006710263579271748,0.0,0.0,0.0,0.0,0.0,0.0,0.0,0.0,0.0,0.0008962413978865573,4.141899708070307e-05,-3.293210867557642e-05,0.0,0.0,0.0,0.0,0.0,0.0,0.0,0.0,0.0,0.0076813989860365795,-0.5849214987050452,9.808793732922252,0.0,0.0,0.0,0.0,0.0,0.0,0.0,0.0,0.0
2025/05/21 13:49:39.336012534,1747828179,334825300,mA1/imu,0.4030582145705505,0.9151739214569639,0.0005647337837593825,0.0006709903398795212,0.0,0.0,0.0,0.0,0.0,0.0,0.0,0.0,0.0,0.0007756748724534208,-0.00016812163748769777,6.334127381282691e-06,0.0,0.0,0.0,0.0,0.0,0.0,0.0,0.0,0.0,0.013099044468954123,0.037917417135026436,9.810064527751033,0.0,0.0,0.0,0.0,0.0,0.0,0.0,0.0,0.0
2025/05/21 13:49:39.385832493,1747828179,384905430,mA1/imu,0.4030588956843344,0.9151736159724858,0.0005644495724434957,0.0006787004127001305,0.0,0.0,0.0,0.0,0.0,0.0,0.0,0.0,0.0,-0.0007961651593207555,-0.00035328310514293193,4.6061682097848525e-05,0.0,0.0,0.0,0.0,0.0,0.0,0.0,0.0,0.0,0.012544589122629117,0.5574382243805535,9.810873774449473,0.0,0.0,0.0,0.0,0.0,0.0,0.0,0.0,0.0
2025/05/21 13:49:39.428020214,1747828179,425996153,mA1/imu,0.40306058701360686,0.915172864553499,0.000561618724417394,0.0006897576370645034,0.0,0.0,0.0,0.0,0.0,0.0,0.0,0.0,0.0,-0.0006494771902454412,-0.0005036958898170016,9.170158235016735e-05,0.0,0.0,0.0,0.0,0.0,0.0,0.0,0.0,0.0,0.01257154069215703,-0.06643189281025898,9.81002588664732,0.0,0.0,0.0,0.0,0.0,0.0,0.0,0.0,0.0
2025/05/21 13:49:39.479382143,1747828179,476052012,mA1/imu,0.4030633096061895,0.9151716645816282,0.0005499976940716563,0.0007002133483776775,0.0,0.0,0.0,0.0,0.0,0.0,0.0,0.0,0.0,0.0009484959833528661,-0.0006114999192320004,0.0001372066178962651,0.0,0.0,0.0,0.0,0.0,0.0,0.0,0.0,0.0,0.011196073621526876,-0.5823298821364009,9.808940815103607,0.0,0.0,0.0,0.0,0.0,0.0,0.0,0.0,0.0
2025/05/21 13:49:39.527892253,1747828179,526943465,mA1/imu,0.40306712894404967,0.9151699802710808,0.0005382579018386158,0.0007120771459233086,0.0,0.0,0.0,0.0,0.0,0.0,0.0,0.0,0.0,0.0008241896608076571,-0.0006325969051638906,0.00018579058205440047,0.0,0.0,0.0,0.0,0.0,0.0,0.0,0.0,0.0,0.01022389622043135,0.038783123976514754,9.810081319044013,0.0,0.0,0.0,0.0,0.0,0.0,0.0,0.0,0.0
2025/05/21 13:49:39.578053814,1747828179,576716359,mA1/imu,0.4030720383780203,0.9151678093218794,0.0005331617814099096,0.0007269094132752847,0.0,0.0,0.0,0.0,0.0,0.0,0.0,0.0,0.0,-0.0007387048922837224,-0.0006077466052525274,0.0002329993373207783,0.0,0.0,0.0,0.0,0.0,0.0,0.0,0.0,0.0,0.010420382740284314,0.5590255608749342,9.810839511108023,0.0,0.0,0.0,0.0,0.0,0.0,0.0,0.0,0.0
2025/05/21 13:49:39.629625979,1747828179,628195414,mA1/imu,0.4030780490589673,0.9151651540562139,0.0005280772890883336,0.0007404744828009052,0.0,0.0,0.0,0.0,0.0,0.0,0.0,0.0,0.0,-0.0006196342630194708,-0.0005419532154631755,0.0002833626203070108,0.0,0.0,0.0,0.0,0.0,0.0,0.0,0.0,0.0,0.009815378453235303,-0.06319712880204914,9.80992498120963,0.0,0.0,0.0,0.0,0.0,0.0,0.0,0.0,0.0
2025/05/21 13:49:39.679234311,1747828179,678247275,mA1/imu,0.40308525854096816,0.9151619784957294,0.0005168905010221705,0.0007485231812279575,0.0,0.0,0.0,0.0,0.0,0.0,0.0,0.0,0.0,0.0009659681886387302,-0.0004329969833272418,0.00033550477088713747,0.0,0.0,0.0,0.0,0.0,0.0,0.0,0.0,0.0,0.0092740094544905,-0.582092925881074,9.808942139752293,0.0,0.0,0.0,0.0,0.0,0.0,0.0,0.0,0.0
2025/05/21 13:49:39.731843586,1747828179,730746436,mA1/imu,0.40309371557714513,0.9151582545411717,0.0005079573841699751,0.0007533834769086497,0.0,0.0,0.0,0.0,0.0,0.0,0.0,0.0,0.0,0.0008297568033722046,-0.0002528865211620332,0.000391814784088933,0.0,0.0,0.0,0.0,0.0,0.0,0.0,0.0,0.0,0.007821985403909142,0.039665304148502986,9.810176408606692,0.0,0.0,0.0,0.0,0.0,0.0,0.0,0.0,0.0
2025/05/21 13:49:39.783287442,1747828179,782141708,mA1/imu,0.40310344220252253,0.9151539668688142,0.0005083060462188263,0.0007572540618996531,0.0,0.0,0.0,0.0,0.0,0.0,0.0,0.0,0.0,-0.0007647363867500129,-3.902006793520449e-05,0.00044790317426765536,0.0,0.0,0.0,0.0,0.0,0.0,0.0,0.0,0.0,0.005518579078503363,0.5591421066083293,9.810933072618887,0.0,0.0,0.0,0.0,0.0,0.0,0.0,0.0,0.0
2025/05/21 13:49:39.835711786,1747828179,834642538,mA1/imu,0.40311455251431905,0.9151490733777413,0.000510793528067604,0.0007550741774974376,0.0,0.0,0.0,0.0,0.0,0.0,0.0,0.0,0.0,-0.0006430843384723045,0.00023153010930040762,0.0005102883648361926,0.0,0.0,0.0,0.0,0.0,0.0,0.0,0.0,0.0,0.005949378761051137,-0.06274421349984864,9.8099247120323,0.0,0.0,0.0,0.0,0.0,0.0,0.0,0.0,0.0
2025/05/21 13:49:39.876398017,1747828179,875469850,mA1/imu,0.40312706119815855,0.9151435737760656,0.0005089432065011163,0.0007435609722824161,0.0,0.0,0.0,0.0,0.0,0.0,0.0,0.0,0.0,0.0009380787673297044,0.0004891877698838837,0.0005711278680160908,0.0,0.0,0.0,0.0,0.0,0.0,0.0,0.0,0.0,0.005382670397587188,-0.5812789323768319,9.808873712466417,0.0,0.0,0.0,0.0,0.0,0.0,0.0,0.0,0.0
2025/05/21 13:49:39.928509080,1747828179,926720965,mA1/imu,0.40314100814157466,0.9151374428393912,0.0005106907160568207,0.0007262664576585176,0.0,0.0,0.0,0.0,0.0,0.0,0.0,0.0,0.0,0.0007924714477846965,0.0007637378278761738,0.0006355821275287022,0.0,0.0,0.0,0.0,0.0,0.0,0.0,0.0,0.0,0.004217122211309161,0.03993465224268321,9.810216747733415,0.0,0.0,0.0,0.0,0.0,0.0,0.0,0.0,0.0
2025/05/21 13:49:39.977508104,1747828179,976569337,mA1/imu,0.4031564008066072,0.9151306711845789,0.0005216981848937736,0.0007063829899356118,0.0,0.0,0.0,0.0,0.0,0.0,0.0,0.0,0.0,-0.0007776794199327228,0.0009983440941258924,0.0006985408942998016,0.0,0.0,0.0,0.0,0.0,0.0,0.0,0.0,0.0,0.00453546588236345,0.5612144989150252,9.810940268110468,0.0,0.0,0.0,0.0,0.0,0.0,0.0,0.0,0.0
2025/05/21 13:49:40.29047430,1747828180,28042850,mA1/imu,0.4031732837286282,0.9151232442517536,0.0005348390381051927,0.0006819566140498876,0.0,0.0,0.0,0.0,0.0,0.0,0.0,0.0,0.0,-0.0006849131412251157,0.0011742278187352588,0.0007650317143692825,0.0,0.0,0.0,0.0,0.0,0.0,0.0,0.0,0.0,0.004662684478424434,-0.061328938274827605,9.809792973899006,0.0,0.0,0.0,0.0,0.0,0.0,0.0,0.0,0.0
2025/05/21 13:49:40.79725692,1747828180,77509769,mA1/imu,0.40319166238136034,0.9151151645900266,0.0005428380226920207,0.0006513450737311733,0.0,0.0,0.0,0.0,0.0,0.0,0.0,0.0,0.0,0.0008800663138519508,0.0012865515651824568,0.0008307237358809137,0.0,0.0,0.0,0.0,0.0,0.0,0.0,0.0,0.0,0.0035646154988641116,-0.5800505219996048,9.808859941476308,0.0,0.0,0.0,0.0,0.0,0.0,0.0,0.0,0.0
2025/05/21 13:49:40.134114132,1747828180,129057527,mA1/imu,0.4032115864472387,0.9151064022482388,0.0005528894371298275,0.0006192190694461108,0.0,0.0,0.0,0.0,0.0,0.0,0.0,0.0,0.0,0.0007247689707673212,0.0013547827446484459,0.0008988739186640461,0.0,0.0,0.0,0.0,0.0,0.0,0.0,0.0,0.0,0.0036457301010529054,0.040705748053096305,9.810357100416848,0.0,0.0,0.0,0.0,0.0,0.0,0.0,0.0,0.0
2025/05/21 13:49:40.184005977,1747828180,180060973,mA1/imu,0.4032330559145829,0.9150969506784189,0.0005705000068896834,0.0005899208323767274,0.0,0.0,0.0,0.0,0.0,0.0,0.0,0.0,0.0,-0.00087253469249315,0.0013535929540977236,0.0009670224617735091,0.0,0.0,0.0,0.0,0.0,0.0,0.0,0.0,0.0,0.0035225947278321465,0.5607578401851842,9.811047739760522,0.0,0.0,0.0,0.0,0.0,0.0,0.0,0.0,0.0
2025/05/21 13:49:40.235164780,1747828180,232668131,mA1/imu,0.4032561716924209,0.9150867713168545,0.0005876507444582198,0.0005618002049208751,0.0,0.0,0.0,0.0,0.0,0.0,0.0,0.0,0.0,-0.0007676573005257592,0.001269046993392685,0.0010405237620257821,0.0,0.0,0.0,0.0,0.0,0.0,0.0,0.0,0.0,0.004222648825160081,-0.061519915888225245,9.80985047631825,0.0,0.0,0.0,0.0,0.0,0.0,0.0,0.0,0.0
2025/05/21 13:49:40.284182044,1747828180,283099333,mA1/imu,0.40328096642470174,0.9150758555689731,0.0005967934064838174,0.0005333965696107813,0.0,0.0,0.0,0.0,0.0,0.0,0.0,0.0,0.0,0.0008061737420652465,0.0011192865749235458,0.001114909563174214,0.0,0.0,0.0,0.0,0.0,0.0,0.0,0.0,0.0,0.00319702056584837,-0.5798746761049541,9.80886388602614,0.0,0.0,0.0,0.0,0.0,0.0,0.0,0.0,0.0
2025/05/21 13:49:40.335475458,1747828180,334258898,mA1/imu,0.40330752430133077,0.9150641590948815,0.000605193326850889,0.0005092376125758583,0.0,0.0,0.0,0.0,0.0,0.0,0.0,0.0,0.0,0.000660552120202632,0.0009384494407518694,0.00119288940224079,0.0,0.0,0.0,0.0,0.0,0.0,0.0,0.0,0.0,0.0031319893213263015,0.04105188590155011,9.81032235548149,0.0,0.0,0.0,0.0,0.0,0.0,0.0,0.0,0.0
2025/05/21 13:49:40.385207187,1747828180,384091468,mA1/imu,0.40333587297975687,0.9150516656513912,0.0006168023107765193,0.0004922511363821746,0.0,0.0,0.0,0.0,0.0,0.0,0.0,0.0,0.0,-0.0008679847295562157,0.0007244046523805955,0.0012724693181674041,0.0,0.0,0.0,0.0,0.0,0.0,0.0,0.0,0.0,0.002975147750637232,0.5649249675985585,9.811009417198088,0.0,0.0,0.0,0.0,0.0,0.0,0.0,0.0,0.0
2025/05/21 13:49:40.437032055,1747828180,436052629,mA1/imu,0.4033661271267388,0.9150383279364044,0.0006276973005957394,0.0004815498142231475,0.0,0.0,0.0,0.0,0.0,0.0,0.0,0.0,0.0,-0.0009931544000177483,0.0004634320057179809,0.0013563946155004615,0.0,0.0,0.0,0.0,0.0,0.0,0.0,0.0,0.0,0.0034159190481290024,0.015022718308902557,9.810196054819857,0.0,0.0,0.0,0.0,0.0,0.0,0.0,0.0,0.0
2025/05/21 13:49:40.477210558,1747828180,475438794,mA1/imu,0.4033982928857116,0.9150241521454368,0.0006277892631187834,0.0004734638945810163,0.0,0.0,0.0,0.0,0.0,0.0,0.0,0.0,0.0,0.0010449830075236143,0.00017774398228452947,0.0014408844552601318,0.0,0.0,0.0,0.0,0.0,0.0,0.0,0.0,0.0,0.0025470038701266985,-0.5615357213803897,9.808729061213565,0.0,0.0,0.0,0.0,0.0,0.0,0.0,0.0,0.0
2025/05/21 13:49:40.527713379,1747828180,526643752,mA1/imu,0.40343252809618374,0.9150090578277774,0.00062919884374306,0.00047273233466516853,0.0,0.0,0.0,0.0,0.0,0.0,0.0,0.0,0.0,0.00029998268324782357,-4.504422717363311e-05,0.0015305970419681066,0.0,0.0,0.0,0.0,0.0,0.0,0.0,0.0,0.0,0.002156889365644058,0.015837439058890897,9.809336766144503,0.0,0.0,0.0,0.0,0.0,0.0,0.0,0.0,0.0
2025/05/21 13:49:40.577907239,1747828180,576324018,mA1/imu,0.40346869822701503,0.914993108778501,0.0006270509266739883,0.00047670324845290764,0.0,0.0,0.0,0.0,0.0,0.0,0.0,0.0,0.0,0.00028854569116487574,-0.0002677022069088039,0.0016157862948755028,0.0,0.0,0.0,0.0,0.0,0.0,0.0,0.0,0.0,0.0015543513356313077,0.04216337643826459,9.809590874438571,0.0,0.0,0.0,0.0,0.0,0.0,0.0,0.0,0.0
2025/05/21 13:49:40.629278327,1747828180,627941316,mA1/imu,0.4035068858903826,0.9149762611761488,0.0006294492184666822,0.00048817706086066906,0.0,0.0,0.0,0.0,0.0,0.0,0.0,0.0,0.0,-0.0010511610086258883,-0.0004547768101704685,0.001704396309495014,0.0,0.0,0.0,0.0,0.0,0.0,0.0,0.0,0.0,0.0013172889102135857,0.41184171294105815,9.810456600041423,0.0,0.0,0.0,0.0,0.0,0.0,0.0,0.0,0.0
2025/05/21 13:49:40.678191743,1747828180,677214986,mA1/imu,0.40354711141546035,0.9149585215523512,0.0006195735785813762,0.0004988341951088888,0.0,0.0,0.0,0.0,0.0,0.0,0.0,0.0,0.0,0.0005419925459688294,-0.0006077962896550933,0.0017951750402851211,0.0,0.0,0.0,0.0,0.0,0.0,0.0,0.0,0.0,0.00025280057156953223,-0.5983001452779285,9.808810552409309,0.0,0.0,0.0,0.0,0.0,0.0,0.0,0.0,0.0
2025/05/21 13:49:40.730123483,1747828180,728709613,mA1/imu,0.4035894631329883,0.914939837392467,0.0006123766327258518,0.0005139991553647794,0.0,0.0,0.0,0.0,0.0,0.0,0.0,0.0,0.0,0.0004579143292007459,-0.0007123388034199827,0.001887513034367039,0.0,0.0,0.0,0.0,0.0,0.0,0.0,0.0,0.0,0.000533745271882085,0.021402520976717618,9.809700863166352,0.0,0.0,0.0,0.0,0.0,0.0,0.0,0.0,0.0
2025/05/21 13:49:40.780448851,1747828180,778170447,mA1/imu,0.4036339316103474,0.91492021837504,0.0006020308386238472,0.0005299247227253961,0.0,0.0,0.0,0.0,0.0,0.0,0.0,0.0,0.0,0.0003885579002327705,-0.0007696692554842933,0.001981586946229681,0.0,0.0,0.0,0.0,0.0,0.0,0.0,0.0,0.0,-1.016680204031159e-05,0.01537721359163615,9.810088422649148,0.0,0.0,0.0,0.0,0.0,0.0,0.0,0.0,0.0
2025/05/21 13:49:40.830904351,1747828180,829796970,mA1/imu,0.4036805812994977,0.9148996274222959,0.0005984347460945027,0.0005494543644711592,0.0,0.0,0.0,0.0,0.0,0.0,0.0,0.0,0.0,-0.0011419181669064845,-0.0007709458263425545,0.0020774386834968295,0.0,0.0,0.0,0.0,0.0,0.0,0.0,0.0,0.0,0.00021984299723147062,0.5369569409285899,9.810914375306982,0.0,0.0,0.0,0.0,0.0,0.0,0.0,0.0,0.0
2025/05/21 13:49:40.880722345,1747828180,879166379,mA1/imu,0.40372940284297487,0.9148780815345426,0.0005878618185573012,0.0005653549434274929,0.0,0.0,0.0,0.0,0.0,0.0,0.0,0.0,0.0,0.0004592399207655635,-0.0007422525044817378,0.0021712660989917816,0.0,0.0,0.0,0.0,0.0,0.0,0.0,0.0,0.0,-1.6898938631588686e-06,-0.6087107939027377,9.809546432536782,0.0,0.0,0.0,0.0,0.0,0.0,0.0,0.0,0.0
2025/05/21 13:49:40.931859624,1747828180,930653670,mA1/imu,0.4037803997825126,0.9148555727814586,0.0005769022800211892,0.0005804187650110818,0.0,0.0,0.0,0.0,0.0,0.0,0.0,0.0,0.0,0.0014946653029733153,-0.0007240677929210459,0.0022663863453050337,0.0,0.0,0.0,0.0,0.0,0.0,0.0,0.0,0.0,-0.00024505100854872036,-0.539003852261886,9.80986710295468,0.0,0.0,0.0,0.0,0.0,0.0,0.0,0.0,0.0
2025/05/21 13:49:40.981446270,1747828180,980047271,mA1/imu,0.40383367363513456,0.9148320525885346,0.0005698569439069809,0.0005956996423324332,0.0,0.0,0.0,0.0,0.0,0.0,0.0,0.0,0.0,-0.00022048395869530592,-0.0006519164528308079,0.0023707231094114204,0.0,0.0,0.0,0.0,0.0,0.0,0.0,0.0,0.0,0.000976820544709503,-0.029136489134416542,9.81229585381815,0.0,0.0,0.0,0.0,0.0,0.0,0.0,0.0,0.0
2025/05/21 13:49:41.32919099,1747828181,31508219,mA1/imu,0.40388918527939593,0.9148075385974852,0.0005664020239808741,0.0006103509675557976,0.0,0.0,0.0,0.0,0.0,0.0,0.0,0.0,0.0,-0.0008639689121258379,-0.0005550800950115505,0.0024554713659850746,0.0,0.0,0.0,0.0,0.0,0.0,0.0,0.0,0.0,0.0006319354583979439,-0.07481042907634308,9.812826843399847,0.0,0.0,0.0,0.0,0.0,0.0,0.0,0.0,0.0
2025/05/21 13:49:41.82275323,1747828181,80908642,mA1/imu,0.403944971294178,0.9147829076806703,0.0005557634651144396,0.0006189575227131889,0.0,0.0,0.0,0.0,0.0,0.0,0.0,0.0,0.0,-0.00023079858497381572,-0.00043855722822067506,0.002417168219533267,0.0,0.0,0.0,0.0,0.0,0.0,0.0,0.0,0.0,0.000566723280323523,-0.027552066036531334,9.810035749358933,0.0,0.0,0.0,0.0,0.0,0.0,0.0,0.0,0.0
2025/05/21 13:49:41.133287814,1747828181,131931077,mA1/imu,0.4039992797609715,0.9147589222793899,0.0005505540955112793,0.0006268596761046492,0.0,0.0,0.0,0.0,0.0,0.0,0.0,0.0,0.0,-0.0008957309418961431,-0.00031194347581101116,0.002350981725397693,0.0,0.0,0.0,0.0,0.0,0.0,0.0,0.0,0.0,3.023182359516985e-05,0.5609111377948595,9.811420199064429,0.0,0.0,0.0,0.0,0.0,0.0,0.0,0.0,0.0
2025/05/21 13:49:41.182913667,1747828181,181904385,mA1/imu,0.40405224868443096,0.9147355210280972,0.0005523907027962396,0.0006338509460017055,0.0,0.0,0.0,0.0,0.0,0.0,0.0,0.0,0.0,-3.748309672443096e-05,-0.0001652182131159609,0.0022935258989483518,0.0,0.0,0.0,0.0,0.0,0.0,0.0,0.0,0.0,-0.0004239805589513262,-0.004563226457535196,9.810153346435397,0.0,0.0,0.0,0.0,0.0,0.0,0.0,0.0,0.0
2025/05/21 13:49:41.234146243,1747828181,233015683,mA1/imu,0.40410387558597344,0.9147127092153532,0.0005572693334077461,0.0006377987103505654,0.0,0.0,0.0,0.0,0.0,0.0,0.0,0.0,0.0,-0.0002714893564419152,-1.4905853405604827e-05,0.0022280179047314656,0.0,0.0,0.0,0.0,0.0,0.0,0.0,0.0,0.0,0.0005141740317171368,-0.018784189419030876,9.809274942133147,0.0,0.0,0.0,0.0,0.0,0.0,0.0,0.0,0.0
2025/05/21 13:49:41.283730383,1747828181,282685770,mA1/imu,0.40415393318736526,0.9146905881770443,0.0005641042633697927,0.0006387299079188742,0.0,0.0,0.0,0.0,0.0,0.0,0.0,0.0,0.0,-0.00025606238748968155,0.00012299171337133352,0.002156718133940454,0.0,0.0,0.0,0.0,0.0,0.0,0.0,0.0,0.0,0.0018833557260867799,-0.01638844155380918,9.812301369795389,0.0,0.0,0.0,0.0,0.0,0.0,0.0,0.0,0.0
2025/05/21 13:49:41.335380144,1747828181,334514349,mA1/imu,0.4042024064985493,0.9146691654342151,0.0005722224206621689,0.0006363538004760369,0.0,0.0,0.0,0.0,0.0,0.0,0.0,0.0,0.0,-0.00025372510325574635,0.0002693158489067119,0.002091778576396794,0.0,0.0,0.0,0.0,0.0,0.0,0.0,0.0,0.0,0.0022362887071307614,-0.014913885574599814,9.812793152228641,0.0,0.0,0.0,0.0,0.0,0.0,0.0,0.0,0.0
2025/05/21 13:49:41.385289661,1747828181,383640153,mA1/imu,0.40424922493510024,0.9146484733021645,0.0005803290883523495,0.0006305898349166194,0.0,0.0,0.0,0.0,0.0,0.0,0.0,0.0,0.0,-1.0468312282651504e-06,0.00039686162647224976,0.002025348341461568,0.0,0.0,0.0,0.0,0.0,0.0,0.0,0.0,0.0,-0.00025877376698403304,-0.10119139646571482,9.808605201916626,0.0,0.0,0.0,0.0,0.0,0.0,0.0,0.0,0.0
2025/05/21 13:49:41.436181301,1747828181,435126100,mA1/imu,0.4042944239213239,0.914628497486551,0.0005870473866189357,0.0006210853282904217,0.0,0.0,0.0,0.0,0.0,0.0,0.0,0.0,0.0,-0.00013857600171352557,0.0004978648169682531,0.0019506677273905774,0.0,0.0,0.0,0.0,0.0,0.0,0.0,0.0,0.0,0.000246268542991754,-0.005770887329896423,9.807561812445265,0.0,0.0,0.0,0.0,0.0,0.0,0.0,0.0,0.0
2025/05/21 13:49:41.485795903,1747828181,484488220,mA1/imu,0.4043379650992619,0.9146092493246218,0.000597765636251939,0.0006113145538537884,0.0,0.0,0.0,0.0,0.0,0.0,0.0,0.0,0.0,0.0013687210372243892,0.0005382102594079954,0.0018765005553112158,0.0,0.0,0.0,0.0,0.0,0.0,0.0,0.0,0.0,0.0005486898620364437,-0.533708699849551,9.807473272087323,0.0,0.0,0.0,0.0,0.0,0.0,0.0,0.0,0.0
2025/05/21 13:49:41.536591938,1747828181,535693491,mA1/imu,0.40437993892895613,0.9145906870520991,0.0006142856857407653,0.0006023308721556455,0.0,0.0,0.0,0.0,0.0,0.0,0.0,0.0,0.0,-0.00026436332503103625,0.0005918369601731076,0.0018090746455717958,0.0,0.0,0.0,0.0,0.0,0.0,0.0,0.0,0.0,0.0024402990066643244,-0.47268081994985695,9.809789199439187,0.0,0.0,0.0,0.0,0.0,0.0,0.0,0.0,0.0
2025/05/21 13:49:41.586507162,1747828181,585335603,mA1/imu,0.4044202742320429,0.9145728585318728,0.0006182014065417612,0.0005882634948312735,0.0,0.0,0.0,0.0,0.0,0.0,0.0,0.0,0.0,-0.0012469854545089129,0.0005865484620566538,0.0017357807480395003,0.0,0.0,0.0,0.0,0.0,0.0,0.0,0.0,0.0,0.0010143544304135697,0.5426409246658956,9.807165095072703,0.0,0.0,0.0,0.0,0.0,0.0,0.0,0.0,0.0
2025/05/21 13:49:41.628463646,1747828181,627133398,mA1/imu,0.4044589191272777,0.9145557677413012,0.0006294083993932077,0.0005781648383324718,0.0,0.0,0.0,0.0,0.0,0.0,0.0,0.0,0.0,-0.0010650916431657604,0.0005370512751773668,0.0016583076433433197,0.0,0.0,0.0,0.0,0.0,0.0,0.0,0.0,0.0,0.0019097558303236778,0.4580434632008533,9.807473436661914,0.0,0.0,0.0,0.0,0.0,0.0,0.0,0.0,0.0
2025/05/21 13:49:41.677995941,1747828181,676031056,mA1/imu,0.4044957574840892,0.9145394810049424,0.0006322468082040174,0.0005657955082008871,0.0,0.0,0.0,0.0,0.0,0.0,0.0,0.0,0.0,-5.038316569114649e-05,0.000481046494327411,0.0015798593873036434,0.0,0.0,0.0,0.0,0.0,0.0,0.0,0.0,0.0,0.0008468913064582544,-0.008456203675539163,9.80949650815061,0.0,0.0,0.0,0.0,0.0,0.0,0.0,0.0,0.0
2025/05/21 13:49:41.728770499,1747828181,727682576,mA1/imu,0.40453090025972194,0.9145239418826023,0.0006345576569173046,0.0005547928855012782,0.0,0.0,0.0,0.0,0.0,0.0,0.0,0.0,0.0,0.0006892585522433628,0.00041096985815380004,0.0015067234307045844,0.0,0.0,0.0,0.0,0.0,0.0,0.0,0.0,0.0,0.0019262544206554901,0.03533923696732871,9.810879814639057,0.0,0.0,0.0,0.0,0.0,0.0,0.0,0.0,0.0
2025/05/21 13:49:41.779032175,1747828181,777140046,mA1/imu,0.40456428334521166,0.9145091753278335,0.0006394897985686459,0.0005476635637077529,0.0,0.0,0.0,0.0,0.0,0.0,0.0,0.0,0.0,0.0006735045709931048,0.0002857759478907602,0.0014334461200354418,0.0,0.0,0.0,0.0,0.0,0.0,0.0,0.0,0.0,0.001208231865878119,0.028435085214585997,9.809197744691902,0.0,0.0,0.0,0.0,0.0,0.0,0.0,0.0,0.0
2025/05/21 13:49:41.829716175,1747828181,828546390,mA1/imu,0.40459589648388117,0.9144951924412069,0.0006401962110088034,0.0005419401588678557,0.0,0.0,0.0,0.0,0.0,0.0,0.0,0.0,0.0,0.0012803206692217257,0.00018435824560583122,0.0013623009334434067,0.0,0.0,0.0,0.0,0.0,0.0,0.0,0.0,0.0,-0.002269505312707371,-0.5601467011726894,9.808224318407218,0.0,0.0,0.0,0.0,0.0,0.0,0.0,0.0,0.0
2025/05/21 13:49:41.878660953,1747828181,877788433,mA1/imu,0.40462792883293297,0.9144810242252712,0.0006397519346543898,0.0005350305898206544,0.0,0.0,0.0,0.0,0.0,0.0,0.0,0.0,0.0,0.0007196055238390315,0.00026196653003154804,0.0014319935850980762,0.0,0.0,0.0,0.0,0.0,0.0,0.0,0.0,0.0,-0.0009236581519438776,-0.36540050208881364,9.809385997411846,0.0,0.0,0.0,0.0,0.0,0.0,0.0,0.0,0.0
2025/05/21 13:49:41.930430166,1747828181,929053129,mA1/imu,0.4046659373016038,0.9144642147661177,0.0006393068109046656,0.0005199873111878552,0.0,0.0,0.0,0.0,0.0,0.0,0.0,0.0,0.0,7.342669082255504e-05,0.0006456478089233703,0.0017720384094551409,0.0,0.0,0.0,0.0,0.0,0.0,0.0,0.0,0.0,0.0013377814129220283,-0.024486737319137752,9.809707961170075,0.0,0.0,0.0,0.0,0.0,0.0,0.0,0.0,0.0
2025/05/21 13:49:41.980130738,1747828181,978766433,mA1/imu,0.40470685188901134,0.9144461201357809,0.0006352080131443267,0.000503898286431097,0.0,0.0,0.0,0.0,0.0,0.0,0.0,0.0,0.0,-0.0005921680256116996,0.00044248423609372084,0.0018008737375491538,0.0,0.0,0.0,0.0,0.0,0.0,0.0,0.0,0.0,0.0014787142231895796,0.5570944072106375,9.811565422071434,0.0,0.0,0.0,0.0,0.0,0.0,0.0,0.0,0.0
2025/05/21 13:49:42.31314755,1747828182,30157931,mA1/imu,0.4047483976771398,0.9144277403418752,0.0006309587040288607,0.0004941276694649178,0.0,0.0,0.0,0.0,0.0,0.0,0.0,0.0,0.0,-0.00041404498614509204,0.00018930668824832837,0.0018270516871521539,0.0,0.0,0.0,0.0,0.0,0.0,0.0,0.0,0.0,0.0020749509409249646,0.5672092026279202,9.812680006889353,0.0,0.0,0.0,0.0,0.0,0.0,0.0,0.0,0.0
2025/05/21 13:49:42.80789993,1747828182,79634917,mA1/imu,0.4047904431567472,0.9144091427243598,0.0006164322292734609,0.0004866645374736634,0.0,0.0,0.0,0.0,0.0,0.0,0.0,0.0,0.0,0.0011056667231055855,-6.0723684718817745e-05,0.0018457905168453121,0.0,0.0,0.0,0.0,0.0,0.0,0.0,0.0,0.0,0.0015700215779583101,0.042665674286920516,9.80929828957098,0.0,0.0,0.0,0.0,0.0,0.0,0.0,0.0,0.0
2025/05/21 13:49:42.131655469,1747828182,130583007,mA1/imu,0.40483284861289154,0.9143903743326368,0.0006077397140839642,0.0004885327336027081,0.0,0.0,0.0,0.0,0.0,0.0,0.0,0.0,0.0,0.0011883831381925246,-0.00031263898568083585,0.0018596720549908013,0.0,0.0,0.0,0.0,0.0,0.0,0.0,0.0,0.0,0.0019060165022133516,0.048345215580994194,9.809790713262341,0.0,0.0,0.0,0.0,0.0,0.0,0.0,0.0,0.0
2025/05/21 13:49:42.182060702,1747828182,180501824,mA1/imu,0.4048754851152986,0.9143714985554137,0.0005979908110224683,0.0004965774551002123,0.0,0.0,0.0,0.0,0.0,0.0,0.0,0.0,0.0,0.0010408380532710582,-0.0005557195131733223,0.0018679921999960028,0.0,0.0,0.0,0.0,0.0,0.0,0.0,0.0,0.0,0.002059413691330097,-0.3985246528715801,9.810784574636292,0.0,0.0,0.0,0.0,0.0,0.0,0.0,0.0,0.0
2025/05/21 13:49:42.232803839,1747828182,231663459,mA1/imu,0.4049182486917378,0.9143525650992804,0.0005830992013010073,0.0005084959227395632,0.0,0.0,0.0,0.0,0.0,0.0,0.0,0.0,0.0,-0.0009872692091052397,-0.0007588044475989996,0.0018707610437279087,0.0,0.0,0.0,0.0,0.0,0.0,0.0,0.0,0.0,0.0027517976562952675,0.5296647052776902,9.811032036007681,0.0,0.0,0.0,0.0,0.0,0.0,0.0,0.0,0.0
2025/05/21 13:49:42.282652187,1747828182,281312142,mA1/imu,0.404961005023565,0.9143336301976439,0.0005668155375303368,0.000525185727922635,0.0,0.0,0.0,0.0,0.0,0.0,0.0,0.0,0.0,-0.0010737344911764546,-0.0009300307258642805,0.001867387424434257,0.0,0.0,0.0,0.0,0.0,0.0,0.0,0.0,0.0,0.00209348838651135,0.5318689364676198,9.811258193319219,0.0,0.0,0.0,0.0,0.0,0.0,0.0,0.0,0.0
2025/05/21 13:49:42.334070095,1747828182,332783722,mA1/imu,0.40500363569490366,0.9143147476430076,0.0005480982963100505,0.0005448895950891871,0.0,0.0,0.0,0.0,0.0,0.0,0.0,0.0,0.0,-0.0006175806237149095,-0.0010674384164881556,0.0018604408708154856,0.0,0.0,0.0,0.0,0.0,0.0,0.0,0.0,0.0,0.0027116198125452544,0.5641825273414041,9.811875946224188,0.0,0.0,0.0,0.0,0.0,0.0,0.0,0.0,0.0
2025/05/21 13:49:42.383406641,1747828182,382488606,mA1/imu,0.4050460240767636,0.9142959653063221,0.000531968392086007,0.0005685189675266567,0.0,0.0,0.0,0.0,0.0,0.0,0.0,0.0,0.0,-0.0005131651398509077,-0.001147293624998376,0.0018475843247859225,0.0,0.0,0.0,0.0,0.0,0.0,0.0,0.0,0.0,0.0025519120249711926,0.5788203984053186,9.811099785145322,0.0,0.0,0.0,0.0,0.0,0.0,0.0,0.0,0.0
2025/05/21 13:49:42.434651724,1747828182,433765360,mA1/imu,0.4050890492383508,0.914276891780089,0.000519995089807431,0.0005974522701135487,0.0,0.0,0.0,0.0,0.0,0.0,0.0,0.0,0.0,0.0012399628258110622,-0.001306966206507996,0.0018965496436167354,0.0,0.0,0.0,0.0,0.0,0.0,0.0,0.0,0.0,0.002221418685576961,-0.5550555674890821,9.808776777077094,0.0,0.0,0.0,0.0,0.0,0.0,0.0,0.0,0.0
2025/05/21 13:49:42.484996008,1747828182,483541320,mA1/imu,0.40513209557796137,0.9142578030838481,0.0005099217406971455,0.000628182078342756,0.0,0.0,0.0,0.0,0.0,0.0,0.0,0.0,0.0,0.001229891853162543,-0.0012841622738241384,0.0018737277052056946,0.0,0.0,0.0,0.0,0.0,0.0,0.0,0.0,0.0,0.0029397201213582644,-0.552810949992902,9.809715282490812,0.0,0.0,0.0,0.0,0.0,0.0,0.0,0.0,0.0
2025/05/21 13:49:42.536374426,1747828182,535297938,mA1/imu,0.40517452385868336,0.9142389845736795,0.0005017274846579902,0.0006577013819816465,0.0,0.0,0.0,0.0,0.0,0.0,0.0,0.0,0.0,-0.00013628192930256787,-0.0011709121807130642,0.0018441143236963928,0.0,0.0,0.0,0.0,0.0,0.0,0.0,0.0,0.0,0.00283000537266622,-0.15783333905893643,9.811340987582678,0.0,0.0,0.0,0.0,0.0,0.0,0.0,0.0,0.0
2025/05/21 13:49:42.585768096,1747828182,584689089,mA1/imu,0.4052161199811936,0.9142205347003808,0.0004928641946346046,0.0006834650116928046,0.0,0.0,0.0,0.0,0.0,0.0,0.0,0.0,0.0,-0.0004623590876809102,-0.001026936899279415,0.0017944115598748638,0.0,0.0,0.0,0.0,0.0,0.0,0.0,0.0,0.0,0.0035813000876852973,-0.022918068332048187,9.808930669259304,0.0,0.0,0.0,0.0,0.0,0.0,0.0,0.0,0.0
2025/05/21 13:49:42.637377862,1747828182,636225640,mA1/imu,0.4052603100277857,0.9142009376855568,0.0004915070923799884,0.0006964709684990022,0.0,0.0,0.0,0.0,0.0,0.0,0.0,0.0,0.0,-4.0763002424263666e-05,-0.00026789445766493895,0.0019524267686746744,0.0,0.0,0.0,0.0,0.0,0.0,0.0,0.0,0.0,-0.0038595866386412422,0.011092242194222673,9.80825959802811,0.0,0.0,0.0,0.0,0.0,0.0,0.0,0.0,0.0
2025/05/21 13:49:42.676532828,1747828182,675443399,mA1/imu,0.4053038031702541,0.9141816513450991,0.0004968685170138017,0.0006990002521953651,0.0,0.0,0.0,0.0,0.0,0.0,0.0,0.0,0.0,0.00021560339165459016,0.00019967972122772527,0.0018577640994778513,0.0,0.0,0.0,0.0,0.0,0.0,0.0,0.0,0.0,-0.007331400285341577,0.037003366248656695,9.808248236984102,0.0,0.0,0.0,0.0,0.0,0.0,0.0,0.0,0.0
2025/05/21 13:49:42.728375762,1747828182,727028693,mA1/imu,0.40534456446201933,0.9141635777474412,0.0005095795952942096,0.000691020788475873,0.0,0.0,0.0,0.0,0.0,0.0,0.0,0.0,0.0,0.00018476533478486786,0.000685428393159513,0.0017338198240557882,0.0,0.0,0.0,0.0,0.0,0.0,0.0,0.0,0.0,-0.005913357613154686,0.034348548666300195,9.80727981246324,0.0,0.0,0.0,0.0,0.0,0.0,0.0,0.0,0.0
2025/05/21 13:49:42.779492868,1747828182,776371342,mA1/imu,0.40538272214229615,0.914146657588155,0.0005310607528189849,0.0006745245608420223,0.0,0.0,0.0,0.0,0.0,0.0,0.0,0.0,0.0,0.00043260468164249284,0.0011514456532651244,0.0016179845602918978,0.0,0.0,0.0,0.0,0.0,0.0,0.0,0.0,0.0,-0.015441629022508282,0.05101956084238787,9.81102068118665,0.0,0.0,0.0,0.0,0.0,0.0,0.0,0.0,0.0
2025/05/21 13:49:42.829085492,1747828182,827982212,mA1/imu,0.40542110121868025,0.9141296478744226,0.0005582592277284925,0.0006371108627853477,0.0,0.0,0.0,0.0,0.0,0.0,0.0,0.0,0.0,-0.0006972795647127104,0.0021459099180496676,0.0016881307343280193,0.0,0.0,0.0,0.0,0.0,0.0,0.0,0.0,0.0,-0.013743365333101987,-0.0301595526723482,9.811279368281717,0.0,0.0,0.0,0.0,0.0,0.0,0.0,0.0,0.0
2025/05/21 13:49:42.879039766,1747828182,877191943,mA1/imu,0.4054572800579564,0.9141136185668951,0.0005878292576878909,0.0005838281467364411,0.0,0.0,0.0,0.0,0.0,0.0,0.0,0.0,0.0,-0.0013431820498460661,0.0025877606637180464,0.0015201490585230557,0.0,0.0,0.0,0.0,0.0,0.0,0.0,0.0,0.0,-0.007444392497349036,0.19763842039695256,9.808334858359437,0.0,0.0,0.0,0.0,0.0,0.0,0.0,0.0,0.0
2025/05/21 13:49:42.930257132,1747828182,928542998,mA1/imu,0.40549012627895464,0.9140990732044286,0.0006089610515808889,0.0005205991929155254,0.0,0.0,0.0,0.0,0.0,0.0,0.0,0.0,0.0,0.00020184014779591118,0.0026869595157118734,0.0013845098886020814,0.0,0.0,0.0,0.0,0.0,0.0,0.0,0.0,0.0,-0.004358554318862703,0.018861321888834118,9.80764842807711,0.0,0.0,0.0,0.0,0.0,0.0,0.0,0.0,0.0
2025/05/21 13:49:42.979261342,1747828182,978240835,mA1/imu,0.40551983961360927,0.9140859082942079,0.0006335984722357498,0.0004587926345647279,0.0,0.0,0.0,0.0,0.0,0.0,0.0,0.0,0.0,0.0002611331915422758,0.0026300855074273288,0.0012456476804553638,0.0,0.0,0.0,0.0,0.0,0.0,0.0,0.0,0.0,-0.004231060932702929,0.6414308006781839,9.809182174060764,0.0,0.0,0.0,0.0,0.0,0.0,0.0,0.0,0.0
2025/05/21 13:49:43.30675858,1747828183,29685367,mA1/imu,0.4055464575466683,0.9140741136152583,0.000653048524271468,0.00039889529089397364,0.0,0.0,0.0,0.0,0.0,0.0,0.0,0.0,0.0,0.0013216914117338916,0.002416436858334111,0.0011107292076188086,0.0,0.0,0.0,0.0,0.0,0.0,0.0,0.0,0.0,-0.005077385694125899,0.08018215510802724,9.808535870322153,0.0,0.0,0.0,0.0,0.0,0.0,0.0,0.0,0.0
2025/05/21 13:49:43.80610978,1747828183,79076643,mA1/imu,0.40557013291898963,0.9140636152425602,0.000673837222730269,0.0003471558316359292,0.0,0.0,0.0,0.0,0.0,0.0,0.0,0.0,0.0,0.0015620335275285827,0.0020567888522416587,0.0009857629079795312,0.0,0.0,0.0,0.0,0.0,0.0,0.0,0.0,0.0,-0.004199241715477002,-0.23944717494271694,9.811463916607817,0.0,0.0,0.0,0.0,0.0,0.0,0.0,0.0,0.0
2025/05/21 13:49:43.131954341,1747828183,130954370,mA1/imu,0.4055954542007575,0.9140523852849352,0.000690201478941331,0.0002968307934845912,0.0,0.0,0.0,0.0,0.0,0.0,0.0,0.0,0.0,4.569548671970256e-05,0.0020094764436612276,0.0011547696921332788,0.0,0.0,0.0,0.0,0.0,0.0,0.0,0.0,0.0,-0.003280378973719417,-0.025454829838305756,9.812783509499264,0.0,0.0,0.0,0.0,0.0,0.0,0.0,0.0,0.0
2025/05/21 13:49:43.181381703,1747828183,180033393,mA1/imu,0.40562012614616477,0.9140414427253896,0.0006992139645110725,0.0002556276388680838,0.0,0.0,0.0,0.0,0.0,0.0,0.0,0.0,0.0,-0.0014223414805691467,0.0014169383365075616,0.001026761212876753,0.0,0.0,0.0,0.0,0.0,0.0,0.0,0.0,0.0,-0.0015616796330597765,0.47176917386062905,9.81055383561781,0.0,0.0,0.0,0.0,0.0,0.0,0.0,0.0,0.0
2025/05/21 13:49:43.232762285,1747828183,231574097,mA1/imu,0.4056469073814455,0.9140295705854785,0.0006948261564368568,0.00021873227237921935,0.0,0.0,0.0,0.0,0.0,0.0,0.0,0.0,0.0,6.713589960048063e-05,0.0011285574519598466,0.0012050874846626014,0.0,0.0,0.0,0.0,0.0,0.0,0.0,0.0,0.0,0.0004999401813531104,-0.028733897524382386,9.809113826347968,0.0,0.0,0.0,0.0,0.0,0.0,0.0,0.0,0.0
2025/05/21 13:49:43.281686134,1747828183,280863144,mA1/imu,0.40567268877172524,0.9140181429686903,0.0006824248548077346,0.00019546125798529956,0.0,0.0,0.0,0.0,0.0,0.0,0.0,0.0,0.0,0.0012050218408996202,0.00032971935154675955,0.0010735324331596985,0.0,0.0,0.0,0.0,0.0,0.0,0.0,0.0,0.0,0.0004292669647665999,0.14460950935984207,9.810015082623293,0.0,0.0,0.0,0.0,0.0,0.0,0.0,0.0,0.0
2025/05/21 13:49:43.333838317,1747828183,331960278,mA1/imu,0.40569513412314784,0.9140081896857734,0.0006705190011367791,0.00019426890122210372,0.0,0.0,0.0,0.0,0.0,0.0,0.0,0.0,0.0,0.0014920770465538702,-0.0004731863269805746,0.0009198598013422049,0.0,0.0,0.0,0.0,0.0,0.0,0.0,0.0,0.0,0.00015625076251802325,-0.13181099185053108,9.809676100850165,0.0,0.0,0.0,0.0,0.0,0.0,0.0,0.0,0.0
2025/05/21 13:49:43.383050741,1747828183,381715254,mA1/imu,0.4057140423342941,0.91399980747012,0.0006506630582471506,0.00021079595521772496,0.0,0.0,0.0,0.0,0.0,0.0,0.0,0.0,0.0,0.0015213826239762922,-0.0012356798396704444,0.0007663676045062847,0.0,0.0,0.0,0.0,0.0,0.0,0.0,0.0,0.0,-0.0013373016319588825,-0.564483587255419,9.812402315133207,0.0,0.0,0.0,0.0,0.0,0.0,0.0,0.0,0.0
2025/05/21 13:49:43.434704872,1747828183,433333774,mA1/imu,0.4057340268694896,0.913990949816336,0.000622744856588614,0.00023512325240039524,0.0,0.0,0.0,0.0,0.0,0.0,0.0,0.0,0.0,0.0004538831861077132,-0.001453118169371104,0.0009463847064737932,0.0,0.0,0.0,0.0,0.0,0.0,0.0,0.0,0.0,-0.009112830861540924,-0.0022078029848391755,9.812714374956593,0.0,0.0,0.0,0.0,0.0,0.0,0.0,0.0,0.0
2025/05/21 13:49:43.483849522,1747828183,482618291,mA1/imu,0.40575822023942537,0.9139802219609096,0.0005910994033600062,0.00026678439931603065,0.0,0.0,0.0,0.0,0.0,0.0,0.0,0.0,0.0,0.0004748201657714526,-0.0018060199378370566,0.0011344974951550918,0.0,0.0,0.0,0.0,0.0,0.0,0.0,0.0,0.0,-0.008465599196989982,-0.0012279861310127253,9.812617432904817,0.0,0.0,0.0,0.0,0.0,0.0,0.0,0.0,0.0
2025/05/21 13:49:43.534554154,1747828183,533586057,mA1/imu,0.4057965198596345,0.913963228553375,0.0005622570568911494,0.0002918717224096817,0.0,0.0,0.0,0.0,0.0,0.0,0.0,0.0,0.0,-0.00034677596846966645,-0.0012391798817147914,0.0019254755921096916,0.0,0.0,0.0,0.0,0.0,0.0,0.0,0.0,0.0,-0.003867588575652766,0.580127550700989,9.810634070736207,0.0,0.0,0.0,0.0,0.0,0.0,0.0,0.0,0.0
2025/05/21 13:49:43.577466656,1747828183,576241300,mA1/imu,0.40584317139419496,0.9139425147386652,0.0005434666477389981,0.00032346540765325544,0.0,0.0,0.0,0.0,0.0,0.0,0.0,0.0,0.0,-0.0011523210752623788,-0.0015594996568056823,0.0021222236426772243,0.0,0.0,0.0,0.0,0.0,0.0,0.0,0.0,0.0,-0.006979976939010276,0.5343008978742838,9.811881842299446,0.0,0.0,0.0,0.0,0.0,0.0,0.0,0.0,0.0
2025/05/21 13:49:43.628511180,1747828183,627446355,mA1/imu,0.40589471071421135,0.913919628156642,0.0005174488488495093,0.00035962611259126855,0.0,0.0,0.0,0.0,0.0,0.0,0.0,0.0,0.0,0.0004163243860143689,-0.0018444229921765888,0.002341076715108999,0.0,0.0,0.0,0.0,0.0,0.0,0.0,0.0,0.0,-0.004851831531426792,-0.6175460118197436,9.808999985891512,0.0,0.0,0.0,0.0,0.0,0.0,0.0,0.0,0.0
2025/05/21 13:49:43.678372376,1747828183,677051449,mA1/imu,0.4059511594994928,0.9138945594939577,0.00048173994869252224,0.0003976870427744078,0.0,0.0,0.0,0.0,0.0,0.0,0.0,0.0,0.0,0.0014600026152420623,-0.002064357443327718,0.0025513184346919325,0.0,0.0,0.0,0.0,0.0,0.0,0.0,0.0,0.0,-0.0026825736310361567,-0.2369086682754861,9.809452471196078,0.0,0.0,0.0,0.0,0.0,0.0,0.0,0.0,0.0
2025/05/21 13:49:43.729567035,1747828183,728255896,mA1/imu,0.4060216915246486,0.913863213705668,0.0004733964148895067,0.0004342152069241329,0.0,0.0,0.0,0.0,0.0,0.0,0.0,0.0,0.0,-0.00022875072260257535,-0.001314402228203333,0.003339367364283987,0.0,0.0,0.0,0.0,0.0,0.0,0.0,0.0,0.0,0.0008825134558656214,-0.008962134491663666,9.8094539884617,0.0,0.0,0.0,0.0,0.0,0.0,0.0,0.0,0.0
2025/05/21 13:49:43.779560874,1747828183,778106293,mA1/imu,0.4061006005006783,0.9138281398096507,0.0004628210945122709,0.00046793338882595886,0.0,0.0,0.0,0.0,0.0,0.0,0.0,0.0,0.0,-0.0003422747367678589,-0.0014969642315293883,0.0035279469709237686,0.0,0.0,0.0,0.0,0.0,0.0,0.0,0.0,0.0,0.00347323806547331,-0.6366783472887925,9.808592049953253,0.0,0.0,0.0,0.0,0.0,0.0,0.0,0.0,0.0
2025/05/21 13:49:43.829960251,1747828183,828994527,mA1/imu,0.40618393910227946,0.9137910876247476,0.00044914003735245576,0.0005040497627166424,0.0,0.0,0.0,0.0,0.0,0.0,0.0,0.0,0.0,-0.0007595605894723045,-0.0015666531238722034,0.00372701823620145,0.0,0.0,0.0,0.0,0.0,0.0,0.0,0.0,0.0,0.003998525692184017,-0.02397255344999273,9.808349439913874,0.0,0.0,0.0,0.0,0.0,0.0,0.0,0.0,0.0
2025/05/21 13:49:43.879921801,1747828183,878805434,mA1/imu,0.4062714164221068,0.9137521805793718,0.00043756222176136286,0.0005451826484606147,0.0,0.0,0.0,0.0,0.0,0.0,0.0,0.0,0.0,-0.00029517914220338135,-0.0017238795940952348,0.00390937871987164,0.0,0.0,0.0,0.0,0.0,0.0,0.0,0.0,0.0,0.0002109457805803787,0.019217185578981374,9.811984040308504,0.0,0.0,0.0,0.0,0.0,0.0,0.0,0.0,0.0
2025/05/21 13:49:43.931116731,1747828183,929764536,mA1/imu,0.4063720535275239,0.9137074093678483,0.00043556691568505585,0.00057832480526611,0.0,0.0,0.0,0.0,0.0,0.0,0.0,0.0,0.0,0.0002808684163432716,-0.0010469631630945304,0.004643579449651306,0.0,0.0,0.0,0.0,0.0,0.0,0.0,0.0,0.0,0.0018772849210532665,0.07442040207537698,9.811445803189688,0.0,0.0,0.0,0.0,0.0,0.0,0.0,0.0,0.0
2025/05/21 13:49:43.981731393,1747828183,979697548,mA1/imu,0.40647706693243757,0.9136606702050986,0.0004394825215398787,0.0006169550113839545,0.0,0.0,0.0,0.0,0.0,0.0,0.0,0.0,0.0,0.0008180070178299953,-0.0016527075072529029,0.0045127970970371524,0.0,0.0,0.0,0.0,0.0,0.0,0.0,0.0,0.0,0.024433406641248556,-0.12565130621967463,9.80882206848629,0.0,0.0,0.0,0.0,0.0,0.0,0.0,0.0,0.0
2025/05/21 13:49:44.32421818,1747828184,30982107,mA1/imu,0.40657728145221106,0.9136160374959561,0.0004428239095712648,0.0006739021461320881,0.0,0.0,0.0,0.0,0.0,0.0,0.0,0.0,0.0,0.000870258534197635,-0.002276459581270405,0.004304669645356885,0.0,0.0,0.0,0.0,0.0,0.0,0.0,0.0,0.0,0.022456889923633053,-0.503536711176021,9.806878826426065,0.0,0.0,0.0,0.0,0.0,0.0,0.0,0.0,0.0
2025/05/21 13:49:44.81615266,1747828184,80592194,mA1/imu,0.40667279099383863,0.9135734714445288,0.0004453592019507003,0.0007449786947607341,0.0,0.0,0.0,0.0,0.0,0.0,0.0,0.0,0.0,-0.0006851705137620048,-0.0027430826689934557,0.004100987006747666,0.0,0.0,0.0,0.0,0.0,0.0,0.0,0.0,0.0,0.022382292043691958,-0.6107035587266284,9.808757506915457,0.0,0.0,0.0,0.0,0.0,0.0,0.0,0.0,0.0
2025/05/21 13:49:44.132936018,1747828184,131523363,mA1/imu,0.40676460376990037,0.91353253631948,0.0004371335858324192,0.000819219043844877,0.0,0.0,0.0,0.0,0.0,0.0,0.0,0.0,0.0,-0.0018239628469229044,-0.0029093393715277282,0.003959753597557147,0.0,0.0,0.0,0.0,0.0,0.0,0.0,0.0,0.0,0.02117590333924973,-0.3119498840598601,9.810054267114847,0.0,0.0,0.0,0.0,0.0,0.0,0.0,0.0,0.0
2025/05/21 13:49:44.182753523,1747828184,181509533,mA1/imu,0.4068523855883294,0.9134933767127,0.0004278241913078984,0.0008966658106657141,0.0,0.0,0.0,0.0,0.0,0.0,0.0,0.0,0.0,-0.0026457356376198924,-0.0029977806602207897,0.0037656437695663472,0.0,0.0,0.0,0.0,0.0,0.0,0.0,0.0,0.0,0.02053547120043369,0.16060322814592504,9.809138730527172,0.0,0.0,0.0,0.0,0.0,0.0,0.0,0.0,0.0
2025/05/21 13:49:44.234424308,1747828184,232837188,mA1/imu,0.4069361713701919,0.9134559862299615,0.0004183578940215123,0.0009688281016723613,0.0,0.0,0.0,0.0,0.0,0.0,0.0,0.0,0.0,-0.0027483299225702887,-0.0026461525930079584,0.003599102626706152,0.0,0.0,0.0,0.0,0.0,0.0,0.0,0.0,0.0,0.019958728846068682,0.5026389710360419,9.809140475122561,0.0,0.0,0.0,0.0,0.0,0.0,0.0,0.0,0.0
2025/05/21 13:49:44.283796087,1747828184,282405021,mA1/imu,0.40701582627776034,0.9134204362405962,0.0004022545927285621,0.0010305380700524232,0.0,0.0,0.0,0.0,0.0,0.0,0.0,0.0,0.0,-0.000704800649661514,-0.0023952062626425613,0.003412727602334718,0.0,0.0,0.0,0.0,0.0,0.0,0.0,0.0,0.0,0.019255511485673095,0.6380162442607406,9.81039673291568,0.0,0.0,0.0,0.0,0.0,0.0,0.0,0.0,0.0
2025/05/21 13:49:44.335439080,1747828184,334316023,mA1/imu,0.4070920313290847,0.9133864070112,0.0004038345497204724,0.0010892351382394325,0.0,0.0,0.0,0.0,0.0,0.0,0.0,0.0,0.0,-0.00035149315188922486,-0.0019349208178154021,0.0032807317317077728,0.0,0.0,0.0,0.0,0.0,0.0,0.0,0.0,0.0,0.01821582825210894,0.023925625346431036,9.808936892757199,0.0,0.0,0.0,0.0,0.0,0.0,0.0,0.0,0.0
2025/05/21 13:49:44.384737619,1747828184,383376318,mA1/imu,0.4071645087691404,0.9133540435881735,0.0004067200204960975,0.001135094155796657,0.0,0.0,0.0,0.0,0.0,0.0,0.0,0.0,0.0,3.208051912380338e-05,-0.0014264410750978432,0.003104407966967713,0.0,0.0,0.0,0.0,0.0,0.0,0.0,0.0,0.0,0.01795489712969105,-0.5921126521954426,9.809744617755724,0.0,0.0,0.0,0.0,0.0,0.0,0.0,0.0,0.0
2025/05/21 13:49:44.436828626,1747828184,435280869,mA1/imu,0.4072337033447798,0.9133231608160465,0.0004051805408218258,0.0011621556743407692,0.0,0.0,0.0,0.0,0.0,0.0,0.0,0.0,0.0,0.00018710069350048782,-0.0007555196670859975,0.0029749495575193486,0.0,0.0,0.0,0.0,0.0,0.0,0.0,0.0,0.0,0.01757774182439975,-0.5947128166749566,9.810362376366436,0.0,0.0,0.0,0.0,0.0,0.0,0.0,0.0,0.0
2025/05/21 13:49:44.485661395,1747828184,484149027,mA1/imu,0.40729930284908744,0.9132938952553489,0.00040544181266207233,0.0011723501591890005,0.0,0.0,0.0,0.0,0.0,0.0,0.0,0.0,0.0,-0.0004281201783315663,-0.00011000179210360614,0.002805710623817438,0.0,0.0,0.0,0.0,0.0,0.0,0.0,0.0,0.0,0.01777741270937118,-0.0696745727171511,9.809444025889967,0.0,0.0,0.0,0.0,0.0,0.0,0.0,0.0,0.0
2025/05/21 13:49:44.537479081,1747828184,536076502,mA1/imu,0.4073614687722751,0.9132661782884604,0.0004099002745107795,0.0011633296393646414,0.0,0.0,0.0,0.0,0.0,0.0,0.0,0.0,0.0,-0.0008136983822813829,0.0006821218677545724,0.0026589185050742916,0.0,0.0,0.0,0.0,0.0,0.0,0.0,0.0,0.0,0.018263910411904716,-0.06280962237427291,9.809674706964628,0.0,0.0,0.0,0.0,0.0,0.0,0.0,0.0,0.0
2025/05/21 13:49:44.586349133,1747828184,585023322,mA1/imu,0.40741995609866405,0.9132401311169449,0.00040255577708907725,0.0011314764311884532,0.0,0.0,0.0,0.0,0.0,0.0,0.0,0.0,0.0,1.0026079864354793e-05,0.0012955802726034775,0.0024957799986744605,0.0,0.0,0.0,0.0,0.0,0.0,0.0,0.0,0.0,0.017950815851952972,0.6111562698046759,9.811161825869023,0.0,0.0,0.0,0.0,0.0,0.0,0.0,0.0,0.0
2025/05/21 13:49:44.627404467,1747828184,625965272,mA1/imu,0.40747538597379346,0.9132154446950073,0.0004132060683384052,0.0010911721922409702,0.0,0.0,0.0,0.0,0.0,0.0,0.0,0.0,0.0,0.0015242999540489414,0.001851372887535891,0.0023726615920495954,0.0,0.0,0.0,0.0,0.0,0.0,0.0,0.0,0.0,0.018266717606202017,0.0740167384497719,9.81069778934716,0.0,0.0,0.0,0.0,0.0,0.0,0.0,0.0,0.0
2025/05/21 13:49:44.676791005,1747828184,675807820,mA1/imu,0.4075274132479607,0.913192282519377,0.00042704889992455043,0.0010393400374033345,0.0,0.0,0.0,0.0,0.0,0.0,0.0,0.0,0.0,0.0011070992779099189,0.002267392986673478,0.002218282569463537,0.0,0.0,0.0,0.0,0.0,0.0,0.0,0.0,0.0,0.018942013506728677,0.029706050598288,9.812097305902068,0.0,0.0,0.0,0.0,0.0,0.0,0.0,0.0,0.0
2025/05/21 13:49:44.728285048,1747828184,726944046,mA1/imu,0.4075887725718467,0.913164971713254,0.0004513019313159544,0.0009608516402388605,0.0,0.0,0.0,0.0,0.0,0.0,0.0,0.0,0.0,0.0015379948358984782,0.0036697478697062824,0.0028891447310229372,0.0,0.0,0.0,0.0,0.0,0.0,0.0,0.0,0.0,0.021851092814928676,-0.5712175931532949,9.811199367046322,0.0,0.0,0.0,0.0,0.0,0.0,0.0,0.0,0.0
2025/05/21 13:49:44.779038717,1747828184,777126864,mA1/imu,0.40765250275120724,0.9131366017546745,0.0004748213633417341,0.0008706786291298096,0.0,0.0,0.0,0.0,0.0,0.0,0.0,0.0,0.0,-0.0007264024920588359,0.0036497146095027535,0.0027288142029161157,0.0,0.0,0.0,0.0,0.0,0.0,0.0,0.0,0.0,0.022092382688435774,-0.10326123009291352,9.810826750325953,0.0,0.0,0.0,0.0,0.0,0.0,0.0,0.0,0.0
2025/05/21 13:49:44.829448801,1747828184,828248720,mA1/imu,0.40771031332342983,0.9131108663013466,0.0004872243633213685,0.0007802977218483969,0.0,0.0,0.0,0.0,0.0,0.0,0.0,0.0,0.0,-0.0009417571474782294,0.003418879247554888,0.002428066183381992,0.0,0.0,0.0,0.0,0.0,0.0,0.0,0.0,0.0,0.022865114534934772,0.5059710580411302,9.810712359390203,0.0,0.0,0.0,0.0,0.0,0.0,0.0,0.0,0.0
2025/05/21 13:49:44.879858901,1747828184,878359683,mA1/imu,0.40776353521080083,0.9130871648875276,0.0004939573040179607,0.0006961869208692272,0.0,0.0,0.0,0.0,0.0,0.0,0.0,0.0,0.0,0.0005402828899527644,0.002994127676306905,0.0022667464176332796,0.0,0.0,0.0,0.0,0.0,0.0,0.0,0.0,0.0,0.027250311339459828,0.6097296028681384,9.811467598712765,0.0,0.0,0.0,0.0,0.0,0.0,0.0,0.0,0.0
2025/05/21 13:49:44.930404492,1747828184,929419097,mA1/imu,0.4078262111905568,0.9130592253641264,0.0005099961003776732,0.0006102027485736791,0.0,0.0,0.0,0.0,0.0,0.0,0.0,0.0,0.0,0.002194632593965203,0.003698992767412906,0.003077327368858478,0.0,0.0,0.0,0.0,0.0,0.0,0.0,0.0,0.0,-0.026148969585069657,0.09735228735570992,9.814290992364775,0.0,0.0,0.0,0.0,0.0,0.0,0.0,0.0,0.0
2025/05/21 13:49:44.980441466,1747828184,979209991,mA1/imu,0.40790451675204026,0.9130242902475132,0.0005335563783095646,0.0005157023370695082,0.0,0.0,0.0,0.0,0.0,0.0,0.0,0.0,0.0,0.002728225241225104,0.0035210463506814738,0.00346742442270241,0.0,0.0,0.0,0.0,0.0,0.0,0.0,0.0,0.0,0.03177001386575907,-0.49484113212025566,9.809855053188068,0.0,0.0,0.0,0.0,0.0,0.0,0.0,0.0,0.0
2025/05/21 13:49:45.31292194,1747828185,30247811,mA1/imu,0.40798210834555965,0.9129896465891701,0.0005526064385890334,0.00044622529961721414,0.0,0.0,0.0,0.0,0.0,0.0,0.0,0.0,0.0,0.0010957104357365154,0.002342074276497289,0.003348536666249627,0.0,0.0,0.0,0.0,0.0,0.0,0.0,0.0,0.0,0.03164466034880974,0.030679190495484836,9.808867037104239,0.0,0.0,0.0,0.0,0.0,0.0,0.0,0.0,0.0
2025/05/21 13:49:45.81183542,1747828185,80044904,mA1/imu,0.4080561003423773,0.9129565911572357,0.0005613510717370276,0.0004080697317592521,0.0,0.0,0.0,0.0,0.0,0.0,0.0,0.0,0.0,-0.0005362567910933616,0.00098803007568885,0.0031725318576074223,0.0,0.0,0.0,0.0,0.0,0.0,0.0,0.0,0.0,0.030743250039865694,-0.07338308455592821,9.808829813086946,0.0,0.0,0.0,0.0,0.0,0.0,0.0,0.0,0.0
2025/05/21 13:49:45.132550218,1747828185,131103500,mA1/imu,0.4081307134621653,0.9129232518253461,0.0005518194467730053,0.00039051350551337985,0.0,0.0,0.0,0.0,0.0,0.0,0.0,0.0,0.0,-0.00011132078286974514,0.00010573582178119423,0.0032954034472545495,0.0,0.0,0.0,0.0,0.0,0.0,0.0,0.0,0.0,0.030997523726217252,-0.29216392204059577,9.80987502672598,0.0,0.0,0.0,0.0,0.0,0.0,0.0,0.0,0.0
2025/05/21 13:49:45.182676884,1747828185,180955204,mA1/imu,0.40820332504418094,0.9128907938390625,0.0005313157559366478,0.0004020576187650143,0.0,0.0,0.0,0.0,0.0,0.0,0.0,0.0,0.0,0.0009319690467228538,-0.001430508334263411,0.0030505431360521064,0.0,0.0,0.0,0.0,0.0,0.0,0.0,0.0,0.0,0.05273377747149694,-0.4732147371126003,9.809314559982225,0.0,0.0,0.0,0.0,0.0,0.0,0.0,0.0,0.0
2025/05/21 13:49:45.233948085,1747828185,232927307,mA1/imu,0.40826417541738586,0.9128635727334719,0.0005003136576412176,0.0004586210716511679,0.0,0.0,0.0,0.0,0.0,0.0,0.0,0.0,0.0,0.0009178846039364942,-0.0033184443230206777,0.0024244754048900435,0.0,0.0,0.0,0.0,0.0,0.0,0.0,0.0,0.0,0.046953545193377154,-0.032729941690588266,9.808142946222151,0.0,0.0,0.0,0.0,0.0,0.0,0.0,0.0,0.0
2025/05/21 13:49:45.283550141,1747828185,282645434,mA1/imu,0.40831278050658265,0.9128418000219932,0.00045856445320897833,0.0005577869062289773,0.0,0.0,0.0,0.0,0.0,0.0,0.0,0.0,0.0,-0.0001664834800213431,-0.004917731858408837,0.0019374990950395314,0.0,0.0,0.0,0.0,0.0,0.0,0.0,0.0,0.0,0.043628504645491915,-0.00814251084618822,9.807067567511682,0.0,0.0,0.0,0.0,0.0,0.0,0.0,0.0,0.0
2025/05/21 13:49:45.335610363,1747828185,334065750,mA1/imu,0.40836069225896926,0.9128203088671113,0.0004162912467763308,0.0006748623006375717,0.0,0.0,0.0,0.0,0.0,0.0,0.0,0.0,0.0,-0.0009100430594663907,-0.0051489054977675395,0.0020968920116513352,0.0,0.0,0.0,0.0,0.0,0.0,0.0,0.0,0.0,0.04142040405579083,-0.050777368180037336,9.807521241005748,0.0,0.0,0.0,0.0,0.0,0.0,0.0,0.0,0.0
2025/05/21 13:49:45.384508173,1747828185,383496682,mA1/imu,0.40840242247052483,0.9128015567361392,0.0003592833148172335,0.00080638439198965,0.0,0.0,0.0,0.0,0.0,0.0,0.0,0.0,0.0,0.00020861272462439304,-0.006069049254750607,0.0016467302730236286,0.0,0.0,0.0,0.0,0.0,0.0,0.0,0.0,0.0,0.03955296158096398,-0.3725972775494121,9.80911050183093,0.0,0.0,0.0,0.0,0.0,0.0,0.0,0.0,0.0
2025/05/21 13:49:45.436016088,1747828185,435024316,mA1/imu,0.4084340174487157,0.912787295604586,0.0003030267644403722,0.0009563202122870724,0.0,0.0,0.0,0.0,0.0,0.0,0.0,0.0,0.0,-0.00026419636764813987,-0.006557581430667533,0.0012116142277918587,0.0,0.0,0.0,0.0,0.0,0.0,0.0,0.0,0.0,0.036116331963624126,0.013591615301936914,9.808052864873995,0.0,0.0,0.0,0.0,0.0,0.0,0.0,0.0,0.0
2025/05/21 13:49:45.485871040,1747828185,484378017,mA1/imu,0.408455945020874,0.9127773211930792,0.0002495144330081503,0.0011138380666581168,0.0,0.0,0.0,0.0,0.0,0.0,0.0,0.0,0.0,-0.0005400656008442466,-0.006613353560896439,0.0007950201306276915,0.0,0.0,0.0,0.0,0.0,0.0,0.0,0.0,0.0,0.034283261488955274,-0.00014575295784832916,9.807709007828072,0.0,0.0,0.0,0.0,0.0,0.0,0.0,0.0,0.0
2025/05/21 13:49:45.536925800,1747828185,536080991,mA1/imu,0.4084686992836959,0.9127714282813122,0.0001976929455813804,0.001265834222239951,0.0,0.0,0.0,0.0,0.0,0.0,0.0,0.0,0.0,-0.0006166557258212628,-0.006201733340811097,0.00040068035118813596,0.0,0.0,0.0,0.0,0.0,0.0,0.0,0.0,0.0,0.030279027188086133,-0.003723936394645447,9.81104154341965,0.0,0.0,0.0,0.0,0.0,0.0,0.0,0.0,0.0
2025/05/21 13:49:45.586301078,1747828185,585181956,mA1/imu,0.40847256405284427,0.9127695055437652,0.0001533450489789093,0.0014037986969118465,0.0,0.0,0.0,0.0,0.0,0.0,0.0,0.0,0.0,-0.0006392333366637892,-0.005413365956280252,1.7948196688258106e-05,0.0,0.0,0.0,0.0,0.0,0.0,0.0,0.0,0.0,0.028922279335768665,-0.004462542097341831,9.810884362949615,0.0,0.0,0.0,0.0,0.0,0.0,0.0,0.0,0.0
2025/05/21 13:49:45.627933014,1747828185,626481165,mA1/imu,0.4084710502189562,0.9127700146215041,0.00012164065767940834,0.0015121985425889072,0.0,0.0,0.0,0.0,0.0,0.0,0.0,0.0,0.0,-0.0006127736812524563,-0.003928449925673469,-0.00017874969209041188,0.0,0.0,0.0,0.0,0.0,0.0,0.0,0.0,0.0,0.027919905555745254,-0.000979974739993195,9.808879004476823,0.0,0.0,0.0,0.0,0.0,0.0,0.0,0.0,0.0
2025/05/21 13:49:45.677232650,1747828185,676044449,mA1/imu,0.40846189342540223,0.9127739821441437,0.00010355305604220662,0.001590099626498614,0.0,0.0,0.0,0.0,0.0,0.0,0.0,0.0,0.0,-0.0006082201400550898,-0.002588069447125382,-0.000546890077367818,0.0,0.0,0.0,0.0,0.0,0.0,0.0,0.0,0.0,0.026808179159066498,-0.0031183998862783207,9.808710018152428,0.0,0.0,0.0,0.0,0.0,0.0,0.0,0.0,0.0
2025/05/21 13:49:45.730269959,1747828185,727384395,mA1/imu,0.40844457787879385,0.9127816525802301,9.968295066065526e-05,0.0016344961386721328,0.0,0.0,0.0,0.0,0.0,0.0,0.0,0.0,0.0,-0.0005679991120854204,-0.0010720589875500388,-0.0008979937794585491,0.0,0.0,0.0,0.0,0.0,0.0,0.0,0.0,0.0,0.025391522327487467,-0.005579529336640061,9.812267317584872,0.0,0.0,0.0,0.0,0.0,0.0,0.0,0.0,0.0
2025/05/21 13:49:45.779598079,1747828185,778582955,mA1/imu,0.40841935145761604,0.9127929249624919,0.0001090189217590635,0.0016424397200073728,0.0,0.0,0.0,0.0,0.0,0.0,0.0,0.0,0.0,-0.0004683864884556567,0.0004905124617772495,-0.0012396189387269137,0.0,0.0,0.0,0.0,0.0,0.0,0.0,0.0,0.0,0.025636751529461405,-0.004233804224711996,9.81212296866004,0.0,0.0,0.0,0.0,0.0,0.0,0.0,0.0,0.0
2025/05/21 13:49:45.830657278,1747828185,829706031,mA1/imu,0.4083864912472895,0.912807672343311,0.00013352199496842324,0.0016153172416488336,0.0,0.0,0.0,0.0,0.0,0.0,0.0,0.0,0.0,-0.0004394408759208646,0.0019829682362335647,-0.0015696891865711407,0.0,0.0,0.0,0.0,0.0,0.0,0.0,0.0,0.0,0.027037016923450462,-0.006142606447812416,9.809873387554015,0.0,0.0,0.0,0.0,0.0,0.0,0.0,0.0,0.0
2025/05/21 13:49:45.881528577,1747828185,879725827,mA1/imu,0.4083462545808783,0.9128257709812453,0.0001716064010438775,0.0015552342289396558,0.0,0.0,0.0,0.0,0.0,0.0,0.0,0.0,0.0,-0.000391661950567428,0.003350027116799123,-0.001888467275130089,0.0,0.0,0.0,0.0,0.0,0.0,0.0,0.0,0.0,0.026635903933746936,-0.0066687480612094875,9.809613123822945,0.0,0.0,0.0,0.0,0.0,0.0,0.0,0.0,0.0
2025/05/21 13:49:45.931770730,1747828185,930683769,mA1/imu,0.4083107475616299,0.9128418185565434,0.00022948700826620305,0.0014474307440068993,0.0,0.0,0.0,0.0,0.0,0.0,0.0,0.0,0.0,-0.0003398706238890502,0.005633930478301966,-0.0014577499107930115,0.0,0.0,0.0,0.0,0.0,0.0,0.0,0.0,0.0,0.028964497660234633,-0.00832155523926308,9.81260204617866,0.0,0.0,0.0,0.0,0.0,0.0,0.0,0.0,0.0
2025/05/21 13:49:45.981862845,1747828185,980539201,mA1/imu,0.40827331734338423,0.9128587469654488,0.0002986539054631685,0.001310435020866607,0.0,0.0,0.0,0.0,0.0,0.0,0.0,0.0,0.0,-0.0002543244882415366,0.006423892541176039,-0.0017555101864606903,0.0,0.0,0.0,0.0,0.0,0.0,0.0,0.0,0.0,0.02863940581152915,-0.008023656693340235,9.812203895464151,0.0,0.0,0.0,0.0,0.0,0.0,0.0,0.0,0.0
2025/05/21 13:49:46.32687606,1747828186,31556740,mA1/imu,0.4082292663916178,0.9128786245215563,0.0003714955461581731,0.0011597172293899617,0.0,0.0,0.0,0.0,0.0,0.0,0.0,0.0,0.0,-0.00016373620029752828,0.006825731024508161,-0.002040284434951257,0.0,0.0,0.0,0.0,0.0,0.0,0.0,0.0,0.0,0.03143180970633478,-0.00799598751027818,9.809749892029718,0.0,0.0,0.0,0.0,0.0,0.0,0.0,0.0,0.0
2025/05/21 13:49:46.82857983,1747828186,81460092,mA1/imu,0.4081788484287588,0.9129013216152806,0.0004438036213231227,0.0010038559617840854,0.0,0.0,0.0,0.0,0.0,0.0,0.0,0.0,0.0,-1.1116598862183344e-05,0.006852548935700062,-0.0023147965217817424,0.0,0.0,0.0,0.0,0.0,0.0,0.0,0.0,0.0,0.03095995355063731,-0.029500186874010778,9.809214027855374,0.0,0.0,0.0,0.0,0.0,0.0,0.0,0.0,0.0
2025/05/21 13:49:46.133303879,1747828186,132423278,mA1/imu,0.40812237684076863,0.9129266889171055,0.0005113358895223053,0.0008513050570667028,0.0,0.0,0.0,0.0,0.0,0.0,0.0,0.0,0.0,4.76051047707728e-05,0.00650363190457055,-0.002574203583463616,0.0,0.0,0.0,0.0,0.0,0.0,0.0,0.0,0.0,0.031889164589465134,-0.00652748237175,9.811950692692317,0.0,0.0,0.0,0.0,0.0,0.0,0.0,0.0,0.0
2025/05/21 13:49:46.183368361,1747828186,182263666,mA1/imu,0.408060106016882,0.9129546088077749,0.0005716428010937645,0.0007108858148601451,0.0,0.0,0.0,0.0,0.0,0.0,0.0,0.0,0.0,0.00011859941460902114,0.005815942943888875,-0.0028228257447968715,0.0,0.0,0.0,0.0,0.0,0.0,0.0,0.0,0.0,0.03107615177978322,-0.006550173855805936,9.811453861215975,0.0,0.0,0.0,0.0,0.0,0.0,0.0,0.0,0.0
2025/05/21 13:49:46.234488164,1747828186,233434178,mA1/imu,0.40799690399063376,0.9129829114031726,0.0006262799387240929,0.0005810277814107358,0.0,0.0,0.0,0.0,0.0,0.0,0.0,0.0,0.0,0.00014251418311858166,0.005390137125027791,-0.0027737360379400697,0.0,0.0,0.0,0.0,0.0,0.0,0.0,0.0,0.0,0.03321769071653462,-0.005885340625278937,9.808636744482707,0.0,0.0,0.0,0.0,0.0,0.0,0.0,0.0,0.0
2025/05/21 13:49:46.285312479,1747828186,283430911,mA1/imu,0.40793026911942865,0.9130127181812179,0.0006693288802769343,0.000473259278298732,0.0,0.0,0.0,0.0,0.0,0.0,0.0,0.0,0.0,0.00021409755700337385,0.0041076829866618205,-0.0030096279572471114,0.0,0.0,0.0,0.0,0.0,0.0,0.0,0.0,0.0,0.032211991136033215,-0.005386608205015079,9.808063945173625,0.0,0.0,0.0,0.0,0.0,0.0,0.0,0.0,0.0
2025/05/21 13:49:46.335986423,1747828186,334764949,mA1/imu,0.40785847931471725,0.9130448063816206,0.0006964819884750842,0.00039661502131674656,0.0,0.0,0.0,0.0,0.0,0.0,0.0,0.0,0.0,0.0002853587269870607,0.0026467502113320268,-0.0032309745665975932,0.0,0.0,0.0,0.0,0.0,0.0,0.0,0.0,0.0,0.03139046763227205,-0.0064387671172180146,9.810990621793387,0.0,0.0,0.0,0.0,0.0,0.0,0.0,0.0,0.0
2025/05/21 13:49:46.386662879,1747828186,385017236,mA1/imu,0.4077817806403716,0.9130790745194289,0.0007056244090571406,0.00035376080110399396,0.0,0.0,0.0,0.0,0.0,0.0,0.0,0.0,0.0,0.00037736526096235633,0.0010963288395290241,-0.003440868761131583,0.0,0.0,0.0,0.0,0.0,0.0,0.0,0.0,0.0,0.03006369899790951,-0.0032076994246394777,9.810453842977479,0.0,0.0,0.0,0.0,0.0,0.0,0.0,0.0,0.0
2025/05/21 13:49:46.427853849,1747828186,426098723,mA1/imu,0.40771015422583456,0.9131110679816558,0.0007050833853141295,0.00033245746463127674,0.0,0.0,0.0,0.0,0.0,0.0,0.0,0.0,0.0,0.0003807478608201974,0.0002894589279304983,-0.003114239900842587,0.0,0.0,0.0,0.0,0.0,0.0,0.0,0.0,0.0,0.03095259060541904,-0.00394656307570374,9.807860827659471,0.0,0.0,0.0,0.0,0.0,0.0,0.0,0.0,0.0
2025/05/21 13:49:46.477353895,1747828186,475770746,mA1/imu,0.4076364193438442,0.9131439955632465,0.0006891282574341513,0.0003436474409837622,0.0,0.0,0.0,0.0,0.0,0.0,0.0,0.0,0.0,0.0004122073335061947,-0.001295035910060248,-0.003307242199448746,0.0,0.0,0.0,0.0,0.0,0.0,0.0,0.0,0.0,0.02962025478982005,-0.0032389700990164156,9.80747763461822,0.0,0.0,0.0,0.0,0.0,0.0,0.0,0.0,0.0
2025/05/21 13:49:46.527845431,1747828186,526767419,mA1/imu,0.40755844524823426,0.9131788071955622,0.0006552281765714142,0.00038790690766697623,0.0,0.0,0.0,0.0,0.0,0.0,0.0,0.0,0.0,0.0006368128671672943,-0.002727337870892533,-0.0034909113641856133,0.0,0.0,0.0,0.0,0.0,0.0,0.0,0.0,0.0,0.026987865219627295,0.009739264370252533,9.810256557410105,0.0,0.0,0.0,0.0,0.0,0.0,0.0,0.0,0.0
2025/05/21 13:49:46.577650917,1747828186,576560857,mA1/imu,0.4074763237772197,0.9132154432927859,0.0006179170024409648,0.00046676668799728243,0.0,0.0,0.0,0.0,0.0,0.0,0.0,0.0,0.0,-0.00045245559965161264,-0.003954855828847293,-0.003670578659462322,0.0,0.0,0.0,0.0,0.0,0.0,0.0,0.0,0.0,0.025460238473600207,-0.16835953372038615,9.810359117018773,0.0,0.0,0.0,0.0,0.0,0.0,0.0,0.0,0.0
2025/05/21 13:49:46.629162180,1747828186,627906787,mA1/imu,0.40738802509211874,0.9132548213055592,0.0005572775266071318,0.0005637512331521501,0.0,0.0,0.0,0.0,0.0,0.0,0.0,0.0,0.0,-0.0016291951587499415,-0.0048385795721155485,-0.003984410375673143,0.0,0.0,0.0,0.0,0.0,0.0,0.0,0.0,0.0,0.023647732223152803,0.4826406447594161,9.809271574029959,0.0,0.0,0.0,0.0,0.0,0.0,0.0,0.0,0.0
2025/05/21 13:49:46.678660379,1747828186,677763566,mA1/imu,0.40729475123436076,0.9132963842355212,0.0004908251164232973,0.0006776798421080976,0.0,0.0,0.0,0.0,0.0,0.0,0.0,0.0,0.0,0.00015100062946697514,-0.005438409019976447,-0.004155795082023931,0.0,0.0,0.0,0.0,0.0,0.0,0.0,0.0,0.0,0.02024782459165146,-0.016690026951087508,9.810692971445471,0.0,0.0,0.0,0.0,0.0,0.0,0.0,0.0,0.0
2025/05/21 13:49:46.729762394,1747828186,728794356,mA1/imu,0.40720959860689676,0.913334297468463,0.0004345479984967778,0.0007842437351167394,0.0,0.0,0.0,0.0,0.0,0.0,0.0,0.0,0.0,-0.0014795417402288938,-0.004548923417232783,-0.003584648485440103,0.0,0.0,0.0,0.0,0.0,0.0,0.0,0.0,0.0,0.02189281324382659,0.4410989426744677,9.81053516592217,0.0,0.0,0.0,0.0,0.0,0.0,0.0,0.0,0.0
2025/05/21 13:49:46.780573747,1747828186,778687393,mA1/imu,0.40712533130842893,0.913371797164035,0.00037668344631438345,0.0008847948486177398,0.0,0.0,0.0,0.0,0.0,0.0,0.0,0.0,0.0,0.0009533380447510829,-0.004606496018492641,-0.0037632208996256212,0.0,0.0,0.0,0.0,0.0,0.0,0.0,0.0,0.0,0.018242996602729843,-0.5851794967859957,9.809298052767788,0.0,0.0,0.0,0.0,0.0,0.0,0.0,0.0,0.0
2025/05/21 13:49:46.831556495,1747828186,830490531,mA1/imu,0.40703518760991436,0.9134118942286014,0.0003222590250059032,0.0009816711265983307,0.0,0.0,0.0,0.0,0.0,0.0,0.0,0.0,0.0,0.0009680341548652006,-0.004272679805260632,-0.004056580997003492,0.0,0.0,0.0,0.0,0.0,0.0,0.0,0.0,0.0,0.01571828447792772,0.0538221214382755,9.809718745274186,0.0,0.0,0.0,0.0,0.0,0.0,0.0,0.0,0.0
2025/05/21 13:49:46.881223926,1747828186,879571691,mA1/imu,0.406940301640163,0.9134540828759804,0.00028292795134364946,0.0010720680897385057,0.0,0.0,0.0,0.0,0.0,0.0,0.0,0.0,0.0,-0.0007913462764846469,-0.003680133973862711,-0.0042225636901179545,0.0,0.0,0.0,0.0,0.0,0.0,0.0,0.0,0.0,0.015097577016845085,0.5694776820629898,9.810626681125036,0.0,0.0,0.0,0.0,0.0,0.0,0.0,0.0,0.0
2025/05/21 13:49:46.931718051,1747828186,930510354,mA1/imu,0.406841777444456,0.913497886294786,0.0002537544125826046,0.001146939184055912,0.0,0.0,0.0,0.0,0.0,0.0,0.0,0.0,0.0,-0.0007927671685699398,-0.0028627728500036738,-0.004377552392489538,0.0,0.0,0.0,0.0,0.0,0.0,0.0,0.0,0.0,0.01380327032497898,-0.05420262416248979,9.811756669815502,0.0,0.0,0.0,0.0,0.0,0.0,0.0,0.0,0.0
2025/05/21 13:49:46.981851025,1747828186,980631362,mA1/imu,0.4067397406598391,0.9135432647455894,0.00022752230729507482,0.0011979313571763334,0.0,0.0,0.0,0.0,0.0,0.0,0.0,0.0,0.0,0.0008824973731136512,-0.00188688515022297,-0.004527121942281394,0.0,0.0,0.0,0.0,0.0,0.0,0.0,0.0,0.0,0.012823161752634652,-0.5587164595204743,9.810797796028611,0.0,0.0,0.0,0.0,0.0,0.0,0.0,0.0,0.0
2025/05/21 13:49:47.33051721,1747828187,31606964,mA1/imu,0.40664663453212374,0.9135846961995094,0.00023115703665506577,0.0012099835419118595,0.0,0.0,0.0,0.0,0.0,0.0,0.0,0.0,0.0,-0.0002576606027351358,0.00039377952618521375,-0.003895630140181194,0.0,0.0,0.0,0.0,0.0,0.0,0.0,0.0,0.0,0.014314712811605932,-1.002641431314781e-05,9.809927136231003,0.0,0.0,0.0,0.0,0.0,0.0,0.0,0.0,0.0
2025/05/21 13:49:47.82430734,1747828187,81446375,mA1/imu,0.4065558607479491,0.9136251181048756,0.00024667967242320444,0.0011894572231134454,0.0,0.0,0.0,0.0,0.0,0.0,0.0,0.0,0.0,-0.00024208044046815643,0.0014040348234592023,-0.00402612892928748,0.0,0.0,0.0,0.0,0.0,0.0,0.0,0.0,0.0,0.014139641065274348,0.007844327029261331,9.809896947919441,0.0,0.0,0.0,0.0,0.0,0.0,0.0,0.0,0.0
2025/05/21 13:49:47.133943575,1747828187,132777678,mA1/imu,0.40646002377978346,0.9136678020173331,0.0002763852664740705,0.001149015638554371,0.0,0.0,0.0,0.0,0.0,0.0,0.0,0.0,0.0,0.0005477569479168376,0.0023224002019737403,-0.004286610447937448,0.0,0.0,0.0,0.0,0.0,0.0,0.0,0.0,0.0,0.014241627006093677,-0.5617878555332173,9.811031786803083,0.0,0.0,0.0,0.0,0.0,0.0,0.0,0.0,0.0
2025/05/21 13:49:47.183837599,1747828187,182277971,mA1/imu,0.4063600824398374,0.9137123175467283,0.00031368503832079783,0.0010889281757275526,0.0,0.0,0.0,0.0,0.0,0.0,0.0,0.0,0.0,-2.806110718898159e-05,0.003102024835707347,-0.004430806748823338,0.0,0.0,0.0,0.0,0.0,0.0,0.0,0.0,0.0,0.014720746067926716,0.029636286615672726,9.811731067151939,0.0,0.0,0.0,0.0,0.0,0.0,0.0,0.0,0.0
2025/05/21 13:49:47.234969601,1747828187,233659377,mA1/imu,0.40625692052407225,0.913758258699234,0.00036021260408056644,0.0010146093440317077,0.0,0.0,0.0,0.0,0.0,0.0,0.0,0.0,0.0,-0.001017212169983587,0.0036999417352344397,-0.0045689860948997215,0.0,0.0,0.0,0.0,0.0,0.0,0.0,0.0,0.0,0.015536438948858006,0.5945606580197694,9.811042681006121,0.0,0.0,0.0,0.0,0.0,0.0,0.0,0.0,0.0
2025/05/21 13:49:47.284932235,1747828187,283377400,mA1/imu,0.4061506638364179,0.9138055577052232,0.0004162703919027564,0.0009314994597736276,0.0,0.0,0.0,0.0,0.0,0.0,0.0,0.0,0.0,-0.0012815920609881134,0.004088334040482053,-0.004702105341778021,0.0,0.0,0.0,0.0,0.0,0.0,0.0,0.0,0.0,0.015880898889696644,-0.051180010049778984,9.809638050055824,0.0,0.0,0.0,0.0,0.0,0.0,0.0,0.0,0.0
2025/05/21 13:49:47.336843213,1747828187,335049215,mA1/imu,0.40605074495495375,0.9138500344492217,0.00047346314020198113,0.0008263723967807145,0.0,0.0,0.0,0.0,0.0,0.0,0.0,0.0,0.0,0.0003174645132800972,0.0049208688245348485,-0.004331048781799546,0.0,0.0,0.0,0.0,0.0,0.0,0.0,0.0,0.0,0.018283123475494583,-0.5731897066799619,9.810017011751498,0.0,0.0,0.0,0.0,0.0,0.0,0.0,0.0,0.0
2025/05/21 13:49:47.386483389,1747828187,384340336,mA1/imu,0.40595004916239447,0.9138948295202588,0.0005296632527912461,0.0007194567571275022,0.0,0.0,0.0,0.0,0.0,0.0,0.0,0.0,0.0,0.00027330094662801044,0.004722571408527747,-0.004451634638840835,0.0,0.0,0.0,0.0,0.0,0.0,0.0,0.0,0.0,0.01856089846461707,0.04769260138150582,9.811073241822688,0.0,0.0,0.0,0.0,0.0,0.0,0.0,0.0,0.0
2025/05/21 13:49:47.437472550,1747828187,435887240,mA1/imu,0.40584662574039126,0.913940797006269,0.0005890717278643054,0.0006236482854627989,0.0,0.0,0.0,0.0,0.0,0.0,0.0,0.0,0.0,-0.0013008555757191764,0.0042660539555509904,-0.004570279229447234,0.0,0.0,0.0,0.0,0.0,0.0,0.0,0.0,0.0,0.01996121811553777,0.5681309763527183,9.80959669260935,0.0,0.0,0.0,0.0,0.0,0.0,0.0,0.0,0.0
2025/05/21 13:49:47.486913050,1747828187,485363856,mA1/imu,0.4057405618703735,0.9139879065240052,0.0006408927641680663,0.0005407748557182403,0.0,0.0,0.0,0.0,0.0,0.0,0.0,0.0,0.0,-0.0011108466882831483,0.003590102536226564,-0.004684599536118102,0.0,0.0,0.0,0.0,0.0,0.0,0.0,0.0,0.0,0.019196072986331816,-0.05112085736286741,9.808573816141472,0.0,0.0,0.0,0.0,0.0,0.0,0.0,0.0,0.0
2025/05/21 13:49:47.527932427,1747828187,526230901,mA1/imu,0.4056319907227,0.9140361087826908,0.0006759226665910294,0.00047230528837291096,0.0,0.0,0.0,0.0,0.0,0.0,0.0,0.0,0.0,0.0005539033696442476,0.002714684420696009,-0.004792648269697005,0.0,0.0,0.0,0.0,0.0,0.0,0.0,0.0,0.0,0.019491852687918226,-0.5738451721691966,9.808922166549834,0.0,0.0,0.0,0.0,0.0,0.0,0.0,0.0,0.0
2025/05/21 13:49:47.577113786,1747828187,576131093,mA1/imu,0.4055209746217734,0.9140853751544022,0.0006974605305423075,0.000423815350296238,0.0,0.0,0.0,0.0,0.0,0.0,0.0,0.0,0.0,0.0006525166248042472,0.001719600422859798,-0.004897715136124819,0.0,0.0,0.0,0.0,0.0,0.0,0.0,0.0,0.0,0.019272861595662,0.05753650227058958,9.809817501012791,0.0,0.0,0.0,0.0,0.0,0.0,0.0,0.0,0.0
2025/05/21 13:49:47.629838874,1747828187,627993402,mA1/imu,0.4054055537395153,0.914136561528473,0.0007216754175455441,0.0004038052115144473,0.0,0.0,0.0,0.0,0.0,0.0,0.0,0.0,0.0,-0.00022786272198966817,0.0007056094683315762,-0.005130538948617872,0.0,0.0,0.0,0.0,0.0,0.0,0.0,0.0,0.0,0.018273324470390054,-0.05638090270706279,9.808572131449349,0.0,0.0,0.0,0.0,0.0,0.0,0.0,0.0,0.0
2025/05/21 13:49:47.680615244,1747828187,678325861,mA1/imu,0.40528685348495136,0.9141891926180098,0.0007241688692210072,0.0004025818524527659,0.0,0.0,0.0,0.0,0.0,0.0,0.0,0.0,0.0,-0.0001767094587744457,-0.0003233416496028522,-0.005234208722495513,0.0,0.0,0.0,0.0,0.0,0.0,0.0,0.0,0.0,0.0172604500227923,-0.6402465089286987,9.8088934400706,0.0,0.0,0.0,0.0,0.0,0.0,0.0,0.0,0.0
2025/05/21 13:49:47.731343058,1747828187,730410722,mA1/imu,0.4051658845288269,0.9142428113802142,0.0007133424247991932,0.00042307937837812563,0.0,0.0,0.0,0.0,0.0,0.0,0.0,0.0,0.0,-1.385340016857772e-05,-0.0013096273804007578,-0.005330557454185194,0.0,0.0,0.0,0.0,0.0,0.0,0.0,0.0,0.0,0.016292820747465124,-0.37255405982786244,9.809008066327614,0.0,0.0,0.0,0.0,0.0,0.0,0.0,0.0,0.0
2025/05/21 13:49:47.781184989,1747828187,780204204,mA1/imu,0.4050430356341098,0.9142972383356753,0.000694708016962608,0.0004654426212247879,0.0,0.0,0.0,0.0,0.0,0.0,0.0,0.0,0.0,0.00043080180501675245,-0.002192934348710596,-0.0054007201436581005,0.0,0.0,0.0,0.0,0.0,0.0,0.0,0.0,0.0,0.015022944663787959,-0.4556915668520616,9.807202661768775,0.0,0.0,0.0,0.0,0.0,0.0,0.0,0.0,0.0
2025/05/21 13:49:47.832579627,1747828187,831370229,mA1/imu,0.4049310015151885,0.9143468554362151,0.0006758752722046158,0.0005051320899359436,0.0,0.0,0.0,0.0,0.0,0.0,0.0,0.0,0.0,0.0005974209917012506,-0.0016898757264269585,-0.004699449048619844,0.0,0.0,0.0,0.0,0.0,0.0,0.0,0.0,0.0,0.015430628225005322,-0.6025650287944929,9.807305908450994,0.0,0.0,0.0,0.0,0.0,0.0,0.0,0.0,0.0
2025/05/21 13:49:47.882320939,1747828187,881160874,mA1/imu,0.4048224983282223,0.914394889994754,0.0006518597349651823,0.0005523383598904703,0.0,0.0,0.0,0.0,0.0,0.0,0.0,0.0,0.0,-0.0006912212888330209,-0.0024365239214131197,-0.004802381705929731,0.0,0.0,0.0,0.0,0.0,0.0,0.0,0.0,0.0,0.028525755470303164,-0.3764890700705041,9.810076274223922,0.0,0.0,0.0,0.0,0.0,0.0,0.0,0.0,0.0
2025/05/21 13:49:47.934491759,1747828187,932403478,mA1/imu,0.40470937086597525,0.9144449558094433,0.0006037658673287013,0.000619188750912412,0.0,0.0,0.0,0.0,0.0,0.0,0.0,0.0,0.0,0.00023170388498661588,-0.003684805365346093,-0.005048861745032405,0.0,0.0,0.0,0.0,0.0,0.0,0.0,0.0,0.0,0.03542411943392617,0.1530672981579377,9.80907481604374,0.0,0.0,0.0,0.0,0.0,0.0,0.0,0.0,0.0
2025/05/21 13:49:47.983373531,1747828187,982040498,mA1/imu,0.40459180375713544,0.91449693630589,0.0005590711809806879,0.0007164210374450174,0.0,0.0,0.0,0.0,0.0,0.0,0.0,0.0,0.0,-0.00012649528992704089,-0.004505679788286279,-0.005146962936728067,0.0,0.0,0.0,0.0,0.0,0.0,0.0,0.0,0.0,0.014971079677494965,0.5945702074577399,9.810458062781088,0.0,0.0,0.0,0.0,0.0,0.0,0.0,0.0,0.0
2025/05/21 13:49:48.35356434,1747828188,33016882,mA1/imu,0.4044991542066135,0.9145378836652397,0.0005280349005144686,0.0007840703938510119,0.0,0.0,0.0,0.0,0.0,0.0,0.0,0.0,0.0,-0.00035855176312416946,-0.0019538029375132464,-0.0033219699364115877,0.0,0.0,0.0,0.0,0.0,0.0,0.0,0.0,0.0,-0.0705727746966231,-0.044535757736201026,9.808671127302425,0.0,0.0,0.0,0.0,0.0,0.0,0.0,0.0,0.0
2025/05/21 13:49:48.85125843,1747828188,82919573,mA1/imu,0.40444267160777575,0.91456286142807,0.00051131642906383,0.0007977686224355903,0.0,0.0,0.0,0.0,0.0,0.0,0.0,0.0,0.0,-0.0008075154237411814,-0.0005099749119611738,-0.002242929833619155,0.0,0.0,0.0,0.0,0.0,0.0,0.0,0.0,0.0,0.02061984732709938,0.5487622001697259,9.809719919519576,0.0,0.0,0.0,0.0,0.0,0.0,0.0,0.0,0.0
2025/05/21 13:49:48.135383272,1747828188,133933758,mA1/imu,0.40439331257966826,0.9145846850991256,0.0004969666102242462,0.0008096586715561159,0.0,0.0,0.0,0.0,0.0,0.0,0.0,0.0,0.0,0.0004920782241500771,-0.0007508232484880075,-0.0021104432012687816,0.0,0.0,0.0,0.0,0.0,0.0,0.0,0.0,0.0,0.021444314033084035,0.19633515746156754,9.809618716290837,0.0,0.0,0.0,0.0,0.0,0.0,0.0,0.0,0.0
2025/05/21 13:49:48.187843582,1747828188,185560765,mA1/imu,0.40434655040149564,0.914605355072444,0.000480007153017404,0.0008253752797442245,0.0,0.0,0.0,0.0,0.0,0.0,0.0,0.0,0.0,0.001367786851307738,-0.0009232735647711412,-0.0019975608832786362,0.0,0.0,0.0,0.0,0.0,0.0,0.0,0.0,0.0,0.0210211783901883,-0.5679826734881951,9.811498424930814,0.0,0.0,0.0,0.0,0.0,0.0,0.0,0.0,0.0
2025/05/21 13:49:48.227844365,1747828188,226476765,mA1/imu,0.4043029068718149,0.9146246416921648,0.0004611517835480326,0.0008435896587608532,0.0,0.0,0.0,0.0,0.0,0.0,0.0,0.0,0.0,0.0006898171369488656,-0.0010058568700395162,-0.0018512528019078499,0.0,0.0,0.0,0.0,0.0,0.0,0.0,0.0,0.0,0.02141712456093736,0.013334065615645933,9.80996280016949,0.0,0.0,0.0,0.0,0.0,0.0,0.0,0.0,0.0
2025/05/21 13:49:48.279496867,1747828188,278256172,mA1/imu,0.4042602226407807,0.9146434979529661,0.00044104206795106063,0.000865750936216557,0.0,0.0,0.0,0.0,0.0,0.0,0.0,0.0,0.0,0.0005067890761116711,-0.001235933992385465,-0.0019084075252139923,0.0,0.0,0.0,0.0,0.0,0.0,0.0,0.0,0.0,0.026568357838615383,-0.0013468496350210468,9.810322349398525,0.0,0.0,0.0,0.0,0.0,0.0,0.0,0.0,0.0
2025/05/21 13:49:48.334273497,1747828188,331607656,mA1/imu,0.40422007507334373,0.9146612307202019,0.0004268167546147227,0.0008841677239210657,0.0,0.0,0.0,0.0,0.0,0.0,0.0,0.0,0.0,0.001338089230986867,-0.0008063694927648229,-0.0017107865811089623,0.0,0.0,0.0,0.0,0.0,0.0,0.0,0.0,0.0,0.02590207407328409,-0.5654669065482265,9.811297654393174,0.0,0.0,0.0,0.0,0.0,0.0,0.0,0.0,0.0
2025/05/21 13:49:48.384194806,1747828188,381540902,mA1/imu,0.4041793938308909,0.914679199857367,0.00040934448761178625,0.000900770709406108,0.0,0.0,0.0,0.0,0.0,0.0,0.0,0.0,0.0,0.0007229141187092895,-0.0009369425551443246,-0.0018238884880833917,0.0,0.0,0.0,0.0,0.0,0.0,0.0,0.0,0.0,0.025572244893455207,0.02258738608416227,9.812416270501231,0.0,0.0,0.0,0.0,0.0,0.0,0.0,0.0,0.0
2025/05/21 13:49:48.433830789,1747828188,432672046,mA1/imu,0.40413619265607453,0.9146982681276892,0.00040245746647728345,0.0009241740344239726,0.0,0.0,0.0,0.0,0.0,0.0,0.0,0.0,0.0,-0.0006048564361267779,-0.0009805545827030959,-0.0019295778890643775,0.0,0.0,0.0,0.0,0.0,0.0,0.0,0.0,0.0,0.024513408822541664,0.04837818931097731,9.81144807404021,0.0,0.0,0.0,0.0,0.0,0.0,0.0,0.0,0.0
2025/05/21 13:49:48.483891250,1747828188,482515466,mA1/imu,0.4040907636907952,0.914718322516871,0.00038970596543198583,0.0009451354251981256,0.0,0.0,0.0,0.0,0.0,0.0,0.0,0.0,0.0,-0.0004054547794798103,-0.000946075062533261,-0.002024380747515038,0.0,0.0,0.0,0.0,0.0,0.0,0.0,0.0,0.0,0.02327648774635356,0.16477270862963983,9.811733537604368,0.0,0.0,0.0,0.0,0.0,0.0,0.0,0.0,0.0
2025/05/21 13:49:48.534900924,1747828188,533569402,mA1/imu,0.40404322528766834,0.9147393027328385,0.0003826617448892173,0.0009662841030786591,0.0,0.0,0.0,0.0,0.0,0.0,0.0,0.0,0.0,0.0007511728252988663,-0.0008378936701687291,-0.0021154895408903125,0.0,0.0,0.0,0.0,0.0,0.0,0.0,0.0,0.0,0.02248471489547421,-0.5857618138376564,9.809964892558941,0.0,0.0,0.0,0.0,0.0,0.0,0.0,0.0,0.0
2025/05/21 13:49:48.584712034,1747828188,583391745,mA1/imu,0.40399383133589706,0.9147611076200957,0.00037140672269665183,0.0009809613881520914,0.0,0.0,0.0,0.0,0.0,0.0,0.0,0.0,0.0,0.0013312730195154786,-0.0006429331134713772,-0.002181647090918298,0.0,0.0,0.0,0.0,0.0,0.0,0.0,0.0,0.0,0.02148438533559931,-0.5389788004308634,9.80908619085409,0.0,0.0,0.0,0.0,0.0,0.0,0.0,0.0,0.0
2025/05/21 13:49:48.637439472,1747828188,635030011,mA1/imu,0.4039520771258264,0.9147795440163913,0.0003797370408144685,0.0009803237594500707,0.0,0.0,0.0,0.0,0.0,0.0,0.0,0.0,0.0,-0.00043093177947464803,0.00038905055721016326,-0.0017464118057453264,0.0,0.0,0.0,0.0,0.0,0.0,0.0,0.0,0.0,0.02197146268007292,0.6061761871025997,9.810456951799601,0.0,0.0,0.0,0.0,0.0,0.0,0.0,0.0,0.0
2025/05/21 13:49:48.686765658,1747828188,684925369,mA1/imu,0.40391133277633184,0.9147975345218804,0.00039677102750807863,0.0009739919341180663,0.0,0.0,0.0,0.0,0.0,0.0,0.0,0.0,0.0,-0.0013550227971342009,0.0005984978975790995,-0.0018054114003473649,0.0,0.0,0.0,0.0,0.0,0.0,0.0,0.0,0.0,0.021167842457210137,0.3074092041590738,9.809272663192663,0.0,0.0,0.0,0.0,0.0,0.0,0.0,0.0,0.0
2025/05/21 13:49:48.728164536,1747828188,726393819,mA1/imu,0.40386911742122183,0.9148161815238501,0.0004087538027853275,0.0009606955053958809,0.0,0.0,0.0,0.0,0.0,0.0,0.0,0.0,0.0,-8.966353816643007e-05,0.0007421211972901368,-0.001874231665750731,0.0,0.0,0.0,0.0,0.0,0.0,0.0,0.0,0.0,0.02165359837796433,-0.23648699946059515,9.809649041051816,0.0,0.0,0.0,0.0,0.0,0.0,0.0,0.0,0.0
2025/05/21 13:49:48.777759929,1747828188,775725304,mA1/imu,0.4038254596906889,0.9148354653534574,0.00042267387729719,0.0009438134985809833,0.0,0.0,0.0,0.0,0.0,0.0,0.0,0.0,0.0,0.0006650785634935747,0.000981350307503183,-0.0019130808500285362,0.0,0.0,0.0,0.0,0.0,0.0,0.0,0.0,0.0,0.005009096434400173,-0.5179231947658455,9.808695217020052,0.0,0.0,0.0,0.0,0.0,0.0,0.0,0.0,0.0
2025/05/21 13:49:48.828255508,1747828188,826891100,mA1/imu,0.40377398346226123,0.9148581922652724,0.00044635224356441734,0.0009268731357999671,0.0,0.0,0.0,0.0,0.0,0.0,0.0,0.0,0.0,-0.0014696899007532172,0.0009907715170633415,-0.0024795438848884497,0.0,0.0,0.0,0.0,0.0,0.0,0.0,0.0,0.0,0.0244549290311364,0.5381306885763899,9.807162424182327,0.0,0.0,0.0,0.0,0.0,0.0,0.0,0.0,0.0
2025/05/21 13:49:48.877752817,1747828188,876640340,mA1/imu,0.40370923007573906,0.9148867685207346,0.0004744236243497456,0.0009128305245266516,0.0,0.0,0.0,0.0,0.0,0.0,0.0,0.0,0.0,-0.001421847313304925,0.0009820423134384983,-0.0030602961929294434,0.0,0.0,0.0,0.0,0.0,0.0,0.0,0.0,0.0,0.021726029728423506,-0.07532336233268588,9.80627978805519,0.0,0.0,0.0,0.0,0.0,0.0,0.0,0.0,0.0
2025/05/21 13:49:48.928807551,1747828188,927737026,mA1/imu,0.4036307807011589,0.9149213861772529,0.0004959057874404363,0.0008966958887875782,0.0,0.0,0.0,0.0,0.0,0.0,0.0,0.0,0.0,0.00014324008472728675,0.0009381422921574371,-0.003671301327913858,0.0,0.0,0.0,0.0,0.0,0.0,0.0,0.0,0.0,0.025361127261670655,-0.5946287415452507,9.809228425020017,0.0,0.0,0.0,0.0,0.0,0.0,0.0,0.0,0.0
2025/05/21 13:49:48.978828998,1747828188,977671879,mA1/imu,0.40353826148337407,0.9149621972766316,0.0005206210493668393,0.0008820586245579353,0.0,0.0,0.0,0.0,0.0,0.0,0.0,0.0,0.0,-0.0001452603822646017,0.0009187514439409324,-0.004297887365416089,0.0,0.0,0.0,0.0,0.0,0.0,0.0,0.0,0.0,0.02392190145800753,0.02009891619374089,9.810436787860624,0.0,0.0,0.0,0.0,0.0,0.0,0.0,0.0,0.0
2025/05/21 13:49:49.29561606,1747828189,28705221,mA1/imu,0.4034314240228169,0.9150092971710676,0.0005578208293576657,0.000872374548743476,0.0,0.0,0.0,0.0,0.0,0.0,0.0,0.0,0.0,-0.0019755301712360996,0.0009607694927910801,-0.004923055956665991,0.0,0.0,0.0,0.0,0.0,0.0,0.0,0.0,0.0,0.018063057609684702,0.5357486024637027,9.807520351008783,0.0,0.0,0.0,0.0,0.0,0.0,0.0,0.0,0.0
2025/05/21 13:49:49.79524303,1747828189,78518464,mA1/imu,0.4033101272349595,0.9150627566807589,0.0005928108245384346,0.0008609186124948463,0.0,0.0,0.0,0.0,0.0,0.0,0.0,0.0,0.0,-0.0016115466604963435,0.0011017843039322352,-0.005517856314523475,0.0,0.0,0.0,0.0,0.0,0.0,0.0,0.0,0.0,0.0016842625657543485,-0.062113843625910756,9.807342476189445,0.0,0.0,0.0,0.0,0.0,0.0,0.0,0.0,0.0
2025/05/21 13:49:49.130764969,1747828189,129606333,mA1/imu,0.40318050651127796,0.9151198727627263,0.0006307756021058299,0.0008365202810386115,0.0,0.0,0.0,0.0,0.0,0.0,0.0,0.0,0.0,-0.00012029266911398727,0.0019374585043098903,-0.005657525102037526,0.0,0.0,0.0,0.0,0.0,0.0,0.0,0.0,0.0,-0.017569356028139586,-0.5859288265206594,9.807558303958983,0.0,0.0,0.0,0.0,0.0,0.0,0.0,0.0,0.0
2025/05/21 13:49:49.181219824,1747828189,179377282,mA1/imu,0.4030516366204848,0.9151766436890255,0.0006829176654100239,0.0007891052536416626,0.0,0.0,0.0,0.0,0.0,0.0,0.0,0.0,0.0,-0.0015682128880117852,0.0029756503952441545,-0.005627490733950769,0.0,0.0,0.0,0.0,0.0,0.0,0.0,0.0,0.0,-0.01752621737000562,-0.06738365414951863,9.812306716385333,0.0,0.0,0.0,0.0,0.0,0.0,0.0,0.0,0.0
2025/05/21 13:49:49.232297453,1747828189,231058252,mA1/imu,0.40293228370909223,0.91522922394902,0.0007386050133739896,0.0007048668560897316,0.0,0.0,0.0,0.0,0.0,0.0,0.0,0.0,0.0,-0.00047623917415055866,0.004580560669858239,-0.004965708662367516,0.0,0.0,0.0,0.0,0.0,0.0,0.0,0.0,0.0,-0.014966753577488251,-0.6259495009148197,9.809832303054826,0.0,0.0,0.0,0.0,0.0,0.0,0.0,0.0,0.0
2025/05/21 13:49:49.281770352,1747828189,280265746,mA1/imu,0.40282120641326874,0.9152781464429774,0.0007967173677271674,0.0005962793825639223,0.0,0.0,0.0,0.0,0.0,0.0,0.0,0.0,0.0,0.0008302233500141593,0.005085019637991365,-0.0047718268015944304,0.0,0.0,0.0,0.0,0.0,0.0,0.0,0.0,0.0,-0.013482458766891272,-0.425308599955739,9.810017223752535,0.0,0.0,0.0,0.0,0.0,0.0,0.0,0.0,0.0
2025/05/21 13:49:49.332718831,1747828189,331227500,mA1/imu,0.40271429813202414,0.9153252071677317,0.000854122753092056,0.0004792470163152889,0.0,0.0,0.0,0.0,0.0,0.0,0.0,0.0,0.0,0.0010219507520730165,0.00524549611002367,-0.004593386262393876,0.0,0.0,0.0,0.0,0.0,0.0,0.0,0.0,0.0,-0.011520641100212553,-0.28621330211347823,9.81141860828792,0.0,0.0,0.0,0.0,0.0,0.0,0.0,0.0,0.0
2025/05/21 13:49:49.382675574,1747828189,381131513,mA1/imu,0.4026113853916972,0.9153704766478791,0.0009115489402249784,0.0003631982139406159,0.0,0.0,0.0,0.0,0.0,0.0,0.0,0.0,0.0,0.000771256345526689,0.005075759518429913,-0.0044210335143474245,0.0,0.0,0.0,0.0,0.0,0.0,0.0,0.0,0.0,-0.010162639795322496,-0.4891912352158708,9.808996827378065,0.0,0.0,0.0,0.0,0.0,0.0,0.0,0.0,0.0
2025/05/21 13:49:49.434877711,1747828189,432565226,mA1/imu,0.40251042455669334,0.9154148693204466,0.0009550826005798968,0.000250933151132755,0.0,0.0,0.0,0.0,0.0,0.0,0.0,0.0,0.0,0.0002925844531097051,0.004595217169817164,-0.0043805954033085,0.0,0.0,0.0,0.0,0.0,0.0,0.0,0.0,0.0,-0.007494495954405952,-0.016267757030910553,9.811156798578997,0.0,0.0,0.0,0.0,0.0,0.0,0.0,0.0,0.0
2025/05/21 13:49:49.483726487,1747828189,482664382,mA1/imu,0.40241204111634327,0.9154581126981115,0.0009851019367581638,0.00015044588540968182,0.0,0.0,0.0,0.0,0.0,0.0,0.0,0.0,0.0,0.0006278394085689691,0.003845098994269577,-0.00423688980710064,0.0,0.0,0.0,0.0,0.0,0.0,0.0,0.0,0.0,-0.006976229592608206,-0.012116000605403417,9.810465080852016,0.0,0.0,0.0,0.0,0.0,0.0,0.0,0.0,0.0
2025/05/21 13:49:49.534403247,1747828189,533645777,mA1/imu,0.40231702021233307,0.915499868964364,0.0010002979627396335,6.765860983807111e-05,0.0,0.0,0.0,0.0,0.0,0.0,0.0,0.0,0.0,0.0008358796057335554,0.002871129985060859,-0.004091695284316675,0.0,0.0,0.0,0.0,0.0,0.0,0.0,0.0,0.0,-0.0062112757820927894,-0.01660731244883265,9.812752197542665,0.0,0.0,0.0,0.0,0.0,0.0,0.0,0.0,0.0
2025/05/21 13:49:49.585263990,1747828189,584133046,mA1/imu,0.4022252637209009,0.9155401931660309,0.00099593537605242,5.906380716958685e-06,0.0,0.0,0.0,0.0,0.0,0.0,0.0,0.0,0.0,0.000986510956494173,0.001725839356087563,-0.003951140578236574,0.0,0.0,0.0,0.0,0.0,0.0,0.0,0.0,0.0,-0.005256053266851683,0.3475602954677048,9.813343224777025,0.0,0.0,0.0,0.0,0.0,0.0,0.0,0.0,0.0
2025/05/21 13:49:49.636158083,1747828189,635347086,mA1/imu,0.40214355191949747,0.9155760977319326,0.0009856553734464608,-3.734999431428867e-05,0.0,0.0,0.0,0.0,0.0,0.0,0.0,0.0,0.0,0.000924043086367507,0.0009900430617259433,-0.003451411657705671,0.0,0.0,0.0,0.0,0.0,0.0,0.0,0.0,0.0,-0.0031607758283785873,-0.036911284801207755,9.81134027163471,0.0,0.0,0.0,0.0,0.0,0.0,0.0,0.0,0.0
2025/05/21 13:49:49.686937764,1747828189,685046181,mA1/imu,0.4020662309597491,0.9156100871960544,0.0009545033169742297,-5.5408241425911986e-05,0.0,0.0,0.0,0.0,0.0,0.0,0.0,0.0,0.0,0.00214944563053067,-0.0003916491343119947,-0.003330062199371882,0.0,0.0,0.0,0.0,0.0,0.0,0.0,0.0,0.0,-0.0033173820085801217,-0.588612044923651,9.810444360532438,0.0,0.0,0.0,0.0,0.0,0.0,0.0,0.0,0.0
2025/05/21 13:49:49.728867845,1747828189,726053625,mA1/imu,0.40199154323004077,0.9156429293602023,0.0009073069823411212,-4.333864059727577e-05,0.0,0.0,0.0,0.0,0.0,0.0,0.0,0.0,0.0,0.002172857309138175,-0.0017283284827999677,-0.003218186251225766,0.0,0.0,0.0,0.0,0.0,0.0,0.0,0.0,0.0,-0.003432760952480655,0.03698701524169147,9.809902232844744,0.0,0.0,0.0,0.0,0.0,0.0,0.0,0.0,0.0
2025/05/21 13:49:49.778937546,1747828189,775743963,mA1/imu,0.40191945784823063,0.9156746308619025,0.0008484087372197274,-1.2319233780601867e-06,0.0,0.0,0.0,0.0,0.0,0.0,0.0,0.0,0.0,0.001020873189738708,-0.0030085795404343816,-0.0031099516080945657,0.0,0.0,0.0,0.0,0.0,0.0,0.0,0.0,0.0,0.005147127588203788,0.577984801703643,9.81032801923081,0.0,0.0,0.0,0.0,0.0,0.0,0.0,0.0,0.0
2025/05/21 13:49:49.828034472,1747828189,826732644,mA1/imu,0.4018775571593427,0.9156930664770776,0.0007975473330261828,3.123614784428214e-05,0.0,0.0,0.0,0.0,0.0,0.0,0.0,0.0,0.0,-1.5419131094125893e-05,-0.0013068722524140822,-0.0009833223477171225,0.0,0.0,0.0,0.0,0.0,0.0,0.0,0.0,0.0,-0.09145421920068925,0.5138123548901211,9.809590588448073,0.0,0.0,0.0,0.0,0.0,0.0,0.0,0.0,0.0
2025/05/21 13:49:49.877667879,1747828189,876555086,mA1/imu,0.4018844177823652,0.9156900894158876,0.0007578503017143914,2.349837036417536e-05,0.0,0.0,0.0,0.0,0.0,0.0,0.0,0.0,0.0,0.0017325610408528557,0.0003025133115050956,0.0011587756789450399,0.0,0.0,0.0,0.0,0.0,0.0,0.0,0.0,0.0,-0.09017065517233287,0.016327546996272903,9.808599120894923,0.0,0.0,0.0,0.0,0.0,0.0,0.0,0.0,0.0
2025/05/21 13:49:49.928729876,1747828189,927629716,mA1/imu,0.4019407021669089,0.9156654028008,0.0007359851729153541,-1.952040059585632e-05,0.0,0.0,0.0,0.0,0.0,0.0,0.0,0.0,0.0,0.0032270011470156928,0.001811352823149308,0.003341886447349479,0.0,0.0,0.0,0.0,0.0,0.0,0.0,0.0,0.0,-0.09122191713582438,-0.449639935340219,9.808707308170733,0.0,0.0,0.0,0.0,0.0,0.0,0.0,0.0,0.0
2025/05/21 13:49:49.978771352,1747828189,977496534,mA1/imu,0.4020472357640676,0.9156186197072452,0.0007456038701986357,-8.680288027154682e-05,0.0,0.0,0.0,0.0,0.0,0.0,0.0,0.0,0.0,0.002270758514081591,0.0030065821663997905,0.0055612938767545415,0.0,0.0,0.0,0.0,0.0,0.0,0.0,0.0,0.0,-0.08002021272576665,-0.5538556859665857,9.806310369165795,0.0,0.0,0.0,0.0,0.0,0.0,0.0,0.0,0.0
2025/05/21 13:49:50.29931582,1747828190,29028884,mA1/imu,0.4022059345979424,0.9155488825651555,0.0007729795696534209,-0.0001797511492485459,0.0,0.0,0.0,0.0,0.0,0.0,0.0,0.0,0.0,0.0010901713957718864,0.0041394647988405205,0.007815431813036497,0.0,0.0,0.0,0.0,0.0,0.0,0.0,0.0,0.0,-0.07025632832537286,-0.606138641020315,9.8100261848673,0.0,0.0,0.0,0.0,0.0,0.0,0.0,0.0,0.0
2025/05/21 13:49:50.79626672,1747828190,78322632,mA1/imu,0.4024133950272526,0.9154576562638326,0.0008116907809351878,-0.0002832819217223779,0.0,0.0,0.0,0.0,0.0,0.0,0.0,0.0,0.0,-0.0012740953755471037,0.0045635271200032655,0.00989339949108995,0.0,0.0,0.0,0.0,0.0,0.0,0.0,0.0,0.0,-0.07014310237056903,0.5257938563900301,9.808953027235187,0.0,0.0,0.0,0.0,0.0,0.0,0.0,0.0,0.0
2025/05/21 13:49:50.131916546,1747828190,129840776,mA1/imu,0.40266176319070884,0.9153483642731861,0.0008586367151092941,-0.00037313475291173844,0.0,0.0,0.0,0.0,0.0,0.0,0.0,0.0,0.0,-0.0018955910664777407,0.0033248908602821195,0.011234829617704653,0.0,0.0,0.0,0.0,0.0,0.0,0.0,0.0,0.0,-0.005757897192606162,0.5106440596341647,9.807742213748055,0.0,0.0,0.0,0.0,0.0,0.0,0.0,0.0,0.0
2025/05/21 13:49:50.180380344,1747828190,179250103,mA1/imu,0.40292815779330743,0.9152310802900094,0.0008955444560663211,-0.0004090581879036631,0.0,0.0,0.0,0.0,0.0,0.0,0.0,0.0,0.0,-0.0007775106599060071,0.0007181561624869052,0.011765023744395899,0.0,0.0,0.0,0.0,0.0,0.0,0.0,0.0,0.0,0.03011539932230938,0.0015281602327704234,9.807702931367578,0.0,0.0,0.0,0.0,0.0,0.0,0.0,0.0,0.0
2025/05/21 13:49:50.231288087,1747828190,230234714,mA1/imu,0.40319420570006664,0.915113910567144,0.000911075829731995,-0.00036485234574448527,0.0,0.0,0.0,0.0,0.0,0.0,0.0,0.0,0.0,0.0003960049815075662,-0.0027557038135007208,0.01154719128358568,0.0,0.0,0.0,0.0,0.0,0.0,0.0,0.0,0.0,0.03406512201076424,-0.5102416532637704,9.80668320459596,0.0,0.0,0.0,0.0,0.0,0.0,0.0,0.0,0.0
2025/05/21 13:49:50.281149107,1747828190,280205149,mA1/imu,0.40345722160874525,0.9149980245615469,0.0009105987317240736,-0.00023704465544872812,0.0,0.0,0.0,0.0,0.0,0.0,0.0,0.0,0.0,-0.0014845641251704507,-0.005953415106451161,0.011459320692906566,0.0,0.0,0.0,0.0,0.0,0.0,0.0,0.0,0.0,0.033374676180076904,0.010421308465401099,9.809724996048681,0.0,0.0,0.0,0.0,0.0,0.0,0.0,0.0,0.0
2025/05/21 13:49:50.334177536,1747828190,331862484,mA1/imu,0.4037183037684054,0.9148829118501162,0.0008872758087431868,-3.935293575088659e-05,0.0,0.0,0.0,0.0,0.0,0.0,0.0,0.0,0.0,-0.0032175725828708433,-0.008666667947110265,0.011376338820676386,0.0,0.0,0.0,0.0,0.0,0.0,0.0,0.0,0.0,0.028189170465256496,-0.0908664536504124,9.810262123068295,0.0,0.0,0.0,0.0,0.0,0.0,0.0,0.0,0.0
2025/05/21 13:49:50.382808908,1747828190,381164849,mA1/imu,0.4039776901159798,0.9147684307729325,0.0008362716431083233,0.00021118599126546524,0.0,0.0,0.0,0.0,0.0,0.0,0.0,0.0,0.0,-0.0033989647121895387,-0.010796995471173526,0.01130209320084029,0.0,0.0,0.0,0.0,0.0,0.0,0.0,0.0,0.0,0.026174130630426826,-0.08958979852897285,9.80880576093287,0.0,0.0,0.0,0.0,0.0,0.0,0.0,0.0,0.0
2025/05/21 13:49:50.434252646,1747828190,432884832,mA1/imu,0.4042354732151666,0.9146545000591432,0.0007613831698148269,0.0004980077688617034,0.0,0.0,0.0,0.0,0.0,0.0,0.0,0.0,0.0,-0.002003764150218015,-0.012211167649184814,0.011235409098301584,0.0,0.0,0.0,0.0,0.0,0.0,0.0,0.0,0.0,0.020481030450557033,0.004884393228709438,9.809104257355068,0.0,0.0,0.0,0.0,0.0,0.0,0.0,0.0,0.0
2025/05/21 13:49:50.483904004,1747828190,482151613,mA1/imu,0.4044918351914417,0.9145409989606887,0.0006803571332961922,0.0008084538429388718,0.0,0.0,0.0,0.0,0.0,0.0,0.0,0.0,0.0,-0.0019018223481116388,-0.012875521712100466,0.011181445255379044,0.0,0.0,0.0,0.0,0.0,0.0,0.0,0.0,0.0,0.01937585368094958,0.6333382438424929,9.811191496030677,0.0,0.0,0.0,0.0,0.0,0.0,0.0,0.0,0.0
2025/05/21 13:49:50.535321343,1747828190,534033459,mA1/imu,0.4047592033168549,0.9144224356875065,0.0006102511777016757,0.0011063612127137782,0.0,0.0,0.0,0.0,0.0,0.0,0.0,0.0,0.0,-0.0015844323406933127,-0.011607994230961734,0.011901561898866635,0.0,0.0,0.0,0.0,0.0,0.0,0.0,0.0,0.0,0.016313716375598107,0.015211460715337428,9.809941427412678,0.0,0.0,0.0,0.0,0.0,0.0,0.0,0.0,0.0
2025/05/21 13:49:50.584270525,1747828190,583034337,mA1/imu,0.4050305610145119,0.9143019411266333,0.0005417200510707988,0.0013826191544945516,0.0,0.0,0.0,0.0,0.0,0.0,0.0,0.0,0.0,-0.0017766109690816984,-0.010875986256108678,0.011851029391634993,0.0,0.0,0.0,0.0,0.0,0.0,0.0,0.0,0.0,0.014328355812492422,-0.020098154315698426,9.812548567195462,0.0,0.0,0.0,0.0,0.0,0.0,0.0,0.0,0.0
2025/05/21 13:49:50.635453601,1747828190,634481040,mA1/imu,0.40529883237889813,0.9141826797934429,0.0004727908476910394,0.001631228615361017,0.0,0.0,0.0,0.0,0.0,0.0,0.0,0.0,0.0,-0.0013019071004975375,-0.009700775834080006,0.011658660302494073,0.0,0.0,0.0,0.0,0.0,0.0,0.0,0.0,0.0,0.017976174546418557,-0.01343109514589588,9.814104214897919,0.0,0.0,0.0,0.0,0.0,0.0,0.0,0.0,0.0
2025/05/21 13:49:50.685940589,1747828190,684083699,mA1/imu,0.40556270601590516,0.9140652851336728,0.00040461104873540366,0.001839100990488859,0.0,0.0,0.0,0.0,0.0,0.0,0.0,0.0,0.0,-0.001007061887104013,-0.008003319800833618,0.011469634971236004,0.0,0.0,0.0,0.0,0.0,0.0,0.0,0.0,0.0,0.017605095638138182,-0.023756014851230568,9.81079846790194,0.0,0.0,0.0,0.0,0.0,0.0,0.0,0.0,0.0
2025/05/21 13:49:50.736823173,1747828190,735060963,mA1/imu,0.40581840146453246,0.9139514714449609,0.0003498258456267277,0.0020026228401638134,0.0,0.0,0.0,0.0,0.0,0.0,0.0,0.0,0.0,-0.0003906307692515072,-0.006020951829803007,0.011073429345434541,0.0,0.0,0.0,0.0,0.0,0.0,0.0,0.0,0.0,0.01464299582338488,-0.01503851108160087,9.810489245905979,0.0,0.0,0.0,0.0,0.0,0.0,0.0,0.0,0.0
2025/05/21 13:49:50.785779778,1747828190,784976938,mA1/imu,0.4060689486095099,0.9138399691866859,0.000300460914034934,0.0021046176097415416,0.0,0.0,0.0,0.0,0.0,0.0,0.0,0.0,0.0,-0.000805321765502267,-0.0035178610612750265,0.010891322968507141,0.0,0.0,0.0,0.0,0.0,0.0,0.0,0.0,0.0,0.015137864901663467,0.5493312340827395,9.812107539517463,0.0,0.0,0.0,0.0,0.0,0.0,0.0,0.0,0.0
2025/05/21 13:49:50.827562300,1747828190,826140336,mA1/imu,0.4063152861971883,0.9137303887279826,0.0002661806481176123,0.002143377094506906,0.0,0.0,0.0,0.0,0.0,0.0,0.0,0.0,0.0,0.0013415260383671775,-0.0009280754571295634,0.010712491521642178,0.0,0.0,0.0,0.0,0.0,0.0,0.0,0.0,0.0,0.015011223917559102,0.03387972534885435,9.810890157647684,0.0,0.0,0.0,0.0,0.0,0.0,0.0,0.0,0.0
2025/05/21 13:49:50.877150291,1747828190,875838471,mA1/imu,0.4065575709920831,0.9136226737739364,0.00025108660862966747,0.0021185822372089247,0.0,0.0,0.0,0.0,0.0,0.0,0.0,0.0,0.0,0.0017371773253843127,0.0016882092538599881,0.010536250987230506,0.0,0.0,0.0,0.0,0.0,0.0,0.0,0.0,0.0,0.01615780246248695,0.02173138233307293,9.812840039588641,0.0,0.0,0.0,0.0,0.0,0.0,0.0,0.0,0.0
2025/05/21 13:49:50.928221037,1747828190,927047855,mA1/imu,0.4068028495302709,0.913513693159123,0.00026103653128860683,0.002026298290134263,0.0,0.0,0.0,0.0,0.0,0.0,0.0,0.0,0.0,0.0024338700899508886,0.004588571575083617,0.010834976701915666,0.0,0.0,0.0,0.0,0.0,0.0,0.0,0.0,0.0,0.02120233240491675,-0.5847629658092935,9.81187155509994,0.0,0.0,0.0,0.0,0.0,0.0,0.0,0.0,0.0
2025/05/21 13:49:50.978092793,1747828190,976933261,mA1/imu,0.40705031148082926,0.9134037754970354,0.0002797802749536941,0.0018731134826983095,0.0,0.0,0.0,0.0,0.0,0.0,0.0,0.0,0.0,-0.0007108001586870523,0.0067089841772912375,0.01083023966647626,0.0,0.0,0.0,0.0,0.0,0.0,0.0,0.0,0.0,0.022183680580048507,0.4342154771414366,9.810826579850788,0.0,0.0,0.0,0.0,0.0,0.0,0.0,0.0,0.0
2025/05/21 13:49:51.29091722,1747828191,27928817,mA1/imu,0.4072964432385703,0.9132944268133578,0.00030433978356770664,0.0016747101738220185,0.0,0.0,0.0,0.0,0.0,0.0,0.0,0.0,0.0,0.0009646442054568573,0.008234574326887484,0.01072791070554834,0.0,0.0,0.0,0.0,0.0,0.0,0.0,0.0,0.0,0.026061752622873673,0.5331284095765976,9.810030659776649,0.0,0.0,0.0,0.0,0.0,0.0,0.0,0.0,0.0
2025/05/21 13:49:51.79320286,1747828191,77830207,mA1/imu,0.4075397622214642,0.9131862501932138,0.0003438807284793982,0.0014478993660608209,0.0,0.0,0.0,0.0,0.0,0.0,0.0,0.0,0.0,0.002650041473620558,0.009303843365905147,0.010606733816866108,0.0,0.0,0.0,0.0,0.0,0.0,0.0,0.0,0.0,0.027147748825716238,0.014801227767174702,9.809151913988096,0.0,0.0,0.0,0.0,0.0,0.0,0.0,0.0,0.0
2025/05/21 13:49:51.131157947,1747828191,129018006,mA1/imu,0.4077802750731046,0.9130792135561453,0.0003871900785939184,0.001202961694044781,0.0,0.0,0.0,0.0,0.0,0.0,0.0,0.0,0.0,0.004279728103553174,0.00978765147756816,0.010489050482684623,0.0,0.0,0.0,0.0,0.0,0.0,0.0,0.0,0.0,0.02968359752603827,-0.5018034196521549,9.807704382781864,0.0,0.0,0.0,0.0,0.0,0.0,0.0,0.0,0.0
2025/05/21 13:49:51.180080820,1747828191,179160310,mA1/imu,0.40801802894952377,0.9129732601685301,0.0004418690885807591,0.0009586558818241513,0.0,0.0,0.0,0.0,0.0,0.0,0.0,0.0,0.0,0.0026510707414110577,0.009726928767008888,0.010375202227982742,0.0,0.0,0.0,0.0,0.0,0.0,0.0,0.0,0.0,0.03116859846754175,0.017480054938431536,9.810109803830134,0.0,0.0,0.0,0.0,0.0,0.0,0.0,0.0,0.0
2025/05/21 13:49:51.231415451,1747828191,230114139,mA1/imu,0.40825350819770906,0.9128681744792879,0.0004982626754113437,0.0007216657270388718,0.0,0.0,0.0,0.0,0.0,0.0,0.0,0.0,0.0,0.0009383858369537201,0.009331445211060446,0.01028254823391661,0.0,0.0,0.0,0.0,0.0,0.0,0.0,0.0,0.0,0.03421220233533864,-0.08594469617923647,9.809971370654068,0.0,0.0,0.0,0.0,0.0,0.0,0.0,0.0,0.0
2025/05/21 13:49:51.281179474,1747828191,280041459,mA1/imu,0.40848644206319085,0.9127640864414565,0.0005433806189403338,0.000503875730627981,0.0,0.0,0.0,0.0,0.0,0.0,0.0,0.0,0.0,0.0006343949494084194,0.008192427396524682,0.010163027121901076,0.0,0.0,0.0,0.0,0.0,0.0,0.0,0.0,0.0,0.033814270776640905,-0.08442372935111311,9.808147385089196,0.0,0.0,0.0,0.0,0.0,0.0,0.0,0.0,0.0
2025/05/21 13:49:51.332167179,1747828191,331153879,mA1/imu,0.4087167812217433,0.912661034189395,0.000572863406230379,0.0003181942793395411,0.0,0.0,0.0,0.0,0.0,0.0,0.0,0.0,0.0,0.0017106566953531688,0.0065918169695474435,0.010052071536022646,0.0,0.0,0.0,0.0,0.0,0.0,0.0,0.0,0.0,0.0351890951365901,0.009720727457034985,9.80768098131884,0.0,0.0,0.0,0.0,0.0,0.0,0.0,0.0,0.0
2025/05/21 13:49:51.383319665,1747828191,381057735,mA1/imu,0.40894455664664386,0.9125590164551634,0.0005988656760185965,0.0001800982150069175,0.0,0.0,0.0,0.0,0.0,0.0,0.0,0.0,0.0,0.001259949335619988,0.004675311272370715,0.009941755246316457,0.0,0.0,0.0,0.0,0.0,0.0,0.0,0.0,0.0,0.03545425992786814,0.6333326313169584,9.809332394164674,0.0,0.0,0.0,0.0,0.0,0.0,0.0,0.0,0.0
2025/05/21 13:49:51.433549321,1747828191,432183748,mA1/imu,0.4091698983660558,0.9124580029963782,0.0006150170878892291,9.377075582291184e-05,0.0,0.0,0.0,0.0,0.0,0.0,0.0,0.0,0.0,0.0013399788562279634,0.0025470822103515786,0.009838928264968884,0.0,0.0,0.0,0.0,0.0,0.0,0.0,0.0,0.0,0.0346267011357118,0.03974769860917464,9.807921243861491,0.0,0.0,0.0,0.0,0.0,0.0,0.0,0.0,0.0
2025/05/21 13:49:51.483148418,1747828191,482026537,mA1/imu,0.4093928078510022,0.9123580124134552,0.0006183100200930965,6.129894868904794e-05,0.0,0.0,0.0,0.0,0.0,0.0,0.0,0.0,0.0,0.0010609697626672353,0.00033237241365725954,0.009733570230727599,0.0,0.0,0.0,0.0,0.0,0.0,0.0,0.0,0.0,0.03456029458240604,-0.34747611243491316,9.808972288261137,0.0,0.0,0.0,0.0,0.0,0.0,0.0,0.0,0.0
2025/05/21 13:49:51.534554369,1747828191,533575457,mA1/imu,0.40961338331455743,0.9122590067177611,0.0006113921240569495,8.409278380085231e-05,0.0,0.0,0.0,0.0,0.0,0.0,0.0,0.0,0.0,-0.0011881654421917848,-0.001792454643059646,0.009630637887616205,0.0,0.0,0.0,0.0,0.0,0.0,0.0,0.0,0.0,0.032436024696774535,0.45961097647109467,9.809073472925652,0.0,0.0,0.0,0.0,0.0,0.0,0.0,0.0,0.0
2025/05/21 13:49:51.584702822,1747828191,583103003,mA1/imu,0.40983179478430554,0.9121609127865631,0.0005874205201148185,0.00015525911083122686,0.0,0.0,0.0,0.0,0.0,0.0,0.0,0.0,0.0,-0.00035769149329246237,-0.0037783957770587953,0.009542076952305587,0.0,0.0,0.0,0.0,0.0,0.0,0.0,0.0,0.0,0.031511540596468685,-0.007539211775287663,9.810010474796234,0.0,0.0,0.0,0.0,0.0,0.0,0.0,0.0,0.0
2025/05/21 13:49:51.635388285,1747828191,634214197,mA1/imu,0.4100487004493348,0.9120634195913744,0.0005567967280068873,0.0002681053963836347,0.0,0.0,0.0,0.0,0.0,0.0,0.0,0.0,0.0,-0.0017476845752979226,-0.005198622162861017,0.00948347464052976,0.0,0.0,0.0,0.0,0.0,0.0,0.0,0.0,0.0,0.028755384852260098,0.12929830667596728,9.812101930291393,0.0,0.0,0.0,0.0,0.0,0.0,0.0,0.0,0.0
2025/05/21 13:49:51.685019381,1747828191,684086109,mA1/imu,0.4102638372307216,0.9119666375819326,0.0005138660626873193,0.0004144151272714795,0.0,0.0,0.0,0.0,0.0,0.0,0.0,0.0,0.0,-0.0003897288083402532,-0.006569219812652691,0.009398584677055713,0.0,0.0,0.0,0.0,0.0,0.0,0.0,0.0,0.0,0.0277341928199212,-0.4375237577260026,9.80920781952752,0.0,0.0,0.0,0.0,0.0,0.0,0.0,0.0,0.0
2025/05/21 13:49:51.736503766,1747828191,735042629,mA1/imu,0.41047687360999857,0.9118706975378184,0.00046823867416638336,0.0005898777820138698,0.0,0.0,0.0,0.0,0.0,0.0,0.0,0.0,0.0,-0.000668119068290528,-0.007493460187851526,0.009304346469752204,0.0,0.0,0.0,0.0,0.0,0.0,0.0,0.0,0.0,0.024087360716601627,0.03246303965235806,9.81141935873541,0.0,0.0,0.0,0.0,0.0,0.0,0.0,0.0,0.0
