time,header_stamp_secs,header_stamp_nsecs,header_frame_id,orientation_x,orientation_y,orientation_z,orientation_w,orientation_covariance_0,orientation_covariance_1,orientation_covariance_2,orientation_covariance_3,orientation_covariance_4,orientation_covariance_5,orientation_covariance_6,orientation_covariance_7,orientation_covariance_8,angular_velocity_x,angular_velocity_y,angular_velocity_z,angular_velocity_covariance_0,angular_velocity_covariance_1,angular_velocity_covariance_2,angular_velocity_covariance_3,angular_velocity_covariance_4,angular_velocity_covariance_5,angular_velocity_covariance_6,angular_velocity_covariance_7,angular_velocity_covariance_8,linear_acceleration_x,linear_acceleration_y,linear_acceleration_z,linear_acceleration_covariance_0,linear_acceleration_covariance_1,linear_acceleration_covariance_2,linear_acceleration_covariance_3,linear_acceleration_covariance_4,linear_acceleration_covariance_5,linear_acceleration_covariance_6,linear_acceleration_covariance_7,linear_acceleration_covariance_8
2025/05/25 18:15:56.86749203,1748189755,814567439,mA1/imu,0.16277261985147362,-0.986663211338286,-0.0008432168599467584,-0.0002657134461955226,0.0,0.0,0.0,0.0,0.0,0.0,0.0,0.0,0.0,-0.00016659597290659048,-2.4336258803311866e-05,3.057197408135078e-05,0.0,0.0,0.0,0.0,0.0,0.0,0.0,0.0,0.0,0.008307326738998342,0.6020430273960985,9.811182235382244,0.0,0.0,0.0,0.0,0.0,0.0,0.0,0.0,0.0
2025/05/25 18:15:56.86963611,1748189755,867572899,mA1/imu,0.1627718793578108,-0.9866633260988023,-0.0008520650257906425,-0.0002649663500722948,0.0,0.0,0.0,0.0,0.0,0.0,0.0,0.0,0.0,-0.0016338859704265742,-2.8720452780758612e-05,2.9758636162306853e-05,0.0,0.0,0.0,0.0,0.0,0.0,0.0,0.0,0.0,0.00834213002344656,0.5027995629744927,9.810622984399876,0.0,0.0,0.0,0.0,0.0,0.0,0.0,0.0,0.0
2025/05/25 18:15:56.87096940,1748189755,916591908,mA1/imu,0.16277115465643469,-0.986663445074489,-0.0008525102782420235,-0.00026569113115147307,0.0,0.0,0.0,0.0,0.0,0.0,0.0,0.0,0.0,9.408667037111583e-05,-3.28917219567552e-05,2.9047907496772e-05,0.0,0.0,0.0,0.0,0.0,0.0,0.0,0.0,0.0,0.007422333134911342,-0.6332182303280062,9.809293182990055,0.0,0.0,0.0,0.0,0.0,0.0,0.0,0.0,0.0
2025/05/25 18:15:56.87167269,1748189755,972514776,mA1/imu,0.16277044542590186,-0.9866635672987736,-0.0008458379013194092,-0.0002676179303627643,0.0,0.0,0.0,0.0,0.0,0.0,0.0,0.0,0.0,0.0015524086200354008,-3.387951491610478e-05,2.8400722395327018e-05,0.0,0.0,0.0,0.0,0.0,0.0,0.0,0.0,0.0,0.007382742822755346,-0.5339623293461173,9.808869316487803,0.0,0.0,0.0,0.0,0.0,0.0,0.0,0.0,0.0
2025/05/25 18:15:56.87227639,1748189756,26826313,mA1/imu,0.1627697558727183,-0.986663679283149,-0.0008477466255049266,-0.00026810862282810157,0.0,0.0,0.0,0.0,0.0,0.0,0.0,0.0,0.0,-0.00018086343419671414,-3.0346381870390812e-05,2.768961066405293e-05,0.0,0.0,0.0,0.0,0.0,0.0,0.0,0.0,0.0,0.008288743595124055,0.6020529041905188,9.811191851358592,0.0,0.0,0.0,0.0,0.0,0.0,0.0,0.0,0.0
2025/05/25 18:15:56.90755446,1748189756,81919653,mA1/imu,0.1627690853051345,-0.9866637822563442,-0.0008568399256751861,-0.00026735346857027277,0.0,0.0,0.0,0.0,0.0,0.0,0.0,0.0,0.0,-0.001640449070322921,-2.6950341957541535e-05,2.6960906398826972e-05,0.0,0.0,0.0,0.0,0.0,0.0,0.0,0.0,0.0,0.00832365871749523,0.5028081562693623,9.810622467796245,0.0,0.0,0.0,0.0,0.0,0.0,0.0,0.0,0.0
2025/05/25 18:15:56.123093366,1748189756,121658022,mA1/imu,0.16276842843743924,-0.9866638900530809,-0.0008573092624968401,-0.00026793685146757156,0.0,0.0,0.0,0.0,0.0,0.0,0.0,0.0,0.0,9.543461174927162e-05,-2.5208336067946705e-05,2.6341892188016585e-05,0.0,0.0,0.0,0.0,0.0,0.0,0.0,0.0,0.0,0.0074170854513397385,-0.6332137166388314,9.80929010625067,0.0,0.0,0.0,0.0,0.0,0.0,0.0,0.0,0.0
2025/05/25 18:15:56.176396775,1748189756,173224529,mA1/imu,0.1627677848144591,-0.9866640017257393,-0.0008504385031530103,-0.000269591350744557,0.0,0.0,0.0,0.0,0.0,0.0,0.0,0.0,0.0,0.0015614787643337302,-1.8959485989136564e-05,2.5788150626108298e-05,0.0,0.0,0.0,0.0,0.0,0.0,0.0,0.0,0.0,0.007361245945623426,-0.5339653084982573,9.808863506101,0.0,0.0,0.0,0.0,0.0,0.0,0.0,0.0,0.0
2025/05/25 18:15:56.228585813,1748189756,223318977,mA1/imu,0.1627671585150427,-0.9866641037306638,-0.0008519337827246131,-0.0002696796889526288,0.0,0.0,0.0,0.0,0.0,0.0,0.0,0.0,0.0,-0.00016428846414922113,-9.5359659700105e-06,2.5172558972679794e-05,0.0,0.0,0.0,0.0,0.0,0.0,0.0,0.0,0.0,0.008273036284440684,0.6020540181223069,9.811186976078128,0.0,0.0,0.0,0.0,0.0,0.0,0.0,0.0,0.0
2025/05/25 18:15:56.271119325,1748189756,266279430,mA1/imu,0.16276654860625908,-0.9866641973184396,-0.0008604248713891152,-0.00026842840082371073,0.0,0.0,0.0,0.0,0.0,0.0,0.0,0.0,0.0,-0.001617364814246598,-1.688209873948104e-06,2.4561313723138336e-05,0.0,0.0,0.0,0.0,0.0,0.0,0.0,0.0,0.0,0.00830865869131439,0.5028164493769934,9.810617947568328,0.0,0.0,0.0,0.0,0.0,0.0,0.0,0.0,0.0
2025/05/25 18:15:56.321309046,1748189756,319409715,mA1/imu,0.16276594963584587,-0.9866642963784626,-0.000860134543257258,-0.0002684393822602683,0.0,0.0,0.0,0.0,0.0,0.0,0.0,0.0,0.0,0.00012372991114480077,3.2971974952047506e-06,2.4065133032654995e-05,0.0,0.0,0.0,0.0,0.0,0.0,0.0,0.0,0.0,0.00742359271193551,-0.6332100154076116,9.80927938778423,0.0,0.0,0.0,0.0,0.0,0.0,0.0,0.0,0.0
2025/05/25 18:15:56.379604397,1748189756,374565990,mA1/imu,0.1627653612444305,-0.9866643998781764,-0.0008523852540839872,-0.00026950210878401746,0.0,0.0,0.0,0.0,0.0,0.0,0.0,0.0,0.0,0.0015937214686452769,1.035877097159449e-05,2.3609260545621946e-05,0.0,0.0,0.0,0.0,0.0,0.0,0.0,0.0,0.0,0.00736185153352862,-0.5339817371917673,9.808853247153458,0.0,0.0,0.0,0.0,0.0,0.0,0.0,0.0,0.0
2025/05/25 18:15:56.420487296,1748189756,414807580,mA1/imu,0.16276478756594553,-0.9866644941847421,-0.0008529237022013344,-0.00026900731917325416,0.0,0.0,0.0,0.0,0.0,0.0,0.0,0.0,0.0,-0.00012941770490348654,1.9430258114849043e-05,2.3087854037892904e-05,0.0,0.0,0.0,0.0,0.0,0.0,0.0,0.0,0.0,0.008279684521498415,0.6020467163848541,9.811169702119324,0.0,0.0,0.0,0.0,0.0,0.0,0.0,0.0,0.0
2025/05/25 18:15:56.470186163,1748189756,468111009,mA1/imu,0.16276422770271443,-0.986664580518409,-0.0008604209144583076,-0.00026722017287341646,0.0,0.0,0.0,0.0,0.0,0.0,0.0,0.0,0.0,-0.001581193189381377,2.4579190296760774e-05,2.258311336275964e-05,0.0,0.0,0.0,0.0,0.0,0.0,0.0,0.0,0.0,0.008350459387059158,0.502825889175219,9.81060366541453,0.0,0.0,0.0,0.0,0.0,0.0,0.0,0.0,0.0
2025/05/25 18:15:56.520039002,1748189756,519128810,mA1/imu,0.16276367646318993,-0.9866646727445665,-0.0008590661088719009,-0.00026680979086777666,0.0,0.0,0.0,0.0,0.0,0.0,0.0,0.0,0.0,0.00016687046287822133,2.511277751293116e-05,2.2179775806829178e-05,0.0,0.0,0.0,0.0,0.0,0.0,0.0,0.0,0.0,0.007447885659547116,-0.6327050363403338,9.809271935381364,0.0,0.0,0.0,0.0,0.0,0.0,0.0,0.0,0.0
2025/05/25 18:15:56.572764890,1748189756,570092363,mA1/imu,0.1627631338889387,-0.9866647696554426,-0.0008502772625053654,-0.0002675742902415062,0.0,0.0,0.0,0.0,0.0,0.0,0.0,0.0,0.0,0.001630343328838667,2.6463586117158467e-05,2.1784130365745143e-05,0.0,0.0,0.0,0.0,0.0,0.0,0.0,0.0,0.0,0.007396871631670561,-0.5337795314563821,9.808861645499254,0.0,0.0,0.0,0.0,0.0,0.0,0.0,0.0,0.0
2025/05/25 18:15:56.621818332,1748189756,620742638,mA1/imu,0.16276260444475604,-0.9866648574530198,-0.0008499490548721154,-0.0002669235394431291,0.0,0.0,0.0,0.0,0.0,0.0,0.0,0.0,0.0,-9.852566807737051e-05,2.844446584493712e-05,2.1312957343490044e-05,0.0,0.0,0.0,0.0,0.0,0.0,0.0,0.0,0.0,0.008310064681356776,0.6021237112712763,9.811135961022977,0.0,0.0,0.0,0.0,0.0,0.0,0.0,0.0,0.0
2025/05/25 18:15:56.673912654,1748189756,672232781,mA1/imu,0.16276208739479203,-0.9866649373470486,-0.0008567551356632626,-0.0002651178456764235,0.0,0.0,0.0,0.0,0.0,0.0,0.0,0.0,0.0,-0.0015566392951339137,2.7317033651849353e-05,2.086240833510912e-05,0.0,0.0,0.0,0.0,0.0,0.0,0.0,0.0,0.0,0.0083714071500618,0.5028502145814777,9.810582627523385,0.0,0.0,0.0,0.0,0.0,0.0,0.0,0.0,0.0
2025/05/25 18:15:56.723590124,1748189756,721953665,mA1/imu,0.1627615778147226,-0.986665023034333,-0.0008549783548870908,-0.00026480168759221716,0.0,0.0,0.0,0.0,0.0,0.0,0.0,0.0,0.0,0.00017713935661221102,2.181237061652e-05,2.050399379169493e-05,0.0,0.0,0.0,0.0,0.0,0.0,0.0,0.0,0.0,0.007461959278478364,-0.6332016859530731,9.809300430272696,0.0,0.0,0.0,0.0,0.0,0.0,0.0,0.0,0.0
2025/05/25 18:15:56.774308761,1748189756,773002644,mA1/imu,0.16276107594399317,-0.986665113262188,-0.000846050419656363,-0.00026575845175008856,0.0,0.0,0.0,0.0,0.0,0.0,0.0,0.0,0.0,0.0016280101786173193,1.770452693758074e-05,2.014213093988822e-05,0.0,0.0,0.0,0.0,0.0,0.0,0.0,0.0,0.0,0.007418869299976977,-0.5306665322668542,9.808885608724939,0.0,0.0,0.0,0.0,0.0,0.0,0.0,0.0,0.0
2025/05/25 18:15:56.824520855,1748189756,823189604,mA1/imu,0.16276058626975454,-0.9866651943339788,-0.0008458191289138485,-0.00026539973439656704,0.0,0.0,0.0,0.0,0.0,0.0,0.0,0.0,0.0,-0.0001010243046187503,1.4108311415104342e-05,1.9701141264236392e-05,0.0,0.0,0.0,0.0,0.0,0.0,0.0,0.0,0.0,0.008329397282506071,0.6017506964566026,9.811159104383336,0.0,0.0,0.0,0.0,0.0,0.0,0.0,0.0,0.0
2025/05/25 18:15:56.877798829,1748189756,875268507,mA1/imu,0.16276010819440634,-0.9866652675457728,-0.0008528151102739347,-0.0002640184863948211,0.0,0.0,0.0,0.0,0.0,0.0,0.0,0.0,0.0,-0.001563239963908176,7.167295097057313e-06,1.9277122075350203e-05,0.0,0.0,0.0,0.0,0.0,0.0,0.0,0.0,0.0,0.008386098396282186,0.5026851548030163,9.81061632292885,0.0,0.0,0.0,0.0,0.0,0.0,0.0,0.0,0.0
2025/05/25 18:15:56.917070296,1748189756,914994752,mA1/imu,0.1627596369336199,-0.9866653464801981,-0.0008513686265204998,-0.00026421924351199724,0.0,0.0,0.0,0.0,0.0,0.0,0.0,0.0,0.0,0.0001653047942358305,-2.1955723673491436e-06,1.8942739896943968e-05,0.0,0.0,0.0,0.0,0.0,0.0,0.0,0.0,0.0,0.007477513492120917,-0.6332725594583194,9.809296587545516,0.0,0.0,0.0,0.0,0.0,0.0,0.0,0.0,0.0
2025/05/25 18:15:56.967176039,1748189756,966077809,mA1/imu,0.16275917275547952,-0.9866654299378628,-0.0008428697701543494,-0.0002657443036220313,0.0,0.0,0.0,0.0,0.0,0.0,0.0,0.0,0.0,0.0016201961340245878,-8.312667359201344e-06,1.8605818244825322e-05,0.0,0.0,0.0,0.0,0.0,0.0,0.0,0.0,0.0,0.0074109599863616885,-0.5340247479923498,9.808871891135528,0.0,0.0,0.0,0.0,0.0,0.0,0.0,0.0,0.0
2025/05/25 18:15:57.17052173,1748189757,15966593,mA1/imu,0.16275872016207196,-0.9866655043357165,-0.0008431056037052643,-0.0002659663354830841,0.0,0.0,0.0,0.0,0.0,0.0,0.0,0.0,0.0,-0.00011942897204181912,-1.1803243647070015e-05,1.8192184641000936e-05,0.0,0.0,0.0,0.0,0.0,0.0,0.0,0.0,0.0,0.008328893379790139,0.6020112294219937,9.811193074646914,0.0,0.0,0.0,0.0,0.0,0.0,0.0,0.0,0.0
2025/05/25 18:15:57.69385120,1748189757,67386188,mA1/imu,0.1627582786028883,-0.986665570835342,-0.000850760100068042,-0.00026510685651727223,0.0,0.0,0.0,0.0,0.0,0.0,0.0,0.0,0.0,-0.0015882370879146672,-1.7078447911712774e-05,1.779230641799249e-05,0.0,0.0,0.0,0.0,0.0,0.0,0.0,0.0,0.0,0.008379823947091757,0.5027851932085295,9.810628863640055,0.0,0.0,0.0,0.0,0.0,0.0,0.0,0.0,0.0
2025/05/25 18:15:57.118233093,1748189757,117473317,mA1/imu,0.16275784326691214,-0.9866656430518357,-0.0008500908456296306,-0.00026574755904411763,0.0,0.0,0.0,0.0,0.0,0.0,0.0,0.0,0.0,0.0001358902942719801,-2.33744764657173e-05,1.748310873586757e-05,0.0,0.0,0.0,0.0,0.0,0.0,0.0,0.0,0.0,0.007467655633751969,-0.6332412576974662,9.809292047033873,0.0,0.0,0.0,0.0,0.0,0.0,0.0,0.0,0.0
2025/05/25 18:15:57.169601578,1748189757,168924874,mA1/imu,0.162757414361021,-0.9866657198677963,-0.0008424318168625675,-0.0002676133634782291,0.0,0.0,0.0,0.0,0.0,0.0,0.0,0.0,0.0,0.0015884111447075754,-2.5467145413237836e-05,1.717962627071631e-05,0.0,0.0,0.0,0.0,0.0,0.0,0.0,0.0,0.0,0.007385370088918186,-0.5340058948409958,9.808864804328104,0.0,0.0,0.0,0.0,0.0,0.0,0.0,0.0,0.0
2025/05/25 18:15:57.220673224,1748189757,218909355,mA1/imu,0.16275699639279045,-0.9866657877624666,-0.000843521855761671,-0.0002680581042273926,0.0,0.0,0.0,0.0,0.0,0.0,0.0,0.0,0.0,-0.00015184042919093955,-2.4196791027715305e-05,1.680001243952542e-05,0.0,0.0,0.0,0.0,0.0,0.0,0.0,0.0,0.0,0.008307307700833424,0.6020241243062223,9.811191614068116,0.0,0.0,0.0,0.0,0.0,0.0,0.0,0.0,0.0
2025/05/25 18:15:57.275614185,1748189757,273969831,mA1/imu,0.1627565888245236,-0.9866658479347385,-0.0008519795983555188,-0.0002672904652656616,0.0,0.0,0.0,0.0,0.0,0.0,0.0,0.0,0.0,-0.0016153226626831841,-2.3438133536799848e-05,1.6428989591449525e-05,0.0,0.0,0.0,0.0,0.0,0.0,0.0,0.0,0.0,0.008335250836778652,0.5012517546257382,9.810630721530908,0.0,0.0,0.0,0.0,0.0,0.0,0.0,0.0,0.0
2025/05/25 18:15:57.325548362,1748189757,322883481,mA1/imu,0.162756186779834,-0.9866659140731043,-0.0008520037722199918,-0.000267881961961851,0.0,0.0,0.0,0.0,0.0,0.0,0.0,0.0,0.0,0.00010835046676340682,-2.3287577529116363e-05,1.6148701259025948e-05,0.0,0.0,0.0,0.0,0.0,0.0,0.0,0.0,0.0,0.007427835080013578,-0.6331146327758774,9.809289429737206,0.0,0.0,0.0,0.0,0.0,0.0,0.0,0.0,0.0
2025/05/25 18:15:57.365612615,1748189757,364510861,mA1/imu,0.16275567578575698,-0.9866660039035358,-0.0008449796723609498,-0.0002697218986538485,0.0,0.0,0.0,0.0,0.0,0.0,0.0,0.0,0.0,0.0015686221534003588,-4.2315533153532354e-05,3.911942116298249e-05,0.0,0.0,0.0,0.0,0.0,0.0,0.0,0.0,0.0,0.009078006132816955,-0.530516389789134,9.808848759551834,0.0,0.0,0.0,0.0,0.0,0.0,0.0,0.0,0.0
2025/05/25 18:15:57.415694069,1748189757,414402303,mA1/imu,0.16275302037087433,-0.9866664403350752,-0.00084631292648101,-0.00027135051094814334,0.0,0.0,0.0,0.0,0.0,0.0,0.0,0.0,0.0,-0.00014093698097601158,-9.197150313751957e-05,0.00015270298475996043,0.0,0.0,0.0,0.0,0.0,0.0,0.0,0.0,0.0,0.009947669094717712,0.6052129510997963,9.811153327716564,0.0,0.0,0.0,0.0,0.0,0.0,0.0,0.0,0.0
2025/05/25 18:15:57.467448687,1748189757,465354523,mA1/imu,0.16274762612468316,-0.9866673228480454,-0.0008541843667476212,-0.0002731001997313319,0.0,0.0,0.0,0.0,0.0,0.0,0.0,0.0,0.0,-0.0015188803338187235,-0.00013224808444721483,0.0002621896206239415,0.0,0.0,0.0,0.0,0.0,0.0,0.0,0.0,0.0,0.009172175771201673,0.48408036220624995,9.810625667237124,0.0,0.0,0.0,0.0,0.0,0.0,0.0,0.0,0.0
2025/05/25 18:15:57.516367088,1748189757,515213715,mA1/imu,0.1627404731595356,-0.9866685024011906,-0.0008527786705812009,-0.00027844881272224203,0.0,0.0,0.0,0.0,0.0,0.0,0.0,0.0,0.0,0.00019141526641804874,-0.0002668521619470981,0.0002952586326960513,0.0,0.0,0.0,0.0,0.0,0.0,0.0,0.0,0.0,0.013087565960859025,-0.6301856658272746,9.809321927309059,0.0,0.0,0.0,0.0,0.0,0.0,0.0,0.0,0.0
2025/05/25 18:15:57.567182779,1748189757,566166776,mA1/imu,0.16273295747832855,-0.9866697457113754,-0.0008450845875362074,-0.000288583170669198,0.0,0.0,0.0,0.0,0.0,0.0,0.0,0.0,0.0,0.0016450533208232068,-0.0004034091753917911,0.000310195116354922,0.0,0.0,0.0,0.0,0.0,0.0,0.0,0.0,0.0,0.01275701749485572,-0.5317868216273971,9.808881591685198,0.0,0.0,0.0,0.0,0.0,0.0,0.0,0.0,0.0
2025/05/25 18:15:57.616940378,1748189757,616006753,mA1/imu,0.1627250718874691,-0.9866710420432736,-0.0008463641256863687,-0.00029906558711384446,0.0,0.0,0.0,0.0,0.0,0.0,0.0,0.0,0.0,-9.1916397432793e-05,-0.00041529926093034406,0.0003255568711620297,0.0,0.0,0.0,0.0,0.0,0.0,0.0,0.0,0.0,0.010225418016035616,0.603714247787631,9.811030541704827,0.0,0.0,0.0,0.0,0.0,0.0,0.0,0.0,0.0
2025/05/25 18:15:57.668143540,1748189757,667157186,mA1/imu,0.1627168046218498,-0.986672395533763,-0.0008548327093385935,-0.0003076464845828868,0.0,0.0,0.0,0.0,0.0,0.0,0.0,0.0,0.0,-0.0015580928563972546,-0.00037088659011458823,0.0003411277069812138,0.0,0.0,0.0,0.0,0.0,0.0,0.0,0.0,0.0,0.009164332831550688,0.5039829702213304,9.810575867277986,0.0,0.0,0.0,0.0,0.0,0.0,0.0,0.0,0.0
2025/05/25 18:15:57.718438056,1748189757,717192243,mA1/imu,0.1627081534740083,-0.9866738198570844,-0.0008545603225861403,-0.0003157979789780921,0.0,0.0,0.0,0.0,0.0,0.0,0.0,0.0,0.0,0.00017019079186342232,-0.0002838055683427578,0.0003566071643366866,0.0,0.0,0.0,0.0,0.0,0.0,0.0,0.0,0.0,0.008152786453555275,-0.632051955831554,9.809444357612712,0.0,0.0,0.0,0.0,0.0,0.0,0.0,0.0,0.0
2025/05/25 18:15:57.775187574,1748189757,768173675,mA1/imu,0.16269911432141781,-0.986675314917403,-0.0008468015638348077,-0.00032258143356896085,0.0,0.0,0.0,0.0,0.0,0.0,0.0,0.0,0.0,0.0016261280473931574,-0.00017126537183138698,0.00037248335999558017,0.0,0.0,0.0,0.0,0.0,0.0,0.0,0.0,0.0,0.007514467284111762,-0.5326280796289321,9.808916009887717,0.0,0.0,0.0,0.0,0.0,0.0,0.0,0.0,0.0
2025/05/25 18:15:57.820802475,1748189757,819832305,mA1/imu,0.16268969377841153,-0.9866768671773828,-0.0008472534715270232,-0.000324772023265655,0.0,0.0,0.0,0.0,0.0,0.0,0.0,0.0,0.0,-0.00011498444999174465,-3.419274959608566e-05,0.00038818641707967673,0.0,0.0,0.0,0.0,0.0,0.0,0.0,0.0,0.0,0.008352785383380421,0.6032618747713628,9.811059356044693,0.0,0.0,0.0,0.0,0.0,0.0,0.0,0.0,0.0
2025/05/25 18:15:57.874148887,1748189757,871708871,mA1/imu,0.16267988167906192,-0.9866784794772745,-0.0008545792456147207,-0.0003223780590827839,0.0,0.0,0.0,0.0,0.0,0.0,0.0,0.0,0.0,-0.0015866353837358223,0.00010335148374911252,0.00040463691266396203,0.0,0.0,0.0,0.0,0.0,0.0,0.0,0.0,0.0,0.008236707292690623,0.5037393529163042,9.810611946331822,0.0,0.0,0.0,0.0,0.0,0.0,0.0,0.0,0.0
2025/05/25 18:15:57.922556013,1748189757,921640128,mA1/imu,0.1626696453965493,-0.9866801699078077,-0.0008530387913508955,-0.00031796553447081935,0.0,0.0,0.0,0.0,0.0,0.0,0.0,0.0,0.0,0.00013647310642165815,0.0002359113132076377,0.00042212731893477535,0.0,0.0,0.0,0.0,0.0,0.0,0.0,0.0,0.0,0.0072891520790496715,-0.632219523800852,9.809420575764616,0.0,0.0,0.0,0.0,0.0,0.0,0.0,0.0,0.0
2025/05/25 18:15:57.974621809,1748189757,972993862,mA1/imu,0.1626589696722915,-0.9866819397086644,-0.0008440228612791058,-0.00031154984496253835,0.0,0.0,0.0,0.0,0.0,0.0,0.0,0.0,0.0,0.0015883728981798113,0.00035717389886143886,0.0004402471892031107,0.0,0.0,0.0,0.0,0.0,0.0,0.0,0.0,0.0,0.0072267492524121235,-0.5328564801721264,9.808884856902356,0.0,0.0,0.0,0.0,0.0,0.0,0.0,0.0,0.0
2025/05/25 18:15:58.24024679,1748189758,22927986,mA1/imu,0.16264785997854364,-0.9866837749756489,-0.000843364761293468,-0.0003009652515639981,0.0,0.0,0.0,0.0,0.0,0.0,0.0,0.0,0.0,-0.00015505339254052178,0.00046208836072872926,0.00045789814652078567,0.0,0.0,0.0,0.0,0.0,0.0,0.0,0.0,0.0,0.008034709077841633,0.6030745859459872,9.81107470216337,0.0,0.0,0.0,0.0,0.0,0.0,0.0,0.0,0.0
2025/05/25 18:15:58.75563825,1748189758,74057492,mA1/imu,0.1626363110880678,-0.9866856772680792,-0.0008498187441697512,-0.000287050168816166,0.0,0.0,0.0,0.0,0.0,0.0,0.0,0.0,0.0,-0.001627178746524916,0.0005345377070714827,0.0004761732819762117,0.0,0.0,0.0,0.0,0.0,0.0,0.0,0.0,0.0,0.008393116238756465,0.5036469107074184,9.810618058115628,0.0,0.0,0.0,0.0,0.0,0.0,0.0,0.0,0.0
2025/05/25 18:15:58.124847263,1748189758,123838743,mA1/imu,0.1626242934269828,-0.9866876638146113,-0.000847729245024536,-0.0002731639916531645,0.0,0.0,0.0,0.0,0.0,0.0,0.0,0.0,0.0,9.722163558124204e-05,0.000574337863231393,0.0004952945199075604,0.0,0.0,0.0,0.0,0.0,0.0,0.0,0.0,0.0,0.007458737193809408,-0.6323188660622618,9.809372807228824,0.0,0.0,0.0,0.0,0.0,0.0,0.0,0.0,0.0
2025/05/25 18:15:58.167258981,1748189758,164749840,mA1/imu,0.1626118888678767,-0.9866897196873426,-0.0008385421428996947,-0.0002598253434933428,0.0,0.0,0.0,0.0,0.0,0.0,0.0,0.0,0.0,0.001548394550583928,0.0005916678969000079,0.0004963135160963217,0.0,0.0,0.0,0.0,0.0,0.0,0.0,0.0,0.0,0.006259215991162402,-0.5353543566208351,9.80887731264681,0.0,0.0,0.0,0.0,0.0,0.0,0.0,0.0,0.0
2025/05/25 18:15:58.216799465,1748189758,215431450,mA1/imu,0.16260110176108436,-0.986691501288275,-0.0008384721840141609,-0.000244859077968015,0.0,0.0,0.0,0.0,0.0,0.0,0.0,0.0,0.0,-0.0002156953367063693,0.000581590618749231,0.00039454030143291154,0.0,0.0,0.0,0.0,0.0,0.0,0.0,0.0,0.0,0.008231449553806752,0.5997678254618664,9.81112156802926,0.0,0.0,0.0,0.0,0.0,0.0,0.0,0.0,0.0
2025/05/25 18:15:58.267265589,1748189758,266368861,mA1/imu,0.1625929692797308,-0.9866928382314744,-0.0008465339185286214,-0.00022957317538415596,0.0,0.0,0.0,0.0,0.0,0.0,0.0,0.0,0.0,-0.0017070552651058367,0.00052819563854444,0.0002879372403371004,0.0,0.0,0.0,0.0,0.0,0.0,0.0,0.0,0.0,0.008584599278037527,0.5005494780318858,9.81056653284193,0.0,0.0,0.0,0.0,0.0,0.0,0.0,0.0,0.0
2025/05/25 18:15:58.317941731,1748189758,316686928,mA1/imu,0.1625874153754073,-0.9866937558190806,-0.0008469751909051758,-0.0002173067120230568,0.0,0.0,0.0,0.0,0.0,0.0,0.0,0.0,0.0,2.267415528270915e-06,0.00044596509737562486,0.00018423281469587957,0.0,0.0,0.0,0.0,0.0,0.0,0.0,0.0,0.0,0.007619851011093884,-0.635321137115194,9.809314213014886,0.0,0.0,0.0,0.0,0.0,0.0,0.0,0.0,0.0
2025/05/25 18:15:58.369779169,1748189758,368113736,mA1/imu,0.1625843624435705,-0.9866942658396552,-0.0008410727145269236,-0.00020843380339195794,0.0,0.0,0.0,0.0,0.0,0.0,0.0,0.0,0.0,0.001447314132027173,0.0003458063738565496,8.438638106536767e-05,0.0,0.0,0.0,0.0,0.0,0.0,0.0,0.0,0.0,0.007404955517794668,-0.5357229212275108,9.808889775542225,0.0,0.0,0.0,0.0,0.0,0.0,0.0,0.0,0.0
2025/05/25 18:15:58.420454071,1748189758,418673611,mA1/imu,0.16258622353327262,-0.9866939564827848,-0.0008454696606424968,-0.0002033189369201186,0.0,0.0,0.0,0.0,0.0,0.0,0.0,0.0,0.0,-0.00033381215574704575,5.7909660455600736e-05,-0.00018011801335390034,0.0,0.0,0.0,0.0,0.0,0.0,0.0,0.0,0.0,0.011827892718144816,0.5976734978906038,9.811102985671527,0.0,0.0,0.0,0.0,0.0,0.0,0.0,0.0,0.0
2025/05/25 18:15:58.471920734,1748189758,470306973,mA1/imu,0.162591991913163,-0.986692995318841,-0.0008582767032750019,-0.00020128473366568472,0.0,0.0,0.0,0.0,0.0,0.0,0.0,0.0,0.0,-0.001796060113942137,-4.1855643859407696e-05,-0.0002691148829110334,0.0,0.0,0.0,0.0,0.0,0.0,0.0,0.0,0.0,0.008194452232601476,0.5011476810896041,9.810513849226462,0.0,0.0,0.0,0.0,0.0,0.0,0.0,0.0,0.0
2025/05/25 18:15:58.523244270,1748189758,522107503,mA1/imu,0.1625988687684558,-0.9866918580100132,-0.0008625293299012375,-0.00020311356723209413,0.0,0.0,0.0,0.0,0.0,0.0,0.0,0.0,0.0,-3.493388367001884e-05,-0.0001265587533683293,-0.0002813513706025271,0.0,0.0,0.0,0.0,0.0,0.0,0.0,0.0,0.0,0.005632759599854362,-0.6332542577390603,9.809385090404016,0.0,0.0,0.0,0.0,0.0,0.0,0.0,0.0,0.0
2025/05/25 18:15:58.576088477,1748189758,573158235,mA1/imu,0.16260707639183913,-0.9866905071802268,-0.0008592977369444437,-0.00020821893492702017,0.0,0.0,0.0,0.0,0.0,0.0,0.0,0.0,0.0,0.0014475194966048182,-0.00022225493280595993,-0.00036723280692425804,0.0,0.0,0.0,0.0,0.0,0.0,0.0,0.0,0.0,0.008245373693243761,-0.5354776429412497,9.808949559343262,0.0,0.0,0.0,0.0,0.0,0.0,0.0,0.0,0.0
2025/05/25 18:15:58.625601434,1748189758,623394468,mA1/imu,0.16261502876594663,-0.9866891915468028,-0.0008638901580428734,-0.00021306797438197257,0.0,0.0,0.0,0.0,0.0,0.0,0.0,0.0,0.0,-0.00023352316385417545,-0.00012137707378052778,-0.00021769903949139056,0.0,0.0,0.0,0.0,0.0,0.0,0.0,0.0,0.0,-0.006390769769092052,0.6045317705602088,9.811099438880357,0.0,0.0,0.0,0.0,0.0,0.0,0.0,0.0,0.0
2025/05/25 18:15:58.665953390,1748189758,665059786,mA1/imu,0.1626185190646346,-0.9866886075096968,-0.0008736124059216446,-0.00021417087724068387,0.0,0.0,0.0,0.0,0.0,0.0,0.0,0.0,0.0,-0.0016266787232447754,-0.0001005733268037208,-9.46146475686828e-05,0.0,0.0,0.0,0.0,0.0,0.0,0.0,0.0,0.0,0.005411050488640208,0.5052879075931294,9.810567843392656,0.0,0.0,0.0,0.0,0.0,0.0,0.0,0.0,0.0
2025/05/25 18:15:58.719014303,1748189758,717879672,mA1/imu,0.16261604801792573,-0.9866890170372028,-0.0008715783840915762,-0.0002119818641828895,0.0,0.0,0.0,0.0,0.0,0.0,0.0,0.0,0.0,0.00022764021593214826,0.0002962238574858371,0.00027045672088234256,0.0,0.0,0.0,0.0,0.0,0.0,0.0,0.0,0.0,-0.010841506596162584,-0.6232308244502569,9.809414926452614,0.0,0.0,0.0,0.0,0.0,0.0,0.0,0.0,0.0
2025/05/25 18:15:58.771465649,1748189758,769559363,mA1/imu,0.16260782612506186,-0.9866903838030082,-0.0008593267333885362,-0.00020724651836964375,0.0,0.0,0.0,0.0,0.0,0.0,0.0,0.0,0.0,0.0017568928997033757,0.00024126268033744858,0.0003749247649145739,0.0,0.0,0.0,0.0,0.0,0.0,0.0,0.0,0.0,0.005761027233215184,-0.5317585024275219,9.808924313859748,0.0,0.0,0.0,0.0,0.0,0.0,0.0,0.0,0.0
2025/05/25 18:15:58.820454247,1748189758,819570907,mA1/imu,0.1625989969997094,-0.9866918437609646,-0.0008547478315025057,-0.00020257448347756749,0.0,0.0,0.0,0.0,0.0,0.0,0.0,0.0,0.0,5.056206342540731e-05,0.0001946195826343182,0.00033950493452128503,0.0,0.0,0.0,0.0,0.0,0.0,0.0,0.0,0.0,0.006179275137688955,0.6013982708348793,9.81109428721366,0.0,0.0,0.0,0.0,0.0,0.0,0.0,0.0,0.0
2025/05/25 18:15:58.871497857,1748189758,870515380,mA1/imu,0.16259078449256398,-0.9866931959413473,-0.0008570776600621049,-0.0001982398225511447,0.0,0.0,0.0,0.0,0.0,0.0,0.0,0.0,0.0,-0.0013907631479524805,0.00012997836243176957,0.00032878458827634435,0.0,0.0,0.0,0.0,0.0,0.0,0.0,0.0,0.0,0.006322247596738283,0.5022826067993601,9.810554851653205,0.0,0.0,0.0,0.0,0.0,0.0,0.0,0.0,0.0
2025/05/25 18:15:58.922842613,1748189758,920425907,mA1/imu,0.162574081589866,-0.986695958701735,-0.000847881682681258,-0.00018486083403450537,0.0,0.0,0.0,0.0,0.0,0.0,0.0,0.0,0.0,0.0004206901904225809,0.0010479436217846387,0.00102706951809167,0.0,0.0,0.0,0.0,0.0,0.0,0.0,0.0,0.0,-0.033763339821601464,-0.6236888410136701,9.809322158668301,0.0,0.0,0.0,0.0,0.0,0.0,0.0,0.0,0.0
2025/05/25 18:15:58.972277101,1748189758,971410408,mA1/imu,0.1625492096275788,-0.9867000759418415,-0.0008291964781315406,-0.0001643746151008635,0.0,0.0,0.0,0.0,0.0,0.0,0.0,0.0,0.0,0.0018802065340101967,0.0008413981571379834,0.0009970387452550072,0.0,0.0,0.0,0.0,0.0,0.0,0.0,0.0,0.0,0.00732611407716871,-0.5349928411506486,9.808934448912058,0.0,0.0,0.0,0.0,0.0,0.0,0.0,0.0,0.0
2025/05/25 18:15:59.21980994,1748189759,21269934,mA1/imu,0.1625239721920083,-0.9867042432004998,-0.0008202062568705585,-0.000148911908005038,0.0,0.0,0.0,0.0,0.0,0.0,0.0,0.0,0.0,0.0001473945699345074,0.0005466008105315519,0.0010566108495675285,0.0,0.0,0.0,0.0,0.0,0.0,0.0,0.0,0.0,0.00967982583825952,0.6041671164091985,9.811092745078657,0.0,0.0,0.0,0.0,0.0,0.0,0.0,0.0,0.0
2025/05/25 18:15:59.74555283,1748189759,72406237,mA1/imu,0.1624984608036947,-0.9867084463748701,-0.000820085703765038,-0.00013981544490611293,0.0,0.0,0.0,0.0,0.0,0.0,0.0,0.0,0.0,-0.001344813043429131,0.00022018930761313335,0.0010114478147438743,0.0,0.0,0.0,0.0,0.0,0.0,0.0,0.0,0.0,0.012256400180374518,0.5027316536626029,9.810565353891148,0.0,0.0,0.0,0.0,0.0,0.0,0.0,0.0,0.0
2025/05/25 18:15:59.125616539,1748189759,122160209,mA1/imu,0.16247473119441427,-0.9867123590867903,-0.0008137673125179856,-0.00014117876905444358,0.0,0.0,0.0,0.0,0.0,0.0,0.0,0.0,0.0,0.0003499349833165682,-0.0001493793342623879,0.000942042513638245,0.0,0.0,0.0,0.0,0.0,0.0,0.0,0.0,0.0,0.008284544310233205,-0.6341479939087176,9.80935397714554,0.0,0.0,0.0,0.0,0.0,0.0,0.0,0.0,0.0
2025/05/25 18:15:59.174574529,1748189759,173229948,mA1/imu,0.16245191066476275,-0.9867161240860898,-0.0008026961059083394,-0.0001512245152347701,0.0,0.0,0.0,0.0,0.0,0.0,0.0,0.0,0.0,0.0017585718578184712,-0.00043988288360190735,0.0009136348098264624,0.0,0.0,0.0,0.0,0.0,0.0,0.0,0.0,0.0,0.007865099932688097,-0.534735971216393,9.808906119528539,0.0,0.0,0.0,0.0,0.0,0.0,0.0,0.0,0.0
2025/05/25 18:15:59.225052205,1748189759,223083856,mA1/imu,0.16242748589250103,-0.9867201437512134,-0.0008020449934572805,-0.00016268391051914925,0.0,0.0,0.0,0.0,0.0,0.0,0.0,0.0,0.0,-3.0971731685644946e-05,-0.00046869166791510915,0.0010300935832916257,0.0,0.0,0.0,0.0,0.0,0.0,0.0,0.0,0.0,0.006253908519489262,0.6015263456884279,9.811127105226605,0.0,0.0,0.0,0.0,0.0,0.0,0.0,0.0,0.0
2025/05/25 18:15:59.275736122,1748189759,274318087,mA1/imu,0.16240249836289616,-0.9867242471559834,-0.0008107703182088538,-0.00017678076456516741,0.0,0.0,0.0,0.0,0.0,0.0,0.0,0.0,0.0,-0.0015559245637787444,-0.0007029820867299357,0.0010009600823065847,0.0,0.0,0.0,0.0,0.0,0.0,0.0,0.0,0.0,0.008636261823743656,0.5019897344929852,9.810569607978772,0.0,0.0,0.0,0.0,0.0,0.0,0.0,0.0,0.0
2025/05/25 18:15:59.316693529,1748189759,314654702,mA1/imu,0.1623782150569457,-0.9867282375789992,-0.000813366003151089,-0.00019716720630440156,0.0,0.0,0.0,0.0,0.0,0.0,0.0,0.0,0.0,0.0001132710181244038,-0.0008946786238630568,0.0009723984472891515,0.0,0.0,0.0,0.0,0.0,0.0,0.0,0.0,0.0,0.007641784149161984,-0.6339435543483032,9.809318090265926,0.0,0.0,0.0,0.0,0.0,0.0,0.0,0.0,0.0
2025/05/25 18:15:59.368543160,1748189759,366063711,mA1/imu,0.16235460508885502,-0.9867321192722255,-0.0008109254129919678,-0.0002222677638200976,0.0,0.0,0.0,0.0,0.0,0.0,0.0,0.0,0.0,0.0015132094002170023,-0.0010229106031485276,0.0009456196671574042,0.0,0.0,0.0,0.0,0.0,0.0,0.0,0.0,0.0,0.007160028745511092,-0.5345476585013756,9.808884834831781,0.0,0.0,0.0,0.0,0.0,0.0,0.0,0.0,0.0
2025/05/25 18:15:59.418845999,1748189759,416190389,mA1/imu,0.16233408013740652,-0.9867354824477743,-0.0008194172078684399,-0.00025031967502168236,0.0,0.0,0.0,0.0,0.0,0.0,0.0,0.0,0.0,-0.00028734951398449494,-0.0012324985081587389,0.0007654431527009824,0.0,0.0,0.0,0.0,0.0,0.0,0.0,0.0,0.0,0.009215729119179013,0.6009849300574849,9.81113117850329,0.0,0.0,0.0,0.0,0.0,0.0,0.0,0.0,0.0
2025/05/25 18:15:59.467746827,1748189759,467040781,mA1/imu,0.16231549637293818,-0.9867385174628573,-0.0008367747066215991,-0.0002785686612989312,0.0,0.0,0.0,0.0,0.0,0.0,0.0,0.0,0.0,-0.0017981422646241871,-0.0012140838595137776,0.0007439338448499966,0.0,0.0,0.0,0.0,0.0,0.0,0.0,0.0,0.0,0.007360692736563777,0.5022509058676361,9.810560717401474,0.0,0.0,0.0,0.0,0.0,0.0,0.0,0.0,0.0
2025/05/25 18:15:59.518560127,1748189759,517068518,mA1/imu,0.16229742479764375,-0.986741473485933,-0.0008464078550414486,-0.00030659518248354954,0.0,0.0,0.0,0.0,0.0,0.0,0.0,0.0,0.0,-0.00010414357607675208,-0.0011302273537467065,0.0007234877462784775,0.0,0.0,0.0,0.0,0.0,0.0,0.0,0.0,0.0,0.006377979674701996,-0.6337539405597488,9.809302736130853,0.0,0.0,0.0,0.0,0.0,0.0,0.0,0.0,0.0
2025/05/25 18:15:59.569286233,1748189759,568229964,mA1/imu,0.1622798399034456,-0.9867443549356705,-0.0008491019177340294,-0.00033254989483942935,0.0,0.0,0.0,0.0,0.0,0.0,0.0,0.0,0.0,0.0013305803773977225,-0.0009782432930149922,0.0007042290670698547,0.0,0.0,0.0,0.0,0.0,0.0,0.0,0.0,0.0,0.006051934435543452,-0.5343638054132399,9.80888853104237,0.0,0.0,0.0,0.0,0.0,0.0,0.0,0.0,0.0
2025/05/25 18:15:59.619277321,1748189759,618030447,mA1/imu,0.16226273677358502,-0.9867471511222657,-0.0008600880504053047,-0.0003524987723652844,0.0,0.0,0.0,0.0,0.0,0.0,0.0,0.0,0.0,-0.00041724003800060086,-0.0007736050670629082,0.0006851042319604494,0.0,0.0,0.0,0.0,0.0,0.0,0.0,0.0,0.0,0.006960319544033925,0.6016115340139802,9.811138669620474,0.0,0.0,0.0,0.0,0.0,0.0,0.0,0.0,0.0
2025/05/25 18:15:59.672916005,1748189759,670756760,mA1/imu,0.16224611416801282,-0.9867498643039017,-0.0008775250373283903,-0.00036562743428612766,0.0,0.0,0.0,0.0,0.0,0.0,0.0,0.0,0.0,-0.0018799534092395077,-0.000531849558198104,0.0006658316941320767,0.0,0.0,0.0,0.0,0.0,0.0,0.0,0.0,0.0,0.0069920697291412405,0.5022605336100499,9.810579391966993,0.0,0.0,0.0,0.0,0.0,0.0,0.0,0.0,0.0
2025/05/25 18:15:59.723766481,1748189759,722203841,mA1/imu,0.16222996113525082,-0.9867525101580209,-0.0008852201070947577,-0.0003738880338144133,0.0,0.0,0.0,0.0,0.0,0.0,0.0,0.0,0.0,-0.00013580060316417203,-0.0002709859263211944,0.0006470008081629733,0.0,0.0,0.0,0.0,0.0,0.0,0.0,0.0,0.0,0.006165450759383212,-0.6337515548160735,9.80932653655934,0.0,0.0,0.0,0.0,0.0,0.0,0.0,0.0,0.0
2025/05/25 18:15:59.769606265,1748189759,766584675,mA1/imu,0.1622142658721984,-0.9867550903223192,-0.0008841477831108735,-0.0003767668147403667,0.0,0.0,0.0,0.0,0.0,0.0,0.0,0.0,0.0,0.001349615209508038,-3.401272474657116e-07,0.0006288449905845738,0.0,0.0,0.0,0.0,0.0,0.0,0.0,0.0,0.0,0.006107171619027671,-0.5342847008395324,9.80890597242336,0.0,0.0,0.0,0.0,0.0,0.0,0.0,0.0,0.0
2025/05/25 18:15:59.822412116,1748189759,819906585,mA1/imu,0.16219893080023923,-0.9867576087840242,-0.0008895802887072306,-0.00037013646684089425,0.0,0.0,0.0,0.0,0.0,0.0,0.0,0.0,0.0,-0.00035606503343920494,0.00043775237436311925,0.0006238031847825447,0.0,0.0,0.0,0.0,0.0,0.0,0.0,0.0,0.0,-0.003434687395346024,0.5990794166254789,9.811109708908605,0.0,0.0,0.0,0.0,0.0,0.0,0.0,0.0,0.0
2025/05/25 18:15:59.874449299,1748189759,873516279,mA1/imu,0.16218375240303978,-0.9867601011568301,-0.0008996533358325774,-0.00035191661959619913,0.0,0.0,0.0,0.0,0.0,0.0,0.0,0.0,0.0,-0.001774643374062076,0.0008092887497478427,0.0006091023562936818,0.0,0.0,0.0,0.0,0.0,0.0,0.0,0.0,0.0,-0.0008181970983202561,0.502565608428677,9.810580655830076,0.0,0.0,0.0,0.0,0.0,0.0,0.0,0.0,0.0
2025/05/25 18:15:59.917767887,1748189759,914348312,mA1/imu,0.1621607009581493,-0.9867639063904761,-0.0008961684062075981,-0.00031143531785632404,0.0,0.0,0.0,0.0,0.0,0.0,0.0,0.0,0.0,1.5400048455709989e-06,0.002214485488870596,0.001201330786862221,0.0,0.0,0.0,0.0,0.0,0.0,0.0,0.0,0.0,-0.028937143459749716,-0.6338269159596557,9.80926147392691,0.0,0.0,0.0,0.0,0.0,0.0,0.0,0.0,0.0
2025/05/25 18:15:59.970499292,1748189759,969614540,mA1/imu,0.16212885379142047,-0.9867691714867509,-0.000880242029019999,-0.00024929019584623397,0.0,0.0,0.0,0.0,0.0,0.0,0.0,0.0,0.0,0.0015293730811761063,0.00265322150375918,0.0012921962758965357,0.0,0.0,0.0,0.0,0.0,0.0,0.0,0.0,0.0,0.00098691094128542,-0.5338441634927872,9.808950053863763,0.0,0.0,0.0,0.0,0.0,0.0,0.0,0.0,0.0
2025/05/25 18:16:00.20764252,1748189760,19439734,mA1/imu,0.16211826599281645,-0.9867709227190916,-0.0008764197919087182,-0.00021399986748166602,0.0,0.0,0.0,0.0,0.0,0.0,0.0,0.0,0.0,-0.00017683854383812497,0.00016923764876118587,-0.0004241690656404842,0.0,0.0,0.0,0.0,0.0,0.0,0.0,0.0,0.0,0.10325254490027032,0.59703352314639,9.81137409591323,0.0,0.0,0.0,0.0,0.0,0.0,0.0,0.0,0.0
2025/05/25 18:16:00.73484049,1748189760,70818776,mA1/imu,0.16212853895804766,-0.9867692298685465,-0.0008839910073479356,-0.00020591227029017313,0.0,0.0,0.0,0.0,0.0,0.0,0.0,0.0,0.0,-0.0016153495194670096,0.00033555101210653877,-0.00041082867190981947,0.0,0.0,0.0,0.0,0.0,0.0,0.0,0.0,0.0,0.0005039067625748151,0.500001606961456,9.81056017341188,0.0,0.0,0.0,0.0,0.0,0.0,0.0,0.0,0.0
2025/05/25 18:16:00.121827906,1748189760,120832516,mA1/imu,0.16213932179663937,-0.9867674630096199,-0.0008809096626869086,-0.0001956298812461921,0.0,0.0,0.0,0.0,0.0,0.0,0.0,0.0,0.0,0.00019147736262226718,0.00048091469168705023,-0.0004520043143537235,0.0,0.0,0.0,0.0,0.0,0.0,0.0,0.0,0.0,-0.00034082252808229595,-0.6351117421367881,9.809326385509047,0.0,0.0,0.0,0.0,0.0,0.0,0.0,0.0,0.0
2025/05/25 18:16:00.176046554,1748189760,173871716,mA1/imu,0.1621502758362291,-0.9867656763787397,-0.0008683984257057637,-0.00018398700299590069,0.0,0.0,0.0,0.0,0.0,0.0,0.0,0.0,0.0,0.001723777412632551,0.0005734997182642883,-0.00043824506705571805,0.0,0.0,0.0,0.0,0.0,0.0,0.0,0.0,0.0,5.567750221581718e-05,-0.5343460473726845,9.808868910149933,0.0,0.0,0.0,0.0,0.0,0.0,0.0,0.0,0.0
2025/05/25 18:16:00.216019825,1748189760,214591314,mA1/imu,0.16216091984923697,-0.9867639349149223,-0.0008626008574319976,-0.00016954241059664464,0.0,0.0,0.0,0.0,0.0,0.0,0.0,0.0,0.0,4.943586717071482e-05,0.0006256547850133952,-0.000426201728782937,0.0,0.0,0.0,0.0,0.0,0.0,0.0,0.0,0.0,0.0011537510702203258,0.601789762169385,9.811183790267963,0.0,0.0,0.0,0.0,0.0,0.0,0.0,0.0,0.0
2025/05/25 18:16:00.267531102,1748189760,266338705,mA1/imu,0.16217127633007902,-0.9867622355093548,-0.0008626207172562845,-0.0001535954162932746,0.0,0.0,0.0,0.0,0.0,0.0,0.0,0.0,0.0,-0.0013644879198637366,0.0006283319849530757,-0.00041476104286467035,0.0,0.0,0.0,0.0,0.0,0.0,0.0,0.0,0.0,0.001953846826927487,0.5024628359718203,9.810617782741387,0.0,0.0,0.0,0.0,0.0,0.0,0.0,0.0,0.0
2025/05/25 18:16:00.317216626,1748189760,316205950,mA1/imu,0.162181356542078,-0.9867605891163691,-0.0008531311470515306,-0.00013972878491136915,0.0,0.0,0.0,0.0,0.0,0.0,0.0,0.0,0.0,0.0004070921066767373,0.0005913367575386062,-0.0004037851722434718,0.0,0.0,0.0,0.0,0.0,0.0,0.0,0.0,0.0,0.0010769212988526377,-0.6333871180275953,9.809299743872256,0.0,0.0,0.0,0.0,0.0,0.0,0.0,0.0,0.0
2025/05/25 18:16:00.370578093,1748189760,368510073,mA1/imu,0.16219117390570056,-0.9867589917400964,-0.0008359349239960967,-0.00012860778237262316,0.0,0.0,0.0,0.0,0.0,0.0,0.0,0.0,0.0,0.0018937738942897766,0.0005162052939756589,-0.0003934449925505677,0.0,0.0,0.0,0.0,0.0,0.0,0.0,0.0,0.0,0.001198405423124986,-0.5340366499372271,9.808872823389828,0.0,0.0,0.0,0.0,0.0,0.0,0.0,0.0,0.0
2025/05/25 18:16:00.422628865,1748189760,419460592,mA1/imu,0.16220073879421004,-0.9867574280783761,-0.0008272930946943598,-0.00011854491213132557,0.0,0.0,0.0,0.0,0.0,0.0,0.0,0.0,0.0,0.00017022238664600472,0.0004081494015032899,-0.0003833354282911812,0.0,0.0,0.0,0.0,0.0,0.0,0.0,0.0,0.0,0.002200510139425604,0.6018610652463144,9.811158533008356,0.0,0.0,0.0,0.0,0.0,0.0,0.0,0.0,0.0
2025/05/25 18:16:00.473133746,1748189760,471572713,mA1/imu,0.16221005428883653,-0.9867558985095484,-0.0008263413493699324,-0.00011047262489879462,0.0,0.0,0.0,0.0,0.0,0.0,0.0,0.0,0.0,-0.0012963023011072904,0.0002691268288626477,-0.0003734608563374961,0.0,0.0,0.0,0.0,0.0,0.0,0.0,0.0,0.0,0.0028203803645758,0.5024664402135902,9.810593863267288,0.0,0.0,0.0,0.0,0.0,0.0,0.0,0.0,0.0
2025/05/25 18:16:00.523602790,1748189760,521930468,mA1/imu,0.16221912723806303,-0.986754414497258,-0.0008177297496950184,-0.00010745394921591068,0.0,0.0,0.0,0.0,0.0,0.0,0.0,0.0,0.0,0.00042106789431881476,0.00011033928203464827,-0.00036387391411138177,0.0,0.0,0.0,0.0,0.0,0.0,0.0,0.0,0.0,0.0020207295412469975,-0.6334149357424781,9.809290603116894,0.0,0.0,0.0,0.0,0.0,0.0,0.0,0.0,0.0
2025/05/25 18:16:00.574967980,1748189760,573498359,mA1/imu,0.16222796723080102,-0.9867529729227533,-0.0008031711153513767,-0.00010950995229885873,0.0,0.0,0.0,0.0,0.0,0.0,0.0,0.0,0.0,0.0018536569449971226,-5.3096093015664535e-05,-0.0003547399435052933,0.0,0.0,0.0,0.0,0.0,0.0,0.0,0.0,0.0,0.0016787194914645604,-0.5340878312112517,9.808857586149628,0.0,0.0,0.0,0.0,0.0,0.0,0.0,0.0,0.0
2025/05/25 18:16:00.624333515,1748189760,623324344,mA1/imu,0.1622376869554765,-0.9867513778592237,-0.000798927002928233,-0.00011375369979555369,0.0,0.0,0.0,0.0,0.0,0.0,0.0,0.0,0.0,6.019130823886061e-05,-0.00019251245850155887,-0.0004349819795220795,0.0,0.0,0.0,0.0,0.0,0.0,0.0,0.0,0.0,0.0018157984202374676,0.5990389710771337,9.811096311514234,0.0,0.0,0.0,0.0,0.0,0.0,0.0,0.0,0.0
2025/05/25 18:16:00.666199680,1748189760,664878504,mA1/imu,0.16224825142798024,-0.9867496360458432,-0.0008038746494789193,-0.00012023937392583546,0.0,0.0,0.0,0.0,0.0,0.0,0.0,0.0,0.0,-0.0014525477602389137,-0.00034695561349700415,-0.00042425511795121304,0.0,0.0,0.0,0.0,0.0,0.0,0.0,0.0,0.0,0.003043163096025852,0.5026664614114605,9.81058654806741,0.0,0.0,0.0,0.0,0.0,0.0,0.0,0.0,0.0
2025/05/25 18:16:00.715654859,1748189760,714484240,mA1/imu,0.16225855362189703,-0.9867479419985264,-0.0008021578592885,-0.0001314571084656763,0.0,0.0,0.0,0.0,0.0,0.0,0.0,0.0,0.0,0.00022686506613557947,-0.00048490621771527914,-0.0004138439557466575,0.0,0.0,0.0,0.0,0.0,0.0,0.0,0.0,0.0,0.002162026444642233,-0.6332782206697037,9.809293237164706,0.0,0.0,0.0,0.0,0.0,0.0,0.0,0.0,0.0
2025/05/25 18:16:00.766726503,1748189760,765556801,mA1/imu,0.1622686055489215,-0.9867462926125485,-0.0007951077170200756,-0.00014653435643611394,0.0,0.0,0.0,0.0,0.0,0.0,0.0,0.0,0.0,0.0016313762773973548,-0.0005897954058280894,-0.00040404112618113455,0.0,0.0,0.0,0.0,0.0,0.0,0.0,0.0,0.0,0.0016680158869222797,-0.5339982934132622,9.808868535701674,0.0,0.0,0.0,0.0,0.0,0.0,0.0,0.0,0.0
2025/05/25 18:16:00.817073590,1748189760,815882334,mA1/imu,0.16227842129222642,-0.9867446732875571,-0.0007984053725433033,-0.0001620814477781611,0.0,0.0,0.0,0.0,0.0,0.0,0.0,0.0,0.0,-0.00016143146957011672,-0.00065951018595502,-0.00039474138165275285,0.0,0.0,0.0,0.0,0.0,0.0,0.0,0.0,0.0,0.002589860731520683,0.6019009255404966,9.811153696023174,0.0,0.0,0.0,0.0,0.0,0.0,0.0,0.0,0.0
2025/05/25 18:16:00.870727536,1748189760,869253692,mA1/imu,0.16228801040352692,-0.9867430836874982,-0.0008105453112949786,-0.0001774554874458858,0.0,0.0,0.0,0.0,0.0,0.0,0.0,0.0,0.0,-0.0016805359164930333,-0.0006950839361995271,-0.00038565059872679516,0.0,0.0,0.0,0.0,0.0,0.0,0.0,0.0,0.0,0.0027668975822947688,0.5026428081836964,9.810614880174812,0.0,0.0,0.0,0.0,0.0,0.0,0.0,0.0,0.0
2025/05/25 18:16:00.920101983,1748189760,918749478,mA1/imu,0.16229736862866445,-0.9867415372076356,-0.0008155298925331307,-0.0001944127514628043,0.0,0.0,0.0,0.0,0.0,0.0,0.0,0.0,0.0,1.4670334257405288e-06,-0.0007014898519392763,-0.00037602703725337863,0.0,0.0,0.0,0.0,0.0,0.0,0.0,0.0,0.0,0.002083881253789762,-0.633247951440957,9.809287929816158,0.0,0.0,0.0,0.0,0.0,0.0,0.0,0.0,0.0
2025/05/25 18:16:00.974426132,1748189760,972820054,mA1/imu,0.1623064908360552,-0.9867400340847619,-0.0008144120657918376,-0.00021189590700818848,0.0,0.0,0.0,0.0,0.0,0.0,0.0,0.0,0.0,0.0014187185767775127,-0.0006664934779763594,-0.0003666265606180902,0.0,0.0,0.0,0.0,0.0,0.0,0.0,0.0,0.0,0.0017147111621043532,-0.5339501009398149,9.808863617837499,0.0,0.0,0.0,0.0,0.0,0.0,0.0,0.0,0.0
2025/05/25 18:16:01.24144584,1748189761,23230516,mA1/imu,0.1623141805274974,-0.9867387597145445,-0.0008222101588650882,-0.0002254931133878438,0.0,0.0,0.0,0.0,0.0,0.0,0.0,0.0,0.0,-0.00031842156216368745,-0.00044110577858439657,-0.0001940071133502498,0.0,0.0,0.0,0.0,0.0,0.0,0.0,0.0,0.0,-0.010781974787322603,0.6127012096656562,9.811213576908804,0.0,0.0,0.0,0.0,0.0,0.0,0.0,0.0,0.0
2025/05/25 18:16:01.75914149,1748189761,74399618,mA1/imu,0.16231659144499164,-0.9867383498577043,-0.0008360360283620456,-0.0002326059627081638,0.0,0.0,0.0,0.0,0.0,0.0,0.0,0.0,0.0,-0.0017808905664370642,-0.00034183921303911557,-6.649046593308107e-05,0.0,0.0,0.0,0.0,0.0,0.0,0.0,0.0,0.0,0.00430528263231982,0.5020939118167228,9.810658858221759,0.0,0.0,0.0,0.0,0.0,0.0,0.0,0.0,0.0
2025/05/25 18:16:01.116221895,1748189761,114201381,mA1/imu,0.16231819896305438,-0.9867380793307882,-0.0008413510005799091,-0.00023919128639894976,0.0,0.0,0.0,0.0,0.0,0.0,0.0,0.0,0.0,-6.52258557723687e-05,-0.0002611914457192786,-6.46433017551713e-05,0.0,0.0,0.0,0.0,0.0,0.0,0.0,0.0,0.0,0.0034172872971066533,-0.6335642892622853,9.809265783602187,0.0,0.0,0.0,0.0,0.0,0.0,0.0,0.0,0.0
2025/05/25 18:16:01.166718337,1748189761,165562696,mA1/imu,0.16231976248908492,-0.98673782243417,-0.0008394288682684653,-0.00024462733815011,0.0,0.0,0.0,0.0,0.0,0.0,0.0,0.0,0.0,0.0013860724072756096,-0.00016364703208717718,-6.284822788876413e-05,0.0,0.0,0.0,0.0,0.0,0.0,0.0,0.0,0.0,0.0029622062263029783,-0.5341478938982845,9.80883298845191,0.0,0.0,0.0,0.0,0.0,0.0,0.0,0.0,0.0
2025/05/25 18:16:01.218470599,1748189761,215715636,mA1/imu,0.16232129225152447,-0.9867375649764139,-0.0008457949334203226,-0.0002461242431525262,0.0,0.0,0.0,0.0,0.0,0.0,0.0,0.0,0.0,-0.00035053964116346496,-5.7087273180528075e-05,-6.154409542089694e-05,0.0,0.0,0.0,0.0,0.0,0.0,0.0,0.0,0.0,0.003932821662028839,0.6018242700647128,9.811245732157769,0.0,0.0,0.0,0.0,0.0,0.0,0.0,0.0,0.0
2025/05/25 18:16:01.271000744,1748189761,269825115,mA1/imu,0.16232279630843868,-0.9867373068157721,-0.0008588644182810854,-0.00024390259678674412,0.0,0.0,0.0,0.0,0.0,0.0,0.0,0.0,0.0,-0.0018050949308765364,4.47768224589294e-05,-6.040399584362075e-05,0.0,0.0,0.0,0.0,0.0,0.0,0.0,0.0,0.0,0.004504367300051733,0.5026147040975275,9.810685416888159,0.0,0.0,0.0,0.0,0.0,0.0,0.0,0.0,0.0
2025/05/25 18:16:01.320610575,1748189761,319749032,mA1/imu,0.16232426848239165,-0.9867370621237588,-0.0008626506077903523,-0.00024068019994223798,0.0,0.0,0.0,0.0,0.0,0.0,0.0,0.0,0.0,-5.4265160798925725e-05,0.00013949310898898169,-5.892945976894927e-05,0.0,0.0,0.0,0.0,0.0,0.0,0.0,0.0,0.0,0.0036694301931999374,-0.6333218354262466,9.809250132765222,0.0,0.0,0.0,0.0,0.0,0.0,0.0,0.0,0.0
2025/05/25 18:16:01.371742957,1748189761,370819910,mA1/imu,0.16232570164079443,-0.9867368311606344,-0.0008583136984474886,-0.00023646456061149004,0.0,0.0,0.0,0.0,0.0,0.0,0.0,0.0,0.0,0.0014330655123019171,0.000227298891512116,-5.728479040243629e-05,0.0,0.0,0.0,0.0,0.0,0.0,0.0,0.0,0.0,0.003332844853337638,-0.5340350359315643,9.808833736134659,0.0,0.0,0.0,0.0,0.0,0.0,0.0,0.0,0.0
2025/05/25 18:16:01.423012307,1748189761,421982623,mA1/imu,0.1623247084531033,-0.9867369949876617,-0.0008608190768806626,-0.00022525286031903618,0.0,0.0,0.0,0.0,0.0,0.0,0.0,0.0,0.0,-0.0002654803067324179,0.0005380964090568241,9.537844338289279e-05,0.0,0.0,0.0,0.0,0.0,0.0,0.0,0.0,0.0,0.0017181002074645787,0.6021649969011835,9.811259536136113,0.0,0.0,0.0,0.0,0.0,0.0,0.0,0.0,0.0
2025/05/25 18:16:01.475951562,1748189761,473306261,mA1/imu,0.16232236072710052,-0.9867373773356373,-0.0008690891026022689,-0.00020990688635610485,0.0,0.0,0.0,0.0,0.0,0.0,0.0,0.0,0.0,-0.0016886511887696418,0.0005589490748431496,9.595964596500647e-05,0.0,0.0,0.0,0.0,0.0,0.0,0.0,0.0,0.0,0.005433398806655822,0.5026768127301233,9.810677222991782,0.0,0.0,0.0,0.0,0.0,0.0,0.0,0.0,0.0
2025/05/25 18:16:01.524962932,1748189761,523190049,mA1/imu,0.16232084500273128,-0.9867376306067831,-0.0008679040943385416,-0.00019586881864825872,0.0,0.0,0.0,0.0,0.0,0.0,0.0,0.0,0.0,7.754072891699441e-05,0.0005583298098128342,4.1239046467486776e-05,0.0,0.0,0.0,0.0,0.0,0.0,0.0,0.0,0.0,0.004364850808315003,-0.6338403025406544,9.809259750520107,0.0,0.0,0.0,0.0,0.0,0.0,0.0,0.0,0.0
2025/05/25 18:16:01.569288037,1748189761,565392118,mA1/imu,0.16231982397866154,-0.9867378090163049,-0.0008586207581163129,-0.00018377059718361068,0.0,0.0,0.0,0.0,0.0,0.0,0.0,0.0,0.0,0.0015845717928059558,0.0005167575713195679,4.2193837416094165e-05,0.0,0.0,0.0,0.0,0.0,0.0,0.0,0.0,0.0,0.0042705721048537275,-0.5338615433008396,9.808841264165297,0.0,0.0,0.0,0.0,0.0,0.0,0.0,0.0,0.0
2025/05/25 18:16:01.617465842,1748189761,615237954,mA1/imu,0.16231878185742582,-0.9867379839645387,-0.0008570195489968519,-0.0001719750329947902,0.0,0.0,0.0,0.0,0.0,0.0,0.0,0.0,0.0,-0.00010392825453114453,0.0004453347837752644,4.300053058445109e-05,0.0,0.0,0.0,0.0,0.0,0.0,0.0,0.0,0.0,0.005272242743501322,0.6020228128623937,9.811223245539589,0.0,0.0,0.0,0.0,0.0,0.0,0.0,0.0,0.0
2025/05/25 18:16:01.668695415,1748189761,667368317,mA1/imu,0.1623177191915743,-0.986738156289601,-0.0008619053281090248,-0.00016148637457645947,0.0,0.0,0.0,0.0,0.0,0.0,0.0,0.0,0.0,-0.0015220866076688696,0.0003391931824277477,4.3728532854346197e-05,0.0,0.0,0.0,0.0,0.0,0.0,0.0,0.0,0.0,0.006029382412034908,0.5027361381611183,9.81065508500782,0.0,0.0,0.0,0.0,0.0,0.0,0.0,0.0,0.0
2025/05/25 18:16:01.718627391,1748189761,717742581,mA1/imu,0.16231663372727037,-0.9867383394932683,-0.0008576760824985732,-0.00015550322277841787,0.0,0.0,0.0,0.0,0.0,0.0,0.0,0.0,0.0,0.0002527901974840484,0.0002098429104804871,4.449366656465392e-05,0.0,0.0,0.0,0.0,0.0,0.0,0.0,0.0,0.0,0.005190606942061634,-0.6331859485277386,9.809269909316104,0.0,0.0,0.0,0.0,0.0,0.0,0.0,0.0,0.0
2025/05/25 18:16:01.770212114,1748189761,769007230,mA1/imu,0.16231552636366878,-0.9867385320590478,-0.0008458591161748766,-0.00015418688717843697,0.0,0.0,0.0,0.0,0.0,0.0,0.0,0.0,0.0,0.0017498600446947477,7.071447926055858e-05,4.5239711524454026e-05,0.0,0.0,0.0,0.0,0.0,0.0,0.0,0.0,0.0,0.004762855856698602,-0.5339443439176633,9.808843952521043,0.0,0.0,0.0,0.0,0.0,0.0,0.0,0.0,0.0
2025/05/25 18:16:01.819719522,1748189761,818993650,mA1/imu,0.1623144003935995,-0.9867387200726112,-0.0008424194722569912,-0.00015512499538452426,0.0,0.0,0.0,0.0,0.0,0.0,0.0,0.0,0.0,4.362959113361773e-05,-7.089213682154888e-05,4.5885895916239104e-05,0.0,0.0,0.0,0.0,0.0,0.0,0.0,0.0,0.0,0.005687299078482377,0.6019786169547234,9.811190710284722,0.0,0.0,0.0,0.0,0.0,0.0,0.0,0.0,0.0
2025/05/25 18:16:01.871335891,1748189761,870089467,mA1/imu,0.16231337124697304,-0.9867388855504393,-0.0008462421287535702,-0.00015852879526993127,0.0,0.0,0.0,0.0,0.0,0.0,0.0,0.0,0.0,-0.0014043719668658256,-0.00021442559625711502,2.3378839821814277e-05,0.0,0.0,0.0,0.0,0.0,0.0,0.0,0.0,0.0,0.005902339255755094,0.49949955553452197,9.810657635735703,0.0,0.0,0.0,0.0,0.0,0.0,0.0,0.0,0.0
2025/05/25 18:16:01.921034634,1748189761,920092305,mA1/imu,0.16231411285324668,-0.9867387658159601,-0.0008420663805596095,-0.00016651987860744256,0.0,0.0,0.0,0.0,0.0,0.0,0.0,0.0,0.0,0.0003260371549589256,-0.0003404467579498273,-4.351553916120131e-05,0.0,0.0,0.0,0.0,0.0,0.0,0.0,0.0,0.0,0.005575589922830631,-0.6330188459316628,9.809260383402899,0.0,0.0,0.0,0.0,0.0,0.0,0.0,0.0,0.0
2025/05/25 18:16:01.974494624,1748189761,973593843,mA1/imu,0.16231516794495515,-0.9867385993724511,-0.0008311401034164669,-0.0001788005117244006,0.0,0.0,0.0,0.0,0.0,0.0,0.0,0.0,0.0,0.0017893118899189216,-0.0004691441839912317,-4.2870770253172694e-05,0.0,0.0,0.0,0.0,0.0,0.0,0.0,0.0,0.0,0.006547941809274021,-0.5338945279690885,9.808842354219836,0.0,0.0,0.0,0.0,0.0,0.0,0.0,0.0,0.0
2025/05/25 18:16:02.16660652,1748189762,14640539,mA1/imu,0.1623128022654425,-0.9867389888955859,-0.000828219377543353,-0.00018991239849119938,0.0,0.0,0.0,0.0,0.0,0.0,0.0,0.0,0.0,9.738542543236825e-05,-0.00038933080429270586,0.00020088976724503505,0.0,0.0,0.0,0.0,0.0,0.0,0.0,0.0,0.0,0.003676642917292725,0.606926230708707,9.81115234709752,0.0,0.0,0.0,0.0,0.0,0.0,0.0,0.0,0.0
2025/05/25 18:16:02.65974480,1748189762,65055023,mA1/imu,0.16230621587772873,-0.9867400664405672,-0.0008322831876820701,-0.00020217075112772997,0.0,0.0,0.0,0.0,0.0,0.0,0.0,0.0,0.0,-0.0013569967370710343,-0.0005936054856570818,0.0003101545450662946,0.0,0.0,0.0,0.0,0.0,0.0,0.0,0.0,0.0,0.011250557899247435,0.5050478584355499,9.810658370736785,0.0,0.0,0.0,0.0,0.0,0.0,0.0,0.0,0.0
2025/05/25 18:16:02.116019870,1748189762,115073480,mA1/imu,0.1622946020476617,-0.9867419774234362,-0.0008275565945429482,-0.00021745519364083497,0.0,0.0,0.0,0.0,0.0,0.0,0.0,0.0,0.0,0.00040365855686383113,-0.000564811858934743,0.0005735598062100375,0.0,0.0,0.0,0.0,0.0,0.0,0.0,0.0,0.0,0.0058422906813341705,-0.6291259107498871,9.809254955395515,0.0,0.0,0.0,0.0,0.0,0.0,0.0,0.0,0.0
2025/05/25 18:16:02.168187633,1748189762,166210511,mA1/imu,0.16227893853601771,-0.9867445585448934,-0.0008161371398779165,-0.00023708613568501022,0.0,0.0,0.0,0.0,0.0,0.0,0.0,0.0,0.0,0.0018484911932701738,-0.0007948990899828372,0.000674256717297636,0.0,0.0,0.0,0.0,0.0,0.0,0.0,0.0,0.0,0.01105128622364784,-0.5317379943918028,9.8087547262658,0.0,0.0,0.0,0.0,0.0,0.0,0.0,0.0,0.0
2025/05/25 18:16:02.218028123,1748189762,216308032,mA1/imu,0.16225863985482628,-0.986747893539131,-0.0008137825750263542,-0.00025718956107545526,0.0,0.0,0.0,0.0,0.0,0.0,0.0,0.0,0.0,0.00011439624882470542,-0.0007830548431960679,0.0009065300106254128,0.0,0.0,0.0,0.0,0.0,0.0,0.0,0.0,0.0,0.009894024804031992,0.6063587199335193,9.811222629384508,0.0,0.0,0.0,0.0,0.0,0.0,0.0,0.0,0.0
2025/05/25 18:16:02.269077096,1748189762,268146920,mA1/imu,0.1622371782976678,-0.9867514110534522,-0.000820167221306981,-0.00027944187412492393,0.0,0.0,0.0,0.0,0.0,0.0,0.0,0.0,0.0,-0.001414139979163317,-0.0009828776126481892,0.0008574253815968996,0.0,0.0,0.0,0.0,0.0,0.0,0.0,0.0,0.0,0.011619291035470386,0.5014561148698109,9.810695730314142,0.0,0.0,0.0,0.0,0.0,0.0,0.0,0.0,0.0
2025/05/25 18:16:02.319170508,1748189762,317951280,mA1/imu,0.16221633621282083,-0.986754829537697,-0.0008203860989288223,-0.0003059679200309808,0.0,0.0,0.0,0.0,0.0,0.0,0.0,0.0,0.0,0.0002398744552945225,-0.0010843500512344537,0.0008350378658658357,0.0,0.0,0.0,0.0,0.0,0.0,0.0,0.0,0.0,0.01049422785881093,-0.6342098996039937,9.809148395426089,0.0,0.0,0.0,0.0,0.0,0.0,0.0,0.0,0.0
2025/05/25 18:16:02.372069894,1748189762,371057072,mA1/imu,0.16219602995116347,-0.9867581621307036,-0.0008156712032798962,-0.0003346894163044296,0.0,0.0,0.0,0.0,0.0,0.0,0.0,0.0,0.0,0.0016169957120361635,-0.0011090697135678767,0.0008136271466302673,0.0,0.0,0.0,0.0,0.0,0.0,0.0,0.0,0.0,0.009534363732330667,-0.5347071848669719,9.808739157512816,0.0,0.0,0.0,0.0,0.0,0.0,0.0,0.0,0.0
2025/05/25 18:16:02.422399725,1748189762,420953348,mA1/imu,0.16217624461677654,-0.9867613998421615,-0.0008215574398308591,-0.00036125740209778945,0.0,0.0,0.0,0.0,0.0,0.0,0.0,0.0,0.0,-0.00020220451080973174,-0.0010632522668251327,0.0007930144549662099,0.0,0.0,0.0,0.0,0.0,0.0,0.0,0.0,0.0,0.01028540586581415,0.6012790070026603,9.811313730914367,0.0,0.0,0.0,0.0,0.0,0.0,0.0,0.0,0.0
2025/05/25 18:16:02.472796433,1748189762,472067986,mA1/imu,0.16215695986064146,-0.9867645480184184,-0.0008363668621331627,-0.00038423070230625053,0.0,0.0,0.0,0.0,0.0,0.0,0.0,0.0,0.0,-0.001745449162344469,-0.0009524915351556308,0.0007730657885552621,0.0,0.0,0.0,0.0,0.0,0.0,0.0,0.0,0.0,0.010187780960050645,0.5019871028443108,9.810754828290088,0.0,0.0,0.0,0.0,0.0,0.0,0.0,0.0,0.0
2025/05/25 18:16:02.523805438,1748189762,522725563,mA1/imu,0.16213816745588944,-0.9867676214275637,-0.0008439192370991368,-0.00040466845131616766,0.0,0.0,0.0,0.0,0.0,0.0,0.0,0.0,0.0,-8.520062416230764e-05,-0.0007852905765242769,0.0007532198311233564,0.0,0.0,0.0,0.0,0.0,0.0,0.0,0.0,0.0,0.00915279404081066,-0.6339195099900664,9.809144714635803,0.0,0.0,0.0,0.0,0.0,0.0,0.0,0.0,0.0
2025/05/25 18:16:02.574437378,1748189762,573737515,mA1/imu,0.16211985150580321,-0.9867706229365879,-0.0008450868347399343,-0.00042105262882023643,0.0,0.0,0.0,0.0,0.0,0.0,0.0,0.0,0.0,0.0013158689931126787,-0.0005646337860866503,0.0007342748011683176,0.0,0.0,0.0,0.0,0.0,0.0,0.0,0.0,0.0,0.008394412056206665,-0.5340500601806468,9.808753310923843,0.0,0.0,0.0,0.0,0.0,0.0,0.0,0.0,0.0
2025/05/25 18:16:02.624322958,1748189762,623521491,mA1/imu,0.16210171586620842,-0.9867735911383829,-0.0008548958239568008,-0.0004274321240898061,0.0,0.0,0.0,0.0,0.0,0.0,0.0,0.0,0.0,-0.00047813726194688276,-0.0001137725678796667,0.0007394034305298843,0.0,0.0,0.0,0.0,0.0,0.0,0.0,0.0,0.0,0.0015934185158522855,0.599503456814709,9.81132906954218,0.0,0.0,0.0,0.0,0.0,0.0,0.0,0.0,0.0
2025/05/25 18:16:02.665687788,1748189762,664513773,mA1/imu,0.1620832983231056,-0.9867766053409247,-0.0008712333821289323,-0.000420129668213887,0.0,0.0,0.0,0.0,0.0,0.0,0.0,0.0,0.0,-0.001987249736486457,0.0003787982237009011,0.0007521372371509383,0.0,0.0,0.0,0.0,0.0,0.0,0.0,0.0,0.0,0.0023628712554318015,0.5004383597241858,9.810806223098721,0.0,0.0,0.0,0.0,0.0,0.0,0.0,0.0,0.0
2025/05/25 18:16:02.715400576,1748189762,714499248,mA1/imu,0.1620655423664486,-0.986779523321934,-0.0008775513482788986,-0.0004027823691537262,0.0,0.0,0.0,0.0,0.0,0.0,0.0,0.0,0.0,-0.0002481997112273418,0.0008003718402667438,0.0006908625291394656,0.0,0.0,0.0,0.0,0.0,0.0,0.0,0.0,0.0,0.003575737918031877,-0.6314607841856498,9.809194673834083,0.0,0.0,0.0,0.0,0.0,0.0,0.0,0.0,0.0
2025/05/25 18:16:02.766490501,1748189762,765476238,mA1/imu,0.16204866902506418,-0.9867823077010835,-0.0008744422041357108,-0.0003760666973818799,0.0,0.0,0.0,0.0,0.0,0.0,0.0,0.0,0.0,0.0012456634126929204,0.0012581574284715694,0.0006809910085208413,0.0,0.0,0.0,0.0,0.0,0.0,0.0,0.0,0.0,-0.002084337082729289,-0.5281766978295586,9.808736538817486,0.0,0.0,0.0,0.0,0.0,0.0,0.0,0.0,0.0
2025/05/25 18:16:02.816447810,1748189762,815443268,mA1/imu,0.16202880642366435,-0.9867855840906055,-0.0008755203272865341,-0.00033224093950543236,0.0,0.0,0.0,0.0,0.0,0.0,0.0,0.0,0.0,-0.0004139782845475663,0.002076289783997895,0.0009329651448186075,0.0,0.0,0.0,0.0,0.0,0.0,0.0,0.0,0.0,-0.014875826790429852,0.6047132416060406,9.811377639694928,0.0,0.0,0.0,0.0,0.0,0.0,0.0,0.0,0.0
2025/05/25 18:16:02.868082395,1748189762,866324140,mA1/imu,0.16200308684385004,-0.986789822156447,-0.0008795442378010791,-0.0002704504493715264,0.0,0.0,0.0,0.0,0.0,0.0,0.0,0.0,0.0,-0.0017996713744214,0.00252285789138447,0.0010530204030831916,0.0,0.0,0.0,0.0,0.0,0.0,0.0,0.0,0.0,0.0020113311488562814,0.5097823997395603,9.810752796785765,0.0,0.0,0.0,0.0,0.0,0.0,0.0,0.0,0.0
2025/05/25 18:16:02.918946041,1748189762,916238593,mA1/imu,0.16197271000085162,-0.9867948322014892,-0.0008713346867853657,-0.00020280847667251763,0.0,0.0,0.0,0.0,0.0,0.0,0.0,0.0,0.0,3.080465014175659e-05,0.002887488582658969,0.0013984180810231268,0.0,0.0,0.0,0.0,0.0,0.0,0.0,0.0,0.0,-0.010103233490381383,-0.629765139432489,9.80912862811329,0.0,0.0,0.0,0.0,0.0,0.0,0.0,0.0,0.0
2025/05/25 18:16:02.968561434,1748189762,967619073,mA1/imu,0.16193232795213716,-0.9868014888269311,-0.0008521959775457866,-0.00012874381335356997,0.0,0.0,0.0,0.0,0.0,0.0,0.0,0.0,0.0,0.0015961936433630118,0.003118234816747904,0.0017999176987534586,0.0,0.0,0.0,0.0,0.0,0.0,0.0,0.0,0.0,-0.008205512041743915,-0.5292948872773799,9.80886023141569,0.0,0.0,0.0,0.0,0.0,0.0,0.0,0.0,0.0
2025/05/25 18:16:03.20003712,1748189763,18015180,mA1/imu,0.1618847127780537,-0.9868093204278657,-0.0008377822779992197,-5.482987837675284e-05,0.0,0.0,0.0,0.0,0.0,0.0,0.0,0.0,0.0,3.715042316675476e-05,0.0028395440776356074,0.001970097799211672,0.0,0.0,0.0,0.0,0.0,0.0,0.0,0.0,0.0,0.007467864844488812,0.6146945425548982,9.81132830340235,0.0,0.0,0.0,0.0,0.0,0.0,0.0,0.0,0.0
2025/05/25 18:16:03.72293638,1748189763,69877361,mA1/imu,0.1618352647549163,-0.9868174394081203,-0.0008296493184199246,6.611775113790841e-06,0.0,0.0,0.0,0.0,0.0,0.0,0.0,0.0,0.0,-0.0013057823022927123,0.0022162033998307986,0.002030498941805504,0.0,0.0,0.0,0.0,0.0,0.0,0.0,0.0,0.0,0.009232494327642423,0.5134645972643852,9.810731763047718,0.0,0.0,0.0,0.0,0.0,0.0,0.0,0.0,0.0
2025/05/25 18:16:03.120668797,1748189763,119750441,mA1/imu,0.16178432696212305,-0.9868258045592075,-0.0008127897624882773,4.87676899683831e-05,0.0,0.0,0.0,0.0,0.0,0.0,0.0,0.0,0.0,0.0005495264539611249,0.0014594221052723945,0.002089847646094126,0.0,0.0,0.0,0.0,0.0,0.0,0.0,0.0,0.0,0.008610779282229464,-0.6229612850746669,9.809346805452572,0.0,0.0,0.0,0.0,0.0,0.0,0.0,0.0,0.0
2025/05/25 18:16:03.173064256,1748189763,170885998,mA1/imu,0.16173193565014599,-0.9868344103460388,-0.000789144337738069,6.92752275274417e-05,0.0,0.0,0.0,0.0,0.0,0.0,0.0,0.0,0.0,0.0021208442667598505,0.000618961154634834,0.002147572543883296,0.0,0.0,0.0,0.0,0.0,0.0,0.0,0.0,0.0,0.008921902673242638,-0.523531779235263,9.808830662261887,0.0,0.0,0.0,0.0,0.0,0.0,0.0,0.0,0.0
2025/05/25 18:16:03.221364301,1748189763,220742070,mA1/imu,0.16167812682859783,-0.9868432409728006,-0.0007721855605812218,6.914444794673704e-05,0.0,0.0,0.0,0.0,0.0,0.0,0.0,0.0,0.0,0.0005915339555445682,-0.00023647921667871525,0.002202177721212504,0.0,0.0,0.0,0.0,0.0,0.0,0.0,0.0,0.0,0.009297098041456982,0.6205082125592412,9.810924308248786,0.0,0.0,0.0,0.0,0.0,0.0,0.0,0.0,0.0
2025/05/25 18:16:03.274966607,1748189763,273592665,mA1/imu,0.16162289969289773,-0.9868522915489764,-0.000768439501528264,4.9599658574980775e-05,0.0,0.0,0.0,0.0,0.0,0.0,0.0,0.0,0.0,-0.0006588884624748096,-0.0010810469843822118,0.002260661954501932,0.0,0.0,0.0,0.0,0.0,0.0,0.0,0.0,0.0,0.008843090238584839,0.3179876666458829,9.81103525849568,0.0,0.0,0.0,0.0,0.0,0.0,0.0,0.0,0.0
2025/05/25 18:16:03.324594631,1748189763,323477751,mA1/imu,0.1615663224268046,-0.9868615642890477,-0.0007591464795186677,9.114491524343844e-06,0.0,0.0,0.0,0.0,0.0,0.0,0.0,0.0,0.0,-0.0003179636167249285,-0.0018342264758688732,0.0023145805817000975,0.0,0.0,0.0,0.0,0.0,0.0,0.0,0.0,0.0,0.008965269237185254,-0.16300257367001908,9.809946596041664,0.0,0.0,0.0,0.0,0.0,0.0,0.0,0.0,0.0
2025/05/25 18:16:03.366091268,1748189763,364822226,mA1/imu,0.16150853372775825,-0.986871036881131,-0.000739982876293968,-5.0235583840714174e-05,0.0,0.0,0.0,0.0,0.0,0.0,0.0,0.0,0.0,0.001001050965836711,-0.0024455305668484584,0.0023572850313718775,0.0,0.0,0.0,0.0,0.0,0.0,0.0,0.0,0.0,0.0074017130451970985,0.017514227304227217,9.80917632137168,0.0,0.0,0.0,0.0,0.0,0.0,0.0,0.0,0.0
2025/05/25 18:16:03.415887304,1748189763,414918042,mA1/imu,0.16144962312884006,-0.9868806785866625,-0.000728459775997288,-0.00012153287131428865,0.0,0.0,0.0,0.0,0.0,0.0,0.0,0.0,0.0,0.0009848800429925798,-0.0028995016119175167,0.0024027141075030705,0.0,0.0,0.0,0.0,0.0,0.0,0.0,0.0,0.0,0.006249300093958073,0.6477594892965692,9.810510025583591,0.0,0.0,0.0,0.0,0.0,0.0,0.0,0.0,0.0
2025/05/25 18:16:03.466651293,1748189763,465886776,mA1/imu,0.1613893581171296,-0.9868905205052116,-0.0007319829437560344,-0.00019956067538261517,0.0,0.0,0.0,0.0,0.0,0.0,0.0,0.0,0.0,0.0028125495594797933,-0.0032148086722915683,0.0024666974359366894,0.0,0.0,0.0,0.0,0.0,0.0,0.0,0.0,0.0,0.0038770737564466666,-0.4722038283618823,9.808030676100582,0.0,0.0,0.0,0.0,0.0,0.0,0.0,0.0,0.0
2025/05/25 18:16:03.519338823,1748189763,515759143,mA1/imu,0.16132766599873122,-0.9869005830026504,-0.0007379495823307136,-0.00028086089883523743,0.0,0.0,0.0,0.0,0.0,0.0,0.0,0.0,0.0,0.0013739994847433278,-0.003287239732181476,0.0025246083961860625,0.0,0.0,0.0,0.0,0.0,0.0,0.0,0.0,0.0,0.0035991813684296495,-0.5744106060722297,9.810741362131832,0.0,0.0,0.0,0.0,0.0,0.0,0.0,0.0,0.0
2025/05/25 18:16:03.569922042,1748189763,568566505,mA1/imu,0.16126439877994928,-0.9869108927875009,-0.0007434388412448167,-0.00036149994289234427,0.0,0.0,0.0,0.0,0.0,0.0,0.0,0.0,0.0,3.223773873480061e-05,-0.003168507194322579,0.0025944791050313168,0.0,0.0,0.0,0.0,0.0,0.0,0.0,0.0,0.0,0.0029091801713540828,-0.025904775863534377,9.81288821665994,0.0,0.0,0.0,0.0,0.0,0.0,0.0,0.0,0.0
2025/05/25 18:16:03.619467151,1748189763,618371753,mA1/imu,0.16119922218381222,-0.9869215046118243,-0.00075096520071455,-0.0004365241510636435,0.0,0.0,0.0,0.0,0.0,0.0,0.0,0.0,0.0,-0.0017317176588277766,-0.0028684839937129693,0.002664018683224998,0.0,0.0,0.0,0.0,0.0,0.0,0.0,0.0,0.0,0.003905518513724844,0.4952139364189324,9.810283119076768,0.0,0.0,0.0,0.0,0.0,0.0,0.0,0.0,0.0
2025/05/25 18:16:03.671654986,1748189763,669370468,mA1/imu,0.16113243947404662,-0.9869323775528451,-0.0007523459626901204,-0.00050305326113765,0.0,0.0,0.0,0.0,0.0,0.0,0.0,0.0,0.0,-0.00038276432960375353,-0.002441630959517995,0.0027316770286494483,0.0,0.0,0.0,0.0,0.0,0.0,0.0,0.0,0.0,0.00507346008956372,-0.03522229348903771,9.808463033338809,0.0,0.0,0.0,0.0,0.0,0.0,0.0,0.0,0.0
2025/05/25 18:16:03.720018608,1748189763,719202606,mA1/imu,0.1610637244550935,-0.9869435631514658,-0.0007548969355582427,-0.0005567307778347614,0.0,0.0,0.0,0.0,0.0,0.0,0.0,0.0,0.0,0.0009796546434974484,-0.0019191119388090652,0.002817006475745207,0.0,0.0,0.0,0.0,0.0,0.0,0.0,0.0,0.0,0.005021337437404894,0.0678985543853626,9.808632865706201,0.0,0.0,0.0,0.0,0.0,0.0,0.0,0.0,0.0
2025/05/25 18:16:03.771575797,1748189763,770218794,mA1/imu,0.16099328532457752,-0.9869550252054441,-0.0007668859321207178,-0.00059345436860921,0.0,0.0,0.0,0.0,0.0,0.0,0.0,0.0,0.0,-0.00020127763755924152,-0.001258544390074621,0.002877847016225798,0.0,0.0,0.0,0.0,0.0,0.0,0.0,0.0,0.0,0.0022433217875195473,0.5740586542350076,9.809444330832127,0.0,0.0,0.0,0.0,0.0,0.0,0.0,0.0,0.0
2025/05/25 18:16:03.821539955,1748189763,820158231,mA1/imu,0.16092141884125116,-0.9869667223334017,-0.0007820776393608726,-0.0006118162689020052,0.0,0.0,0.0,0.0,0.0,0.0,0.0,0.0,0.0,-0.0018127794173597898,-0.0005107783527891558,0.002931943486321506,0.0,0.0,0.0,0.0,0.0,0.0,0.0,0.0,0.0,0.002263450812531851,0.5260429023977709,9.808487334459453,0.0,0.0,0.0,0.0,0.0,0.0,0.0,0.0,0.0
2025/05/25 18:16:03.872045720,1748189763,871302665,mA1/imu,0.16084808477081633,-0.9869786693908638,-0.0007898102991187543,-0.0006131824292608528,0.0,0.0,0.0,0.0,0.0,0.0,0.0,0.0,0.0,-0.00023434665973816243,0.00017925830723244276,0.0029961513806438522,0.0,0.0,0.0,0.0,0.0,0.0,0.0,0.0,0.0,0.004758915512336955,-0.6250075358342354,9.809607386743423,0.0,0.0,0.0,0.0,0.0,0.0,0.0,0.0,0.0
2025/05/25 18:16:03.922536163,1748189763,921061224,mA1/imu,0.16077335500945275,-0.9869908524528216,-0.000791864576897515,-0.0005987018868335854,0.0,0.0,0.0,0.0,0.0,0.0,0.0,0.0,0.0,0.0011403908112892765,0.0007804103839753011,0.0030506387039814773,0.0,0.0,0.0,0.0,0.0,0.0,0.0,0.0,0.0,0.006392470835967848,-0.5247233206208058,9.809794055703836,0.0,0.0,0.0,0.0,0.0,0.0,0.0,0.0,0.0
2025/05/25 18:16:03.975428961,1748189763,973877911,mA1/imu,0.1606974731301013,-0.9870032237099353,-0.0007968199577297208,-0.0005688530131978283,0.0,0.0,0.0,0.0,0.0,0.0,0.0,0.0,0.0,0.00092739647605981,0.0013354682473642999,0.0030986777372034925,0.0,0.0,0.0,0.0,0.0,0.0,0.0,0.0,0.0,0.008838862502953973,-0.29128175089208896,9.809054304166125,0.0,0.0,0.0,0.0,0.0,0.0,0.0,0.0,0.0
2025/05/25 18:16:04.24960145,1748189764,23672642,mA1/imu,0.1606210244036785,-0.9870156857225387,-0.0008014154729673057,-0.000529519045302695,0.0,0.0,0.0,0.0,0.0,0.0,0.0,0.0,0.0,0.0005684833496776833,0.0016117917241801978,0.003093226578077917,0.0,0.0,0.0,0.0,0.0,0.0,0.0,0.0,0.0,0.014163923510715255,0.07440852562341235,9.809794389527625,0.0,0.0,0.0,0.0,0.0,0.0,0.0,0.0,0.0
2025/05/25 18:16:04.67413667,1748189764,65206076,mA1/imu,0.16054487664248165,-0.98702808717897,-0.0008151049076069141,-0.0004830193198848556,0.0,0.0,0.0,0.0,0.0,0.0,0.0,0.0,0.0,-0.0005219589169444889,0.0017379573031557215,0.0030478241712190088,0.0,0.0,0.0,0.0,0.0,0.0,0.0,0.0,0.0,0.01973384655206624,-0.05951914078229882,9.809526027519032,0.0,0.0,0.0,0.0,0.0,0.0,0.0,0.0,0.0
2025/05/25 18:16:04.115971431,1748189764,115096859,mA1/imu,0.16047141930260111,-0.9870400471796962,-0.0008224438716983586,-0.0004386759507877899,0.0,0.0,0.0,0.0,0.0,0.0,0.0,0.0,0.0,-0.001823665856415899,0.0016717678942197393,0.0029318908795088546,0.0,0.0,0.0,0.0,0.0,0.0,0.0,0.0,0.0,0.01900515765814249,0.5363689238488244,9.811065718372706,0.0,0.0,0.0,0.0,0.0,0.0,0.0,0.0,0.0
2025/05/25 18:16:04.168873298,1748189764,166039000,mA1/imu,0.1604016614691603,-0.9870514044066729,-0.0008201078412104891,-0.0003993493158528398,0.0,0.0,0.0,0.0,0.0,0.0,0.0,0.0,0.0,-0.001110633818196387,0.0015351449561303643,0.002768967886406916,0.0,0.0,0.0,0.0,0.0,0.0,0.0,0.0,0.0,0.015680159975548925,0.5849309800574231,9.809074540036379,0.0,0.0,0.0,0.0,0.0,0.0,0.0,0.0,0.0
2025/05/25 18:16:04.216888004,1748189764,215944036,mA1/imu,0.16033514888739395,-0.987062219409361,-0.0008274840095020723,-0.00036099326526414235,0.0,0.0,0.0,0.0,0.0,0.0,0.0,0.0,0.0,0.0005805262619532494,0.001440440295487587,0.0026864573004710865,0.0,0.0,0.0,0.0,0.0,0.0,0.0,0.0,0.0,0.009314071174808968,-0.20161324922473112,9.810293533696182,0.0,0.0,0.0,0.0,0.0,0.0,0.0,0.0,0.0
2025/05/25 18:16:04.269388085,1748189764,268416481,mA1/imu,0.16027059913574004,-0.987072714479801,-0.0008276731531633418,-0.00032609707077142455,0.0,0.0,0.0,0.0,0.0,0.0,0.0,0.0,0.0,0.0012025817368003897,0.0012710717257008025,0.0025607849297757676,0.0,0.0,0.0,0.0,0.0,0.0,0.0,0.0,0.0,0.01720815065077926,-0.37624325078241355,9.809686101645939,0.0,0.0,0.0,0.0,0.0,0.0,0.0,0.0,0.0
2025/05/25 18:16:04.320157042,1748189764,318209127,mA1/imu,0.16020940529659308,-0.987082653895479,-0.0008319527481034357,-0.0002978049615648797,0.0,0.0,0.0,0.0,0.0,0.0,0.0,0.0,0.0,-0.00041356508984454393,0.0009598540218330278,0.0024288228814154655,0.0,0.0,0.0,0.0,0.0,0.0,0.0,0.0,0.0,0.01753025289978116,0.6141794128121886,9.811611999892053,0.0,0.0,0.0,0.0,0.0,0.0,0.0,0.0,0.0
2025/05/25 18:16:04.372277964,1748189764,371366272,mA1/imu,0.1601514719500605,-0.9870920578219041,-0.0008356127885701062,-0.00027779203599355754,0.0,0.0,0.0,0.0,0.0,0.0,0.0,0.0,0.0,-0.0015839435704637138,0.0006506266086688012,0.0023013904762880432,0.0,0.0,0.0,0.0,0.0,0.0,0.0,0.0,0.0,0.014254736698535848,0.5276060606064137,9.811028679895939,0.0,0.0,0.0,0.0,0.0,0.0,0.0,0.0,0.0
2025/05/25 18:16:04.422664456,1748189764,421819994,mA1/imu,0.16009612972379894,-0.9871010390868128,-0.0008350029220378738,-0.0002658031512245123,0.0,0.0,0.0,0.0,0.0,0.0,0.0,0.0,0.0,0.00023262849156259065,0.00035020760763897256,0.002190877555048046,0.0,0.0,0.0,0.0,0.0,0.0,0.0,0.0,0.0,0.015695560561884734,0.007911412128048599,9.811412664914538,0.0,0.0,0.0,0.0,0.0,0.0,0.0,0.0,0.0
2025/05/25 18:16:04.474778265,1748189764,473896000,mA1/imu,0.16004425990874688,-0.9871094533347273,-0.0008327254742791113,-0.00026186974192150884,0.0,0.0,0.0,0.0,0.0,0.0,0.0,0.0,0.0,0.0005031766375444987,5.1014354689652265e-05,0.0020410599876109965,0.0,0.0,0.0,0.0,0.0,0.0,0.0,0.0,0.0,0.014532173309427554,0.030101485305011555,9.810808554771622,0.0,0.0,0.0,0.0,0.0,0.0,0.0,0.0,0.0
2025/05/25 18:16:04.515117978,1748189764,513912894,mA1/imu,0.15999622659034557,-0.9871172407972145,-0.0008307944577201642,-0.00026491189785852315,0.0,0.0,0.0,0.0,0.0,0.0,0.0,0.0,0.0,-0.0004226807574651872,-0.0002093703573931247,0.0018822695605509383,0.0,0.0,0.0,0.0,0.0,0.0,0.0,0.0,0.0,0.014192003337385179,0.5855814936530904,9.81159443782102,0.0,0.0,0.0,0.0,0.0,0.0,0.0,0.0,0.0
2025/05/25 18:16:04.567497938,1748189764,565060287,mA1/imu,0.15995077438297242,-0.9871246051526356,-0.0008298519255022503,-0.0002739020306687763,0.0,0.0,0.0,0.0,0.0,0.0,0.0,0.0,0.0,-0.0008204006808705268,-0.0004306696513996525,0.0018209612147947008,0.0,0.0,0.0,0.0,0.0,0.0,0.0,0.0,0.0,0.013081509397757452,0.4599205019534253,9.81117932828916,0.0,0.0,0.0,0.0,0.0,0.0,0.0,0.0,0.0
2025/05/25 18:16:04.616856626,1748189764,614758343,mA1/imu,0.15990670786601652,-0.9871317487387937,-0.0008195660981952775,-0.00028934884511806996,0.0,0.0,0.0,0.0,0.0,0.0,0.0,0.0,0.0,0.0010208994944237346,-0.0006343699743861982,0.0017482417727189242,0.0,0.0,0.0,0.0,0.0,0.0,0.0,0.0,0.0,0.014821821169584401,-0.583616461775261,9.809563050112622,0.0,0.0,0.0,0.0,0.0,0.0,0.0,0.0,0.0
2025/05/25 18:16:04.668080198,1748189764,665859442,mA1/imu,0.1598643925058683,-0.9871386084223827,-0.0008048513544438744,-0.00030981437802826055,0.0,0.0,0.0,0.0,0.0,0.0,0.0,0.0,0.0,0.0007402569271453559,-0.0007564457653215146,0.0016955932187934578,0.0,0.0,0.0,0.0,0.0,0.0,0.0,0.0,0.0,0.011813742686848828,0.3836723332988322,9.810940550857037,0.0,0.0,0.0,0.0,0.0,0.0,0.0,0.0,0.0
2025/05/25 18:16:04.717480150,1748189764,715686310,mA1/imu,0.1598231745085869,-0.9871452828763829,-0.0007959184873034536,-0.0003315096762271664,0.0,0.0,0.0,0.0,0.0,0.0,0.0,0.0,0.0,-0.0002367185936541197,-0.0008163548880103464,0.0016520507152318342,0.0,0.0,0.0,0.0,0.0,0.0,0.0,0.0,0.0,0.011768106666509515,0.5746544790388165,9.809747147888332,0.0,0.0,0.0,0.0,0.0,0.0,0.0,0.0,0.0
2025/05/25 18:16:04.768803174,1748189764,766850624,mA1/imu,0.15978298941589952,-0.9871517863231787,-0.0007885996609557807,-0.00035378362144480576,0.0,0.0,0.0,0.0,0.0,0.0,0.0,0.0,0.0,6.465981475663504e-05,-0.0008333748238096583,0.001611278957712679,0.0,0.0,0.0,0.0,0.0,0.0,0.0,0.0,0.0,0.011278465986065682,-0.03808043537785697,9.810255337005254,0.0,0.0,0.0,0.0,0.0,0.0,0.0,0.0,0.0
2025/05/25 18:16:04.819446737,1748189764,817231794,mA1/imu,0.15974316002192981,-0.9871582368225759,-0.0007725858913096151,-0.00037604599722479757,0.0,0.0,0.0,0.0,0.0,0.0,0.0,0.0,0.0,0.0016906892239203968,-0.0007258419942329117,0.0016269239754406943,0.0,0.0,0.0,0.0,0.0,0.0,0.0,0.0,0.0,0.007554717344741333,-0.5562977587563843,9.8093947015478,0.0,0.0,0.0,0.0,0.0,0.0,0.0,0.0,0.0
2025/05/25 18:16:04.870582188,1748189764,868300505,mA1/imu,0.15970357241522326,-0.9871646445888921,-0.0007599658786749228,-0.0003948206743871141,0.0,0.0,0.0,0.0,0.0,0.0,0.0,0.0,0.0,0.0010095417581883943,-0.0006207139049096984,0.0015881566005529122,0.0,0.0,0.0,0.0,0.0,0.0,0.0,0.0,0.0,0.010515378184744935,-0.04797147376470811,9.809175434713797,0.0,0.0,0.0,0.0,0.0,0.0,0.0,0.0,0.0
2025/05/25 18:16:04.919263663,1748189764,918197814,mA1/imu,0.15966504953794644,-0.9871708795532401,-0.0007466384712977289,-0.0004111558345472067,0.0,0.0,0.0,0.0,0.0,0.0,0.0,0.0,0.0,0.00020317991339339114,-0.0005263530561023337,0.001540270389436443,0.0,0.0,0.0,0.0,0.0,0.0,0.0,0.0,0.0,0.012485738576817782,0.5528326375791315,9.810144925076916,0.0,0.0,0.0,0.0,0.0,0.0,0.0,0.0,0.0
2025/05/25 18:16:04.970401675,1748189764,969326234,mA1/imu,0.15962773463763272,-0.9871769135053713,-0.0007403151633285122,-0.00042392207452573397,0.0,0.0,0.0,0.0,0.0,0.0,0.0,0.0,0.0,-0.00011248007849535951,-0.0004201159467355151,0.0014925070672465162,0.0,0.0,0.0,0.0,0.0,0.0,0.0,0.0,0.0,0.011804984760871445,-0.03881348451687003,9.809347514076618,0.0,0.0,0.0,0.0,0.0,0.0,0.0,0.0,0.0
2025/05/25 18:16:05.21163227,1748189765,19529529,mA1/imu,0.15959061864682114,-0.9871829190377229,-0.0007288921837348439,-0.00043303148877364,0.0,0.0,0.0,0.0,0.0,0.0,0.0,0.0,0.0,-0.0007130582939847578,-0.00015743374304359568,0.0015303112721997425,0.0,0.0,0.0,0.0,0.0,0.0,0.0,0.0,0.0,0.006415368338899037,0.5584942549390124,9.808730691975702,0.0,0.0,0.0,0.0,0.0,0.0,0.0,0.0,0.0
2025/05/25 18:16:05.72215876,1748189765,71215257,mA1/imu,0.15955451666739337,-0.9871887553820938,-0.0007252564888412399,-0.00043756280979156454,0.0,0.0,0.0,0.0,0.0,0.0,0.0,0.0,0.0,0.0005952593669671857,-0.0001366266382589035,0.0014247471855621222,0.0,0.0,0.0,0.0,0.0,0.0,0.0,0.0,0.0,0.012609115990953506,-0.6057832218943955,9.808658059138276,0.0,0.0,0.0,0.0,0.0,0.0,0.0,0.0,0.0
2025/05/25 18:16:05.125198812,1748189765,122375718,mA1/imu,0.15951473492235066,-0.9871951920237336,-0.0007173032337655976,-0.0004332019699105675,0.0,0.0,0.0,0.0,0.0,0.0,0.0,0.0,0.0,0.0008435789296868736,0.00046799769411273734,0.00179295566442588,0.0,0.0,0.0,0.0,0.0,0.0,0.0,0.0,0.0,-0.000919048436843848,-0.5778013783881645,9.809306550278396,0.0,0.0,0.0,0.0,0.0,0.0,0.0,0.0,0.0
2025/05/25 18:16:05.174218649,1748189765,173329767,mA1/imu,0.15947117163820443,-0.9872022379589607,-0.0007136990514642166,-0.00042121113680086654,0.0,0.0,0.0,0.0,0.0,0.0,0.0,0.0,0.0,-0.00028606623082282523,0.0005051027007956905,0.0017473313996329183,0.0,0.0,0.0,0.0,0.0,0.0,0.0,0.0,0.0,0.014656358011277102,-0.026428608949220694,9.808995166904591,0.0,0.0,0.0,0.0,0.0,0.0,0.0,0.0,0.0
2025/05/25 18:16:05.225100849,1748189765,223142937,mA1/imu,0.1594286977488282,-0.9872091107747826,-0.0007027913989637964,-0.0004099044097181227,0.0,0.0,0.0,0.0,0.0,0.0,0.0,0.0,0.0,-0.00027549447881517993,0.0005166018538269592,0.0017038488972580122,0.0,0.0,0.0,0.0,0.0,0.0,0.0,0.0,0.0,0.014502519643265079,-0.016072977095250417,9.810275992514407,0.0,0.0,0.0,0.0,0.0,0.0,0.0,0.0,0.0
2025/05/25 18:16:05.275324916,1748189765,274393715,mA1/imu,0.15938728552238535,-0.9872158045044599,-0.0007002759795243411,-0.0003976983408897821,0.0,0.0,0.0,0.0,0.0,0.0,0.0,0.0,0.0,0.0013229435746058968,0.00048728953691799077,0.0016613734197499278,0.0,0.0,0.0,0.0,0.0,0.0,0.0,0.0,0.0,0.01380282575698882,0.10704080481615244,9.80989903634449,0.0,0.0,0.0,0.0,0.0,0.0,0.0,0.0,0.0
2025/05/25 18:16:05.315446660,1748189765,314146294,mA1/imu,0.15934691136101622,-0.9872223212266513,-0.0007088764796626742,-0.0003844550735860219,0.0,0.0,0.0,0.0,0.0,0.0,0.0,0.0,0.0,0.0014795960427794205,0.00043118468887864394,0.0016204819263045686,0.0,0.0,0.0,0.0,0.0,0.0,0.0,0.0,0.0,0.014503579191782618,-0.5046207152879272,9.80888381387462,0.0,0.0,0.0,0.0,0.0,0.0,0.0,0.0,0.0
2025/05/25 18:16:05.367555370,1748189765,365115810,mA1/imu,0.15930754362885308,-0.9872286735434663,-0.0007167528360429483,-0.0003727491397469686,0.0,0.0,0.0,0.0,0.0,0.0,0.0,0.0,0.0,-0.00012226976456223304,0.0003784737959966348,0.0015796494999015202,0.0,0.0,0.0,0.0,0.0,0.0,0.0,0.0,0.0,0.014454439228487324,0.024977243839584225,9.811292723065687,0.0,0.0,0.0,0.0,0.0,0.0,0.0,0.0,0.0
2025/05/25 18:16:05.416003610,1748189765,414972202,mA1/imu,0.15926647919237077,-0.9872352945130854,-0.000730321685571139,-0.00035847393628019925,0.0,0.0,0.0,0.0,0.0,0.0,0.0,0.0,0.0,-0.0003978801774585532,0.0005245283441747042,0.001709583646454575,0.0,0.0,0.0,0.0,0.0,0.0,0.0,0.0,0.0,0.01150435224951975,-0.339834124360181,9.809754015283543,0.0,0.0,0.0,0.0,0.0,0.0,0.0,0.0,0.0
2025/05/25 18:16:05.468714943,1748189765,467084027,mA1/imu,0.15922481305541164,-0.9872420103261008,-0.0007435909206354614,-0.00034500332054007737,0.0,0.0,0.0,0.0,0.0,0.0,0.0,0.0,0.0,-0.0008656041198000725,0.0003950687053725098,0.0016749283131469762,0.0,0.0,0.0,0.0,0.0,0.0,0.0,0.0,0.0,0.015064371255074807,0.3752224955950986,9.811050679852595,0.0,0.0,0.0,0.0,0.0,0.0,0.0,0.0,0.0
2025/05/25 18:16:05.518256986,1748189765,516956855,mA1/imu,0.1591840049828205,-0.9872485841985771,-0.0007572204062794549,-0.00033492206658582667,0.0,0.0,0.0,0.0,0.0,0.0,0.0,0.0,0.0,-0.0009779002762906996,0.00025749008664399154,0.001639412573354995,0.0,0.0,0.0,0.0,0.0,0.0,0.0,0.0,0.0,0.014689802229220441,-0.016736762845051226,9.809650847534499,0.0,0.0,0.0,0.0,0.0,0.0,0.0,0.0,0.0
2025/05/25 18:16:05.571516644,1748189765,568764290,mA1/imu,0.1591440619167425,-0.9872550128858151,-0.0007742148849848665,-0.0003281459750936757,0.0,0.0,0.0,0.0,0.0,0.0,0.0,0.0,0.0,-0.0014541308932144398,0.00010074674089016453,0.001604785758158961,0.0,0.0,0.0,0.0,0.0,0.0,0.0,0.0,0.0,0.015094590628961393,0.5765171921338836,9.811165386004227,0.0,0.0,0.0,0.0,0.0,0.0,0.0,0.0,0.0
2025/05/25 18:16:05.619435611,1748189765,618627205,mA1/imu,0.15910423063991405,-0.9872614263849175,-0.0007833988963068814,-0.0003256548291953599,0.0,0.0,0.0,0.0,0.0,0.0,0.0,0.0,0.0,-0.0007319069067304612,9.598587826289714e-06,0.001626918135002502,0.0,0.0,0.0,0.0,0.0,0.0,0.0,0.0,0.0,0.012731298324125721,0.6229423132196432,9.811139177548151,0.0,0.0,0.0,0.0,0.0,0.0,0.0,0.0,0.0
2025/05/25 18:16:05.670541450,1748189765,669590400,mA1/imu,0.15906457220299314,-0.9872677988460272,-0.0008061999703847113,-0.00032445832808214914,0.0,0.0,0.0,0.0,0.0,0.0,0.0,0.0,0.0,-0.00034031904203823694,-0.00017035808156275767,0.0015938896289676694,0.0,0.0,0.0,0.0,0.0,0.0,0.0,0.0,0.0,0.01466259411707875,-0.0027136330743868543,9.810314771137524,0.0,0.0,0.0,0.0,0.0,0.0,0.0,0.0,0.0
2025/05/25 18:16:05.722233000,1748189765,721367167,mA1/imu,0.15902681186233,-0.9872738683928418,-0.0008210222199849978,-0.0003283596370036731,0.0,0.0,0.0,0.0,0.0,0.0,0.0,0.0,0.0,-0.001288868108541319,-0.0002948316838211273,0.0014714934259815135,0.0,0.0,0.0,0.0,0.0,0.0,0.0,0.0,0.0,0.014156966315405117,0.3201715969737917,9.811015213836969,0.0,0.0,0.0,0.0,0.0,0.0,0.0,0.0,0.0
2025/05/25 18:16:05.773179641,1748189765,772237682,mA1/imu,0.15899104623268856,-0.9872796139210516,-0.0008360101353668626,-0.0003350235637847569,0.0,0.0,0.0,0.0,0.0,0.0,0.0,0.0,0.0,-0.0011080159494424216,-0.0003979843205867764,0.0014333145836398717,0.0,0.0,0.0,0.0,0.0,0.0,0.0,0.0,0.0,0.014782668926537644,-0.04582781093753853,9.810189735254719,0.0,0.0,0.0,0.0,0.0,0.0,0.0,0.0,0.0
2025/05/25 18:16:05.824290354,1748189765,822364234,mA1/imu,0.15895522203454682,-0.9872853686266905,-0.0008484037222215746,-0.00034423063760565117,0.0,0.0,0.0,0.0,0.0,0.0,0.0,0.0,0.0,-0.00020300620630742854,-0.0004772441229556998,0.0014618831566063607,0.0,0.0,0.0,0.0,0.0,0.0,0.0,0.0,0.0,0.01429834693901186,-0.620724805452164,9.808823041048765,0.0,0.0,0.0,0.0,0.0,0.0,0.0,0.0,0.0
2025/05/25 18:16:05.875454436,1748189765,873240687,mA1/imu,0.15891959772628247,-0.9872910900897605,-0.0008593557758948077,-0.00035552150392012343,0.0,0.0,0.0,0.0,0.0,0.0,0.0,0.0,0.0,-0.0016495431448387242,-0.0005471839607290717,0.0014304873416851754,0.0,0.0,0.0,0.0,0.0,0.0,0.0,0.0,0.0,0.0155801496147758,-0.10506765170970496,9.811570988812372,0.0,0.0,0.0,0.0,0.0,0.0,0.0,0.0,0.0
2025/05/25 18:16:05.916616901,1748189765,914168211,mA1/imu,0.15888534323330858,-0.9872966135552348,-0.000839386518811242,-0.000374163428634865,0.0,0.0,0.0,0.0,0.0,0.0,0.0,0.0,0.0,-0.0007098453971043365,-0.0006055998483066646,0.001354173943949244,0.0,0.0,0.0,0.0,0.0,0.0,0.0,0.0,0.0,0.014737157298393233,0.5825077564608364,9.808729594702083,0.0,0.0,0.0,0.0,0.0,0.0,0.0,0.0,0.0
2025/05/25 18:16:05.967576390,1748189765,965125885,mA1/imu,0.15885235436330564,-0.987301911280055,-0.000844946061627227,-0.00038930982271327447,0.0,0.0,0.0,0.0,0.0,0.0,0.0,0.0,0.0,0.0014110357122886152,-0.0006406207357771358,0.001323877200031585,0.0,0.0,0.0,0.0,0.0,0.0,0.0,0.0,0.0,0.013375604778196364,0.0864192558482438,9.810119101416273,0.0,0.0,0.0,0.0,0.0,0.0,0.0,0.0,0.0
2025/05/25 18:16:06.17522462,1748189766,14988520,mA1/imu,0.15881941922937948,-0.9873072063062375,-0.0008421689343366795,-0.0004039837882127685,0.0,0.0,0.0,0.0,0.0,0.0,0.0,0.0,0.0,0.0013200031476760183,-0.0005087737851333353,0.001353040165670157,0.0,0.0,0.0,0.0,0.0,0.0,0.0,0.0,0.0,0.010334919071461437,-0.5611313413601501,9.808925408998165,0.0,0.0,0.0,0.0,0.0,0.0,0.0,0.0,0.0
2025/05/25 18:16:06.67610083,1748189766,66056230,mA1/imu,0.1587864292508356,-0.9873125153318415,-0.0008324698687477042,-0.00041707169558057944,0.0,0.0,0.0,0.0,0.0,0.0,0.0,0.0,0.0,0.0012697259811726331,-0.00042975391427830216,0.001324717075078445,0.0,0.0,0.0,0.0,0.0,0.0,0.0,0.0,0.0,0.013351350859924187,-0.38189608998155344,9.808784923783659,0.0,0.0,0.0,0.0,0.0,0.0,0.0,0.0,0.0
2025/05/25 18:16:06.119905553,1748189766,116189036,mA1/imu,0.1587540986848619,-0.9873177257187091,-0.0008124530298608096,-0.00042959570222971867,0.0,0.0,0.0,0.0,0.0,0.0,0.0,0.0,0.0,0.002369616181351991,-0.0003372221955488266,0.0012990722440672127,0.0,0.0,0.0,0.0,0.0,0.0,0.0,0.0,0.0,0.013619267039593166,-0.5054386211961651,9.808571794591897,0.0,0.0,0.0,0.0,0.0,0.0,0.0,0.0,0.0
2025/05/25 18:16:06.168304367,1748189766,167208709,mA1/imu,0.15872240498255225,-0.9873228229695541,-0.0008066615697030247,-0.000436688787563812,0.0,0.0,0.0,0.0,0.0,0.0,0.0,0.0,0.0,0.0010487561673628194,-0.0001986213621063309,0.0012739965584141458,0.0,0.0,0.0,0.0,0.0,0.0,0.0,0.0,0.0,0.013048720038018408,0.030447851907598043,9.80961096741448,0.0,0.0,0.0,0.0,0.0,0.0,0.0,0.0,0.0
2025/05/25 18:16:06.219594097,1748189766,217313831,mA1/imu,0.15869275229849894,-0.9873275990832276,-0.0007923476280265836,-0.00044118217666867235,0.0,0.0,0.0,0.0,0.0,0.0,0.0,0.0,0.0,-0.0010524670585424457,-6.35654535845723e-06,0.001134587850720371,0.0,0.0,0.0,0.0,0.0,0.0,0.0,0.0,0.0,0.012797972323081585,0.3449523391197096,9.810365743699725,0.0,0.0,0.0,0.0,0.0,0.0,0.0,0.0,0.0
2025/05/25 18:16:06.270524400,1748189766,268593372,mA1/imu,0.1586652308905116,-0.9873320430864932,-0.0007643409572237736,-0.0004438288100594561,0.0,0.0,0.0,0.0,0.0,0.0,0.0,0.0,0.0,0.00039396005098880574,0.00014518049137116098,0.0011009528710573895,0.0,0.0,0.0,0.0,0.0,0.0,0.0,0.0,0.0,0.012657131389913652,-0.023061302255274904,9.808496673203713,0.0,0.0,0.0,0.0,0.0,0.0,0.0,0.0,0.0
2025/05/25 18:16:06.320315213,1748189766,318376633,mA1/imu,0.15863853994477736,-0.9873363525986716,-0.00073830117763601,-0.00044203247864802646,0.0,0.0,0.0,0.0,0.0,0.0,0.0,0.0,0.0,0.0006248974556897356,0.0003007150969232651,0.0010676025985182904,0.0,0.0,0.0,0.0,0.0,0.0,0.0,0.0,0.0,0.012807693285817982,0.6213476994264845,9.809885192965432,0.0,0.0,0.0,0.0,0.0,0.0,0.0,0.0,0.0
2025/05/25 18:16:06.370576082,1748189766,369370614,mA1/imu,0.1586126808833734,-0.9873405278068789,-0.0007135145639249898,-0.00043647450125846346,0.0,0.0,0.0,0.0,0.0,0.0,0.0,0.0,0.0,0.0022755931457706107,0.0004304403662939734,0.001033980545047832,0.0,0.0,0.0,0.0,0.0,0.0,0.0,0.0,0.0,0.011696385527248152,0.11060812535210443,9.81022823402797,0.0,0.0,0.0,0.0,0.0,0.0,0.0,0.0,0.0
2025/05/25 18:16:06.419973822,1748189766,419235658,mA1/imu,0.15857773979542011,-0.9873461643720809,-0.0006947614336535709,-0.0004116402147008689,0.0,0.0,0.0,0.0,0.0,0.0,0.0,0.0,0.0,0.0013359430878683888,0.0017149842986654488,0.0018092348491386538,0.0,0.0,0.0,0.0,0.0,0.0,0.0,0.0,0.0,-0.034899460870337635,0.046363992556610334,9.807812747718394,0.0,0.0,0.0,0.0,0.0,0.0,0.0,0.0,0.0
2025/05/25 18:16:06.471731201,1748189766,470241416,mA1/imu,0.15853364718809973,-0.9873532779444217,-0.0006695469330695868,-0.0003727580297261066,0.0,0.0,0.0,0.0,0.0,0.0,0.0,0.0,0.0,0.0010998297610415432,0.0016660891402581336,0.0017724917914056627,0.0,0.0,0.0,0.0,0.0,0.0,0.0,0.0,0.0,0.014611363966808285,0.19827122466303876,9.809293848355699,0.0,0.0,0.0,0.0,0.0,0.0,0.0,0.0,0.0
2025/05/25 18:16:06.523534593,1748189766,521516966,mA1/imu,0.15849045022682642,-0.9873602348617577,-0.0006572076509300548,-0.00033448278881471574,0.0,0.0,0.0,0.0,0.0,0.0,0.0,0.0,0.0,-0.0004391454775806036,0.0015273578397711465,0.0017367131014665558,0.0,0.0,0.0,0.0,0.0,0.0,0.0,0.0,0.0,0.015059475533883126,0.5223173103545978,9.811436167169733,0.0,0.0,0.0,0.0,0.0,0.0,0.0,0.0,0.0
2025/05/25 18:16:06.574265699,1748189766,573220601,mA1/imu,0.1584481165913364,-0.9873670497630601,-0.000642071263714951,-0.00030188630542772837,0.0,0.0,0.0,0.0,0.0,0.0,0.0,0.0,0.0,-0.0006884982150166104,0.0012874061955354353,0.0017018165761411694,0.0,0.0,0.0,0.0,0.0,0.0,0.0,0.0,0.0,0.015388847310285845,0.5683017161422799,9.810793890899397,0.0,0.0,0.0,0.0,0.0,0.0,0.0,0.0,0.0
2025/05/25 18:16:06.623998882,1748189766,623339060,mA1/imu,0.15840661269878406,-0.9873737225516026,-0.0006336773635474771,-0.00027481063933003526,0.0,0.0,0.0,0.0,0.0,0.0,0.0,0.0,0.0,-0.0007832658996993522,0.0010035081420538498,0.0016690466846939278,0.0,0.0,0.0,0.0,0.0,0.0,0.0,0.0,0.0,0.015261578061958821,0.41395684567826935,9.810807070892515,0.0,0.0,0.0,0.0,0.0,0.0,0.0,0.0,0.0
2025/05/25 18:16:06.675173753,1748189766,674291388,mA1/imu,0.1583658953824024,-0.9873802647465798,-0.0006247417337061465,-0.00025625469805386073,0.0,0.0,0.0,0.0,0.0,0.0,0.0,0.0,0.0,0.000523931126466381,0.0006432495156230009,0.0016373687626040512,0.0,0.0,0.0,0.0,0.0,0.0,0.0,0.0,0.0,0.015137602137284684,-0.5844182620224277,9.8107750676396,0.0,0.0,0.0,0.0,0.0,0.0,0.0,0.0,0.0
2025/05/25 18:16:06.718515980,1748189766,714523155,mA1/imu,0.158325937398508,-0.9873866782457901,-0.000620119714330546,-0.00024621366339691467,0.0,0.0,0.0,0.0,0.0,0.0,0.0,0.0,0.0,0.0001912830870442641,0.0002867568065735186,0.0016068529193134834,0.0,0.0,0.0,0.0,0.0,0.0,0.0,0.0,0.0,0.014604984306282947,0.031743319294538525,9.810815972754284,0.0,0.0,0.0,0.0,0.0,0.0,0.0,0.0,0.0
2025/05/25 18:16:06.768892636,1748189766,765820373,mA1/imu,0.15828672026254484,-0.987392960146512,-0.0006304865413809853,-0.000242751636072803,0.0,0.0,0.0,0.0,0.0,0.0,0.0,0.0,0.0,-0.0008516846889261779,-7.869520577775117e-05,0.0015770461544138891,0.0,0.0,0.0,0.0,0.0,0.0,0.0,0.0,0.0,0.014935290774050073,-0.03350545982513343,9.811702781553269,0.0,0.0,0.0,0.0,0.0,0.0,0.0,0.0,0.0
2025/05/25 18:16:06.817781964,1748189766,816498889,mA1/imu,0.15824815941248463,-0.987399137438786,-0.0006334785820397078,-0.00024926409389262243,0.0,0.0,0.0,0.0,0.0,0.0,0.0,0.0,0.0,0.0005399957259331273,-0.00041186247690758426,0.0015520394000598002,0.0,0.0,0.0,0.0,0.0,0.0,0.0,0.0,0.0,0.013485935080062472,-0.55788747891018,9.810994062706481,0.0,0.0,0.0,0.0,0.0,0.0,0.0,0.0,0.0
2025/05/25 18:16:06.869413768,1748189766,868005375,mA1/imu,0.158210197729664,-0.987405211399697,-0.0006425795742950178,-0.0002625386653864959,0.0,0.0,0.0,0.0,0.0,0.0,0.0,0.0,0.0,0.0002533929501139466,-0.0006968934117053274,0.001527927004093888,0.0,0.0,0.0,0.0,0.0,0.0,0.0,0.0,0.0,0.012747379053423123,0.05948788948685045,9.810443641522367,0.0,0.0,0.0,0.0,0.0,0.0,0.0,0.0,0.0
2025/05/25 18:16:06.919815942,1748189766,917945933,mA1/imu,0.15817613861389604,-0.9874106513106048,-0.0006590197897125188,-0.00028380359710291985,0.0,0.0,0.0,0.0,0.0,0.0,0.0,0.0,0.0,-0.000978267760636042,-0.0011240243125979798,0.0012301752714642417,0.0,0.0,0.0,0.0,0.0,0.0,0.0,0.0,0.0,0.020776202296418852,0.6079913993543256,9.810739543432991,0.0,0.0,0.0,0.0,0.0,0.0,0.0,0.0,0.0
2025/05/25 18:16:06.972667208,1748189766,971388319,mA1/imu,0.1581461358578849,-0.9874154315308225,-0.0006849129673675406,-0.0003101326267247227,0.0,0.0,0.0,0.0,0.0,0.0,0.0,0.0,0.0,-0.0021769258601503374,-0.0012430721707884557,0.0012048033262395414,0.0,0.0,0.0,0.0,0.0,0.0,0.0,0.0,0.0,0.011300731919564209,0.530416401800017,9.811269002592885,0.0,0.0,0.0,0.0,0.0,0.0,0.0,0.0,0.0
2025/05/25 18:16:07.24205873,1748189767,21784571,mA1/imu,0.15811733311782827,-0.9874200206528714,-0.0007043807470317838,-0.000340043161789748,0.0,0.0,0.0,0.0,0.0,0.0,0.0,0.0,0.0,-0.00048008737465338365,-0.0013479387140490143,0.0011323166583439635,0.0,0.0,0.0,0.0,0.0,0.0,0.0,0.0,0.0,0.012738513881118858,-0.6058725416878996,9.809636304496125,0.0,0.0,0.0,0.0,0.0,0.0,0.0,0.0,0.0
2025/05/25 18:16:07.73639256,1748189767,72665792,mA1/imu,0.15808970503072278,-0.9874244264537668,-0.0007132813230342732,-0.00037206921797147696,0.0,0.0,0.0,0.0,0.0,0.0,0.0,0.0,0.0,0.0011141925852619433,-0.001294163508623456,0.0011090934919369946,0.0,0.0,0.0,0.0,0.0,0.0,0.0,0.0,0.0,0.009320806350080892,-0.4503107695271834,9.808859565697459,0.0,0.0,0.0,0.0,0.0,0.0,0.0,0.0,0.0
2025/05/25 18:16:07.123714940,1748189767,122551559,mA1/imu,0.1580626489115556,-0.987428731638192,-0.000734321425824382,-0.00039965797528464556,0.0,0.0,0.0,0.0,0.0,0.0,0.0,0.0,0.0,0.00027184403086199507,-0.0011756134782731971,0.0010862153064993016,0.0,0.0,0.0,0.0,0.0,0.0,0.0,0.0,0.0,0.010125975043677874,0.052123470738876514,9.810786629097334,0.0,0.0,0.0,0.0,0.0,0.0,0.0,0.0,0.0
2025/05/25 18:16:07.175573167,1748189767,173767854,mA1/imu,0.15803609292942844,-0.9874329591392982,-0.0007518217159062719,-0.00042343962687073784,0.0,0.0,0.0,0.0,0.0,0.0,0.0,0.0,0.0,-0.001244109327898529,-0.000950605782923527,0.0010757192768269998,0.0,0.0,0.0,0.0,0.0,0.0,0.0,0.0,0.0,0.006726045877746863,0.5868814406247175,9.809588435021489,0.0,0.0,0.0,0.0,0.0,0.0,0.0,0.0,0.0
2025/05/25 18:16:07.224619874,1748189767,223782720,mA1/imu,0.15800903660145174,-0.9874372698713089,-0.000767277224775115,-0.00044012161630505595,0.0,0.0,0.0,0.0,0.0,0.0,0.0,0.0,0.0,-0.0010653507160163472,-0.0006360959638585861,0.0010961998705221819,0.0,0.0,0.0,0.0,0.0,0.0,0.0,0.0,0.0,0.008881465228422413,-0.03430491534538626,9.808545581885546,0.0,0.0,0.0,0.0,0.0,0.0,0.0,0.0,0.0
2025/05/25 18:16:07.265732938,1748189767,264736076,mA1/imu,0.15798228211581627,-0.9874415423279499,-0.0007715286015024335,-0.00045140458066236246,0.0,0.0,0.0,0.0,0.0,0.0,0.0,0.0,0.0,0.0006595960948710784,-0.0003570867122371929,0.0010751162615172901,0.0,0.0,0.0,0.0,0.0,0.0,0.0,0.0,0.0,0.009017441587974549,-0.5555470156560786,9.808885815380506,0.0,0.0,0.0,0.0,0.0,0.0,0.0,0.0,0.0
2025/05/25 18:16:07.319275893,1748189767,315317110,mA1/imu,0.15795605494384513,-0.9874457352915768,-0.0007726013530076933,-0.0004556843245410051,0.0,0.0,0.0,0.0,0.0,0.0,0.0,0.0,0.0,0.0006025897186854448,-6.003706080226323e-05,0.0010536184364598382,0.0,0.0,0.0,0.0,0.0,0.0,0.0,0.0,0.0,0.009621784803076733,0.059137239660975977,9.809920460690515,0.0,0.0,0.0,0.0,0.0,0.0,0.0,0.0,0.0
2025/05/25 18:16:07.368381039,1748189767,366259929,mA1/imu,0.15793036470281235,-0.9874498439195386,-0.0007755153653249765,-0.00045191153318856707,0.0,0.0,0.0,0.0,0.0,0.0,0.0,0.0,0.0,-0.0007937295095583384,0.00025205053788402966,0.0010323085602394286,0.0,0.0,0.0,0.0,0.0,0.0,0.0,0.0,0.0,0.00938147852646497,0.5857926751800835,9.80886615553033,0.0,0.0,0.0,0.0,0.0,0.0,0.0,0.0,0.0
2025/05/25 18:16:07.418553153,1748189767,416243894,mA1/imu,0.1579051951216828,-0.9874538783692022,-0.0007694246135813339,-0.0004420780113906752,0.0,0.0,0.0,0.0,0.0,0.0,0.0,0.0,0.0,0.0008680917591942588,0.0005392281332634248,0.0010115761845369987,0.0,0.0,0.0,0.0,0.0,0.0,0.0,0.0,0.0,0.008677720878526805,-0.5309649246377615,9.807567795171256,0.0,0.0,0.0,0.0,0.0,0.0,0.0,0.0,0.0
2025/05/25 18:16:07.469372759,1748189767,467175735,mA1/imu,0.15788053491868898,-0.9874578338833663,-0.0007630647650411568,-0.0004251215396066972,0.0,0.0,0.0,0.0,0.0,0.0,0.0,0.0,0.0,0.00020220252880086474,0.0008112094390525102,0.0009914159848296792,0.0,0.0,0.0,0.0,0.0,0.0,0.0,0.0,0.0,0.009560538743109635,0.007725091478053194,9.809861083157909,0.0,0.0,0.0,0.0,0.0,0.0,0.0,0.0,0.0
2025/05/25 18:16:07.519899088,1748189767,517160241,mA1/imu,0.157856361032117,-0.9874617222353667,-0.0007435113294370356,-0.00040446577638703345,0.0,0.0,0.0,0.0,0.0,0.0,0.0,0.0,0.0,0.0011231549652075872,0.0010165216763250886,0.0009721541184174345,0.0,0.0,0.0,0.0,0.0,0.0,0.0,0.0,0.0,0.009648893586044564,0.06400049331523175,9.810430717813652,0.0,0.0,0.0,0.0,0.0,0.0,0.0,0.0,0.0
2025/05/25 18:16:07.571727109,1748189767,569527112,mA1/imu,0.1578326639981228,-0.9874655256501659,-0.0007372135459695936,-0.00037728488570339596,0.0,0.0,0.0,0.0,0.0,0.0,0.0,0.0,0.0,0.0012905281044115874,0.001156251945299355,0.0009530885626868603,0.0,0.0,0.0,0.0,0.0,0.0,0.0,0.0,0.0,0.009821205268404016,-0.4528088455293345,9.808864980568154,0.0,0.0,0.0,0.0,0.0,0.0,0.0,0.0,0.0
2025/05/25 18:16:07.625588010,1748189767,621717606,mA1/imu,0.15780942891529753,-0.9874692563742692,-0.000728581745560001,-0.0003478932529479309,0.0,0.0,0.0,0.0,0.0,0.0,0.0,0.0,0.0,-0.0006944539930570529,0.0012453389167390314,0.0009346273877508346,0.0,0.0,0.0,0.0,0.0,0.0,0.0,0.0,0.0,0.00988516419196922,-0.0981296597439355,9.809195597753028,0.0,0.0,0.0,0.0,0.0,0.0,0.0,0.0,0.0
2025/05/25 18:16:07.674074335,1748189767,672995411,mA1/imu,0.1577866463482922,-0.9874729206373363,-0.0007094165953441691,-0.0003193277659687343,0.0,0.0,0.0,0.0,0.0,0.0,0.0,0.0,0.0,-0.00040128425267661456,0.0012524495843475687,0.000916232163695204,0.0,0.0,0.0,0.0,0.0,0.0,0.0,0.0,0.0,0.01090183304885352,-0.049868146641318195,9.81006745164997,0.0,0.0,0.0,0.0,0.0,0.0,0.0,0.0,0.0
2025/05/25 18:16:07.723560768,1748189767,722904650,mA1/imu,0.15776431259348805,-0.9874765086455444,-0.000694223429791919,-0.0002908589694535568,0.0,0.0,0.0,0.0,0.0,0.0,0.0,0.0,0.0,-0.00047175173519211104,0.0011979496131021238,0.0008983156686832785,0.0,0.0,0.0,0.0,0.0,0.0,0.0,0.0,0.0,0.010172516305845685,-0.05042504743240836,9.811255448522786,0.0,0.0,0.0,0.0,0.0,0.0,0.0,0.0,0.0
2025/05/25 18:16:07.776268957,1748189767,774090307,mA1/imu,0.1577424143353239,-0.9874800258504753,-0.0006773914401388755,-0.0002653428802840648,0.0,0.0,0.0,0.0,0.0,0.0,0.0,0.0,0.0,-0.00038919403390770367,0.001063388930863684,0.0008806491561760853,0.0,0.0,0.0,0.0,0.0,0.0,0.0,0.0,0.0,0.010840594463252808,0.47946839443405675,9.812498741942408,0.0,0.0,0.0,0.0,0.0,0.0,0.0,0.0,0.0
2025/05/25 18:16:07.814587664,1748189767,813946522,mA1/imu,0.15772093970483123,-0.987483474083363,-0.0006587678890668252,-0.0002441633575247985,0.0,0.0,0.0,0.0,0.0,0.0,0.0,0.0,0.0,0.0010090587733499231,0.0008801758769289324,0.0008634595611226052,0.0,0.0,0.0,0.0,0.0,0.0,0.0,0.0,0.0,0.01031301199916428,0.056412564195011713,9.8090972324961,0.0,0.0,0.0,0.0,0.0,0.0,0.0,0.0,0.0
2025/05/25 18:16:07.869894954,1748189767,867703884,mA1/imu,0.15769988008291286,-0.9874868444704422,-0.0006548014752994275,-0.00022595280796356286,0.0,0.0,0.0,0.0,0.0,0.0,0.0,0.0,0.0,0.000788394071704222,0.000641901986393825,0.0008467582893827354,0.0,0.0,0.0,0.0,0.0,0.0,0.0,0.0,0.0,0.010652986667714436,0.04658212629879055,9.80973391413677,0.0,0.0,0.0,0.0,0.0,0.0,0.0,0.0,0.0
2025/05/25 18:16:07.920533609,1748189767,917803798,mA1/imu,0.157678947908908,-0.9874901926016552,-0.0006495166763151369,-0.00021686395043884503,0.0,0.0,0.0,0.0,0.0,0.0,0.0,0.0,0.0,0.0010215018494010763,0.00018433149885312285,0.0008619568832409595,0.0,0.0,0.0,0.0,0.0,0.0,0.0,0.0,0.0,0.018088286227468445,-0.11975662708707582,9.811163929946424,0.0,0.0,0.0,0.0,0.0,0.0,0.0,0.0,0.0
2025/05/25 18:16:07.969864694,1748189767,968926000,mA1/imu,0.15765600518529352,-0.9874938591355744,-0.0006435375353341722,-0.00021922131692313115,0.0,0.0,0.0,0.0,0.0,0.0,0.0,0.0,0.0,0.000657899054632449,-0.00023074971254778348,0.0009534995145406076,0.0,0.0,0.0,0.0,0.0,0.0,0.0,0.0,0.0,0.014446820802853318,0.04654448039756896,9.81113295289126,0.0,0.0,0.0,0.0,0.0,0.0,0.0,0.0,0.0
2025/05/25 18:16:08.22071891,1748189768,19834679,mA1/imu,0.157628904568466,-0.9874981868195245,-0.0006387424714705992,-0.0002268937017516474,0.0,0.0,0.0,0.0,0.0,0.0,0.0,0.0,0.0,0.00016552216616932367,-0.00020253226953341277,0.001259241184458029,0.0,0.0,0.0,0.0,0.0,0.0,0.0,0.0,0.0,-0.0033208639784987675,0.656176799974805,9.813432896071062,0.0,0.0,0.0,0.0,0.0,0.0,0.0,0.0,0.0
2025/05/25 18:16:08.74209023,1748189768,72487114,mA1/imu,0.15759952705795144,-0.9875028677220257,-0.00064648560910792,-0.00023951668511321491,0.0,0.0,0.0,0.0,0.0,0.0,0.0,0.0,0.0,0.0004423715851235658,-0.0007797704803891578,0.0011379039271830528,0.0,0.0,0.0,0.0,0.0,0.0,0.0,0.0,0.0,0.018744753993802113,-0.0022707206354616143,9.811305141837558,0.0,0.0,0.0,0.0,0.0,0.0,0.0,0.0,0.0
2025/05/25 18:16:08.123691789,1748189768,122654043,mA1/imu,0.15757226669423946,-0.9875072086200077,-0.0006504127664421335,-0.00026581119832653143,0.0,0.0,0.0,0.0,0.0,0.0,0.0,0.0,0.0,0.0008791176312064629,-0.0012554637611305523,0.001086184374182013,0.0,0.0,0.0,0.0,0.0,0.0,0.0,0.0,0.0,0.018253719629846676,-0.5542737841542341,9.809608255658654,0.0,0.0,0.0,0.0,0.0,0.0,0.0,0.0,0.0
2025/05/25 18:16:08.177288701,1748189768,174109097,mA1/imu,0.15754733058347245,-0.9875111738467884,-0.0006543388245707904,-0.00030330588990303665,0.0,0.0,0.0,0.0,0.0,0.0,0.0,0.0,0.0,0.0006166455755077807,-0.001670387745844842,0.0009580134228333421,0.0,0.0,0.0,0.0,0.0,0.0,0.0,0.0,0.0,0.018814492590239526,0.06044362715387214,9.811627022295179,0.0,0.0,0.0,0.0,0.0,0.0,0.0,0.0,0.0
2025/05/25 18:16:08.216335773,1748189768,214463055,mA1/imu,0.1575215018669883,-0.9875152724351225,-0.0006666576532172706,-0.00034456425736732255,0.0,0.0,0.0,0.0,0.0,0.0,0.0,0.0,0.0,-0.0009782818975689724,-0.0017268521381237495,0.0011011697284853844,0.0,0.0,0.0,0.0,0.0,0.0,0.0,0.0,0.0,0.015452011430941472,0.5830906765323661,9.811911667854764,0.0,0.0,0.0,0.0,0.0,0.0,0.0,0.0,0.0
2025/05/25 18:16:08.267169100,1748189768,265835695,mA1/imu,0.1574957315985261,-0.9875193547009465,-0.0006828000890081456,-0.0003903886647290015,0.0,0.0,0.0,0.0,0.0,0.0,0.0,0.0,0.0,-0.0009823288074793542,-0.00201253075751337,0.001002617827421729,0.0,0.0,0.0,0.0,0.0,0.0,0.0,0.0,0.0,0.020249932563552737,-0.04382300723649299,9.809916914012538,0.0,0.0,0.0,0.0,0.0,0.0,0.0,0.0,0.0
2025/05/25 18:16:08.317151404,1748189768,315667673,mA1/imu,0.1574724833236362,-0.987523031976274,-0.0006947480741776553,-0.0004423091537728971,0.0,0.0,0.0,0.0,0.0,0.0,0.0,0.0,0.0,0.0005037323967026011,-0.002192271915754793,0.0008999600484198995,0.0,0.0,0.0,0.0,0.0,0.0,0.0,0.0,0.0,0.019877143747410158,-0.5651583819480376,9.808647382163159,0.0,0.0,0.0,0.0,0.0,0.0,0.0,0.0,0.0
2025/05/25 18:16:08.369627938,1748189768,367385474,mA1/imu,0.15745175468344833,-0.9875263014570645,-0.0007092490348049138,-0.0004958260184595728,0.0,0.0,0.0,0.0,0.0,0.0,0.0,0.0,0.0,-0.0007417127436224827,-0.0022011967075411484,0.0007969487284414029,0.0,0.0,0.0,0.0,0.0,0.0,0.0,0.0,0.0,0.018548030349960755,0.6130522226326156,9.810751587715293,0.0,0.0,0.0,0.0,0.0,0.0,0.0,0.0,0.0
2025/05/25 18:16:08.420356307,1748189768,418175301,mA1/imu,0.15743194277128733,-0.9875294198866377,-0.000726514419212539,-0.000548115332628738,0.0,0.0,0.0,0.0,0.0,0.0,0.0,0.0,0.0,-0.0009016262074715693,-0.0021153030403955417,0.0008279225106989339,0.0,0.0,0.0,0.0,0.0,0.0,0.0,0.0,0.0,0.018262811012130578,0.6076007172036096,9.809599230230756,0.0,0.0,0.0,0.0,0.0,0.0,0.0,0.0,0.0
2025/05/25 18:16:08.470370096,1748189768,469145555,mA1/imu,0.1574127394916251,-0.9875324356093967,-0.0007509218663497394,-0.0005951314686834339,0.0,0.0,0.0,0.0,0.0,0.0,0.0,0.0,0.0,0.000504381072253228,-0.0019242670659547763,0.0007429472255088521,0.0,0.0,0.0,0.0,0.0,0.0,0.0,0.0,0.0,0.01849583248512257,-0.5549166029386187,9.807271219268682,0.0,0.0,0.0,0.0,0.0,0.0,0.0,0.0,0.0
2025/05/25 18:16:08.522926119,1748189768,520779010,mA1/imu,0.15739155404176694,-0.9875357777519418,-0.0007663088444590238,-0.0006317807689286566,0.0,0.0,0.0,0.0,0.0,0.0,0.0,0.0,0.0,0.0011968604890238148,-0.0013243190998818166,0.0009302088754269199,0.0,0.0,0.0,0.0,0.0,0.0,0.0,0.0,0.0,0.016192153142921446,-0.509362530850515,9.808274079472463,0.0,0.0,0.0,0.0,0.0,0.0,0.0,0.0,0.0
2025/05/25 18:16:08.574687286,1748189768,573277362,mA1/imu,0.15736958498307257,-0.9875392491854393,-0.0007832291939566644,-0.0006569570337241796,0.0,0.0,0.0,0.0,0.0,0.0,0.0,0.0,0.0,-0.0007238962719311419,-0.0009547153078345274,0.0008640851451401231,0.0,0.0,0.0,0.0,0.0,0.0,0.0,0.0,0.0,0.01927146469896104,0.6203211426759615,9.810090290201153,0.0,0.0,0.0,0.0,0.0,0.0,0.0,0.0,0.0
2025/05/25 18:16:08.624254508,1748189768,623125875,mA1/imu,0.1573475718518673,-0.987542732962502,-0.0007993565713139073,-0.0006732268161536622,0.0,0.0,0.0,0.0,0.0,0.0,0.0,0.0,0.0,-0.00016014911184744282,-0.0005879639126561565,0.0009348062736083227,0.0,0.0,0.0,0.0,0.0,0.0,0.0,0.0,0.0,0.0189823546634509,0.03178232013023959,9.807676657146454,0.0,0.0,0.0,0.0,0.0,0.0,0.0,0.0,0.0
2025/05/25 18:16:08.665992206,1748189768,664675458,mA1/imu,0.15732494534188565,-0.9875463238835847,-0.0008109632804326344,-0.0006797762488217965,0.0,0.0,0.0,0.0,0.0,0.0,0.0,0.0,0.0,0.0014392170546554525,-0.00016499727891546354,0.0009044710415058298,0.0,0.0,0.0,0.0,0.0,0.0,0.0,0.0,0.0,0.018404161341172218,-0.49044053023634243,9.80734916758647,0.0,0.0,0.0,0.0,0.0,0.0,0.0,0.0,0.0
2025/05/25 18:16:08.716866070,1748189768,715018425,mA1/imu,0.15730145449763375,-0.9875500556421306,-0.0008297724381050785,-0.0006719314357535381,0.0,0.0,0.0,0.0,0.0,0.0,0.0,0.0,0.0,-8.475435731959265e-05,0.0004384532810994954,0.0010115413579549941,0.0,0.0,0.0,0.0,0.0,0.0,0.0,0.0,0.0,0.012464011036178892,0.02815643723936228,9.810282591935646,0.0,0.0,0.0,0.0,0.0,0.0,0.0,0.0,0.0
2025/05/25 18:16:08.766968762,1748189768,766167693,mA1/imu,0.15727677136275187,-0.9875539852167055,-0.000847539295968855,-0.0006520348562064059,0.0,0.0,0.0,0.0,0.0,0.0,0.0,0.0,0.0,-0.001355301216897305,0.0008115027969620814,0.0009939865970887128,0.0,0.0,0.0,0.0,0.0,0.0,0.0,0.0,0.0,0.0209091068103369,-0.1900954135531814,9.810171554310289,0.0,0.0,0.0,0.0,0.0,0.0,0.0,0.0,0.0
2025/05/25 18:16:08.818815446,1748189768,816680144,mA1/imu,0.15726193462424193,-0.9875563486921262,-0.0008573633365307172,-0.0006379688279057747,0.0,0.0,0.0,0.0,0.0,0.0,0.0,0.0,0.0,-0.0025045499381658198,0.00010642645103580346,0.00021698273482221325,0.0,0.0,0.0,0.0,0.0,0.0,0.0,0.0,0.0,0.06190971896274672,0.3120596682538816,9.809653382951026,0.0,0.0,0.0,0.0,0.0,0.0,0.0,0.0,0.0
2025/05/25 18:16:08.871520372,1748189768,869587848,mA1/imu,0.1572615391280445,-0.9875564173918624,-0.0008508972852753776,-0.0006377719327771097,0.0,0.0,0.0,0.0,0.0,0.0,0.0,0.0,0.0,-0.0012762501745931755,9.037226725315074e-05,-0.00011754505262602891,0.0,0.0,0.0,0.0,0.0,0.0,0.0,0.0,0.0,0.028099922166048244,0.5592331908604738,9.809703445030868,0.0,0.0,0.0,0.0,0.0,0.0,0.0,0.0,0.0
2025/05/25 18:16:08.923004492,1748189768,919680763,mA1/imu,0.15727110728784308,-0.9875548829539185,-0.0008646826913452376,-0.0006358381646030498,0.0,0.0,0.0,0.0,0.0,0.0,0.0,0.0,0.0,-0.0007411055355457598,1.0489826050480665e-05,-0.0005695392852743046,0.0,0.0,0.0,0.0,0.0,0.0,0.0,0.0,0.0,0.023940867293953193,0.5926734328677176,9.810325153546922,0.0,0.0,0.0,0.0,0.0,0.0,0.0,0.0,0.0
2025/05/25 18:16:08.972930442,1748189768,971995829,mA1/imu,0.15729107208528836,-0.9875516965649924,-0.0008754988745229538,-0.0006314709702319141,0.0,0.0,0.0,0.0,0.0,0.0,0.0,0.0,0.0,-0.0013843232653279723,0.00028368058596219627,-0.0009017003209722612,0.0,0.0,0.0,0.0,0.0,0.0,0.0,0.0,0.0,0.0046370891238261824,0.45912846526979884,9.809278359936963,0.0,0.0,0.0,0.0,0.0,0.0,0.0,0.0,0.0
2025/05/25 18:16:09.25163597,1748189769,22048983,mA1/imu,0.15731337187752356,-0.9875481549938826,-0.0008781874461946612,-0.000611051153162655,0.0,0.0,0.0,0.0,0.0,0.0,0.0,0.0,0.0,-0.001082463096628895,0.0011629754947066616,-0.0009262865792248848,0.0,0.0,0.0,0.0,0.0,0.0,0.0,0.0,0.0,0.0018620900750032313,0.40527441258,9.81030686542816,0.0,0.0,0.0,0.0,0.0,0.0,0.0,0.0,0.0
2025/05/25 18:16:09.74375057,1748189769,73135858,mA1/imu,0.15733460578881656,-0.9875448021734522,-0.0008716080902855887,-0.0005708071580949638,0.0,0.0,0.0,0.0,0.0,0.0,0.0,0.0,0.0,0.00046936890251871965,0.001955728785420932,-0.0008125053260003236,0.0,0.0,0.0,0.0,0.0,0.0,0.0,0.0,0.0,0.0016775078714214124,0.0381764137312342,9.812295988781019,0.0,0.0,0.0,0.0,0.0,0.0,0.0,0.0,0.0
2025/05/25 18:16:09.124682517,1748189769,123365924,mA1/imu,0.15735714754277733,-0.9875412476796727,-0.0008639449096489126,-0.0005156041788011686,0.0,0.0,0.0,0.0,0.0,0.0,0.0,0.0,0.0,0.001898189964367156,0.00238011872503874,-0.0009797664778650947,0.0,0.0,0.0,0.0,0.0,0.0,0.0,0.0,0.0,0.0072262822905940355,-0.5045921665221168,9.810633713996076,0.0,0.0,0.0,0.0,0.0,0.0,0.0,0.0,0.0
2025/05/25 18:16:09.165490675,1748189769,164525779,mA1/imu,0.15737985220540382,-0.9875376739793513,-0.0008516136332896058,-0.0004464812171196751,0.0,0.0,0.0,0.0,0.0,0.0,0.0,0.0,0.0,0.0007319961567802697,0.003038135941718349,-0.0008774373099910392,0.0,0.0,0.0,0.0,0.0,0.0,0.0,0.0,0.0,0.0029544355597984732,0.040165372916122224,9.809590564531112,0.0,0.0,0.0,0.0,0.0,0.0,0.0,0.0,0.0
2025/05/25 18:16:09.215288661,1748189769,214449553,mA1/imu,0.15739986323317076,-0.9875345330701817,-0.0008345186401977503,-0.0003641794565399488,0.0,0.0,0.0,0.0,0.0,0.0,0.0,0.0,0.0,0.0015786338988414332,0.0035307388503041685,-0.0007571552133994956,0.0,0.0,0.0,0.0,0.0,0.0,0.0,0.0,0.0,0.0017102847479370832,-0.5431677123090353,9.809745061149743,0.0,0.0,0.0,0.0,0.0,0.0,0.0,0.0,0.0
2025/05/25 18:16:09.267306682,1748189769,266500943,mA1/imu,0.15741712931936208,-0.9875318286350158,-0.0008123127064008446,-0.00027382056168129585,0.0,0.0,0.0,0.0,0.0,0.0,0.0,0.0,0.0,0.0008268380596923221,0.0037796726426001944,-0.0006531408367437629,0.0,0.0,0.0,0.0,0.0,0.0,0.0,0.0,0.0,0.003654229007632487,-0.6049085815306556,9.811843619333638,0.0,0.0,0.0,0.0,0.0,0.0,0.0,0.0,0.0
2025/05/25 18:16:09.317240958,1748189769,316337778,mA1/imu,0.15743651644077988,-0.9875287847752753,-0.0007794096408995869,-0.00018722145122776013,0.0,0.0,0.0,0.0,0.0,0.0,0.0,0.0,0.0,-0.00035216117519727165,0.0034633634112352716,-0.0009461204297824107,0.0,0.0,0.0,0.0,0.0,0.0,0.0,0.0,0.0,0.018099029018371376,0.5605810660176114,9.809881670290874,0.0,0.0,0.0,0.0,0.0,0.0,0.0,0.0,0.0
2025/05/25 18:16:09.368293635,1748189769,367343408,mA1/imu,0.15745847011657307,-0.9875253175215498,-0.000752606803239719,-0.00010500242982653944,0.0,0.0,0.0,0.0,0.0,0.0,0.0,0.0,0.0,7.058637663491696e-05,0.003370678059881222,-0.0008498522334241065,0.0,0.0,0.0,0.0,0.0,0.0,0.0,0.0,0.0,0.0024568225757983665,0.5944772302746932,9.810812710755188,0.0,0.0,0.0,0.0,0.0,0.0,0.0,0.0,0.0
2025/05/25 18:16:09.419343314,1748189769,418353360,mA1/imu,0.15747815093102352,-0.9875222051105231,-0.000725002308521898,-2.7652279617674215e-05,0.0,0.0,0.0,0.0,0.0,0.0,0.0,0.0,0.0,0.001906929060202,0.003087244629400056,-0.0007680929593371591,0.0,0.0,0.0,0.0,0.0,0.0,0.0,0.0,0.0,0.0038233341895537874,-0.5417126493115879,9.81019609078551,0.0,0.0,0.0,0.0,0.0,0.0,0.0,0.0,0.0
2025/05/25 18:16:09.470874002,1748189769,469366630,mA1/imu,0.15749655627192508,-0.9875192882840015,-0.0006989306043686591,3.905833889533805e-05,0.0,0.0,0.0,0.0,0.0,0.0,0.0,0.0,0.0,0.002021328935381861,0.0025760573510175445,-0.0007258937805911691,0.0,0.0,0.0,0.0,0.0,0.0,0.0,0.0,0.0,0.004317056643825768,-0.5371940936250087,9.80960039944698,0.0,0.0,0.0,0.0,0.0,0.0,0.0,0.0,0.0
2025/05/25 18:16:09.521268044,1748189769,519616930,mA1/imu,0.15751757950388917,-0.9875159495232939,-0.0006735800467003285,8.873704766127769e-05,0.0,0.0,0.0,0.0,0.0,0.0,0.0,0.0,0.0,0.0009541797953694821,0.0018157809958439352,-0.0009221573397403013,0.0,0.0,0.0,0.0,0.0,0.0,0.0,0.0,0.0,0.005110179894910362,-0.24168165240450973,9.811272678935048,0.0,0.0,0.0,0.0,0.0,0.0,0.0,0.0,0.0
2025/05/25 18:16:09.572656096,1748189769,571415776,mA1/imu,0.15754003836308852,-0.9875123803569349,-0.0006483537675574906,0.00012079622818331201,0.0,0.0,0.0,0.0,0.0,0.0,0.0,0.0,0.0,0.0005830439170732936,0.0011537243996495893,-0.0008998224715858636,0.0,0.0,0.0,0.0,0.0,0.0,0.0,0.0,0.0,0.003189168877048942,0.07041104061676981,9.811411043685165,0.0,0.0,0.0,0.0,0.0,0.0,0.0,0.0,0.0
2025/05/25 18:16:09.624640604,1748189769,621428990,mA1/imu,0.15756318399258432,-0.9875086963243833,-0.0006316316810772373,0.00013702282799452764,0.0,0.0,0.0,0.0,0.0,0.0,0.0,0.0,0.0,0.0005244588821759107,0.00047601879059804827,-0.0009863352432044447,0.0,0.0,0.0,0.0,0.0,0.0,0.0,0.0,0.0,0.0014726538291804192,-0.006768790753015036,9.807092264912201,0.0,0.0,0.0,0.0,0.0,0.0,0.0,0.0,0.0
2025/05/25 18:16:09.673999517,1748189769,672802128,mA1/imu,0.15758724743429892,-0.9875048656511339,-0.0006173936118645212,0.00013633247967458116,0.0,0.0,0.0,0.0,0.0,0.0,0.0,0.0,0.0,0.000507674039550843,-0.0002077132514255454,-0.0009654402419663714,0.0,0.0,0.0,0.0,0.0,0.0,0.0,0.0,0.0,0.0005519910160306443,0.0034622394001145793,9.808983708200113,0.0,0.0,0.0,0.0,0.0,0.0,0.0,0.0,0.0
2025/05/25 18:16:09.725042689,1748189769,723723432,mA1/imu,0.15761357324306866,-0.9875006714662584,-0.0006098792384270369,0.00011589027116016303,0.0,0.0,0.0,0.0,0.0,0.0,0.0,0.0,0.0,0.0003672096020487939,-0.0010967379900244834,-0.0011236783776862674,0.0,0.0,0.0,0.0,0.0,0.0,0.0,0.0,0.0,0.002489880295089447,-0.0004066083687021011,9.810300980880498,0.0,0.0,0.0,0.0,0.0,0.0,0.0,0.0,0.0
2025/05/25 18:16:09.766749138,1748189769,765126266,mA1/imu,0.157641061744381,-0.987496288039063,-0.0006086115094436386,7.970700805590852e-05,0.0,0.0,0.0,0.0,0.0,0.0,0.0,0.0,0.0,0.00021623891630272646,-0.0016252101848835863,-0.001108127726815154,0.0,0.0,0.0,0.0,0.0,0.0,0.0,0.0,0.0,-0.001263371460366671,-0.0013439695486091151,9.8097560515503,0.0,0.0,0.0,0.0,0.0,0.0,0.0,0.0,0.0
2025/05/25 18:16:09.818370772,1748189769,816292919,mA1/imu,0.15766674525590282,-0.9874921864224613,-0.0006149661436376429,3.1806278874641465e-05,0.0,0.0,0.0,0.0,0.0,0.0,0.0,0.0,0.0,-0.0004572599441556688,-0.002145105067203851,-0.000978464137102754,0.0,0.0,0.0,0.0,0.0,0.0,0.0,0.0,0.0,0.002485902960446579,-0.0371705435065883,9.810598171547532,0.0,0.0,0.0,0.0,0.0,0.0,0.0,0.0,0.0
2025/05/25 18:16:09.868980931,1748189769,867353954,mA1/imu,0.1576904749823951,-0.9874883927147035,-0.0006225646390303159,-2.769166932846127e-05,0.0,0.0,0.0,0.0,0.0,0.0,0.0,0.0,0.0,-0.0011363236609160366,-0.002541578386314861,-0.0009524136057069692,0.0,0.0,0.0,0.0,0.0,0.0,0.0,0.0,0.0,0.0008645201271371646,0.21264444862299373,9.8104805148696,0.0,0.0,0.0,0.0,0.0,0.0,0.0,0.0,0.0
2025/05/25 18:16:09.918825555,1748189769,917181739,mA1/imu,0.15770965096171205,-0.9874853210038873,-0.0006314469879556304,-8.983365844490128e-05,0.0,0.0,0.0,0.0,0.0,0.0,0.0,0.0,0.0,-0.0009343887915758349,-0.0023531888302990144,-0.0005816689991520884,0.0,0.0,0.0,0.0,0.0,0.0,0.0,0.0,0.0,-0.016807622110371713,0.27742662482227254,9.807736589072142,0.0,0.0,0.0,0.0,0.0,0.0,0.0,0.0,0.0
2025/05/25 18:16:09.970831441,1748189769,968538108,mA1/imu,0.15772202835449908,-0.9874833273338451,-0.0006457136261338874,-0.00015186617092704093,0.0,0.0,0.0,0.0,0.0,0.0,0.0,0.0,0.0,-8.17431425021049e-05,-0.002628597789848915,-0.000468906705630318,0.0,0.0,0.0,0.0,0.0,0.0,0.0,0.0,0.0,0.0040610350215338695,0.008877333837589901,9.808550244735846,0.0,0.0,0.0,0.0,0.0,0.0,0.0,0.0,0.0
2025/05/25 18:16:10.20540550,1748189770,18827003,mA1/imu,0.15773228219573585,-0.9874816669282765,-0.0006616141251217693,-0.00021656552425012822,0.0,0.0,0.0,0.0,0.0,0.0,0.0,0.0,0.0,-0.0013829204616859854,-0.0026358910546339397,-0.00036803361607428044,0.0,0.0,0.0,0.0,0.0,0.0,0.0,0.0,0.0,0.0007882673870804168,0.5069316832939534,9.81052959218412,0.0,0.0,0.0,0.0,0.0,0.0,0.0,0.0,0.0
2025/05/25 18:16:10.71805198,1748189770,69738900,mA1/imu,0.1577422521412922,-0.9874800413496507,-0.0006856205400364028,-0.00028240035402958097,0.0,0.0,0.0,0.0,0.0,0.0,0.0,0.0,0.0,-0.0013408667453325964,-0.0027758616824787997,-0.0004204689898671362,0.0,0.0,0.0,0.0,0.0,0.0,0.0,0.0,0.0,0.005938174006471276,-0.06623172350143047,9.810779544254757,0.0,0.0,0.0,0.0,0.0,0.0,0.0,0.0,0.0
2025/05/25 18:16:10.124742383,1748189770,120986382,mA1/imu,0.15775181224199364,-0.9874784804361878,-0.0007028846963859945,-0.00034980409886970447,0.0,0.0,0.0,0.0,0.0,0.0,0.0,0.0,0.0,-0.0014163455699726236,-0.0027528530057338084,-0.0003589905550617867,0.0,0.0,0.0,0.0,0.0,0.0,0.0,0.0,0.0,0.009279536874872155,-0.06109179201957783,9.80896889795438,0.0,0.0,0.0,0.0,0.0,0.0,0.0,0.0,0.0
2025/05/25 18:16:10.174855614,1748189770,173086406,mA1/imu,0.157760439736245,-0.9874770617601343,-0.0007248511883037855,-0.00041321005970097757,0.0,0.0,0.0,0.0,0.0,0.0,0.0,0.0,0.0,-0.0015190979864388515,-0.002539074168946895,-0.0003465823282563985,0.0,0.0,0.0,0.0,0.0,0.0,0.0,0.0,0.0,0.007123029514770141,0.4541287182234286,9.810713228041365,0.0,0.0,0.0,0.0,0.0,0.0,0.0,0.0,0.0
2025/05/25 18:16:10.225974395,1748189770,223793136,mA1/imu,0.15776959351636036,-0.9874755616672015,-0.0007407509542112561,-0.0004709137406289295,0.0,0.0,0.0,0.0,0.0,0.0,0.0,0.0,0.0,0.00047811435331521955,-0.0022773683291333418,-0.000398859964525732,0.0,0.0,0.0,0.0,0.0,0.0,0.0,0.0,0.0,0.009964257823714223,-0.5038355815304683,9.809062947232462,0.0,0.0,0.0,0.0,0.0,0.0,0.0,0.0,0.0
2025/05/25 18:16:10.265719235,1748189770,264957973,mA1/imu,0.15778016059720157,-0.9874738294772792,-0.0007672415488726327,-0.0005180345589215109,0.0,0.0,0.0,0.0,0.0,0.0,0.0,0.0,0.0,0.0006954893036978459,-0.0018424691473416983,-0.0004317779093145197,0.0,0.0,0.0,0.0,0.0,0.0,0.0,0.0,0.0,0.005978441655998217,-0.5434939560344249,9.808379711899583,0.0,0.0,0.0,0.0,0.0,0.0,0.0,0.0,0.0
2025/05/25 18:16:10.316016243,1748189770,314927994,mA1/imu,0.15778637847273405,-0.9874728116413033,-0.0007773202384924555,-0.0005484623277540407,0.0,0.0,0.0,0.0,0.0,0.0,0.0,0.0,0.0,-0.0015618802034378938,-0.0008159485131114001,-7.814815907560376e-05,0.0,0.0,0.0,0.0,0.0,0.0,0.0,0.0,0.0,-0.007498848321335478,0.5599916275960777,9.811419258714132,0.0,0.0,0.0,0.0,0.0,0.0,0.0,0.0,0.0
2025/05/25 18:16:10.368938529,1748189770,366806114,mA1/imu,0.15778798607882447,-0.987472540289914,-0.0007869137181545818,-0.0005607043542950155,0.0,0.0,0.0,0.0,0.0,0.0,0.0,0.0,0.0,0.0004651836887218312,-0.00036175137549277354,-7.008640955388413e-05,0.0,0.0,0.0,0.0,0.0,0.0,0.0,0.0,0.0,0.013153263896663266,0.06094187386992334,9.810720857208715,0.0,0.0,0.0,0.0,0.0,0.0,0.0,0.0,0.0
2025/05/25 18:16:10.419761481,1748189770,418228385,mA1/imu,0.15779055709879897,-0.9874721225893719,-0.0007938881086660389,-0.0005629750990867173,0.0,0.0,0.0,0.0,0.0,0.0,0.0,0.0,0.0,0.001048601451437925,-6.499628940112006e-07,-0.0001277817950997163,0.0,0.0,0.0,0.0,0.0,0.0,0.0,0.0,0.0,0.014510233962328482,-0.1255121631537854,9.809209001683485,0.0,0.0,0.0,0.0,0.0,0.0,0.0,0.0,0.0
2025/05/25 18:16:10.470958166,1748189770,469721629,mA1/imu,0.15779425357817853,-0.9874715301878931,-0.0008016926197030308,-0.00055488289743015,0.0,0.0,0.0,0.0,0.0,0.0,0.0,0.0,0.0,-6.481070699764379e-05,0.0004506975595593802,-0.00014788695472937578,0.0,0.0,0.0,0.0,0.0,0.0,0.0,0.0,0.0,0.0110791068027122,0.013706321126403992,9.80935805731093,0.0,0.0,0.0,0.0,0.0,0.0,0.0,0.0,0.0
2025/05/25 18:16:10.521585414,1748189770,519577028,mA1/imu,0.1577967103610965,-0.9874711459931762,-0.0008047450400245452,-0.0005351780638391336,0.0,0.0,0.0,0.0,0.0,0.0,0.0,0.0,0.0,-0.0002979741050938915,0.0009442759746978818,-6.972218865463493e-05,0.0,0.0,0.0,0.0,0.0,0.0,0.0,0.0,0.0,0.011576912385875352,-0.007906232888263948,9.808929930522494,0.0,0.0,0.0,0.0,0.0,0.0,0.0,0.0,0.0
2025/05/25 18:16:10.571618364,1748189770,570557079,mA1/imu,0.15779873601315397,-0.9874708420965396,-0.0007978786235510926,-0.0005082435476289879,0.0,0.0,0.0,0.0,0.0,0.0,0.0,0.0,0.0,0.0007141018781905275,0.0012274386060060361,-7.496597362676361e-05,0.0,0.0,0.0,0.0,0.0,0.0,0.0,0.0,0.0,0.012689931571301123,-0.20347295752828448,9.810863710673987,0.0,0.0,0.0,0.0,0.0,0.0,0.0,0.0,0.0
2025/05/25 18:16:10.623027193,1748189770,621658922,mA1/imu,0.1577995507275995,-0.987470731561366,-0.0007936934479316812,-0.0004755528773792206,0.0,0.0,0.0,0.0,0.0,0.0,0.0,0.0,0.0,-0.0007063689862653562,0.0013672014846220376,1.1739239567714613e-05,0.0,0.0,0.0,0.0,0.0,0.0,0.0,0.0,0.0,0.01776354589743711,0.5827556672745542,9.808986189202907,0.0,0.0,0.0,0.0,0.0,0.0,0.0,0.0,0.0
2025/05/25 18:16:10.667168663,1748189770,665348665,mA1/imu,0.15779970070639568,-0.987470729871704,-0.0007853159331122265,-0.0004420209285926243,0.0,0.0,0.0,0.0,0.0,0.0,0.0,0.0,0.0,0.0010605683925515705,0.0013932480822021777,-9.335477433786873e-06,0.0,0.0,0.0,0.0,0.0,0.0,0.0,0.0,0.0,0.0149727853205072,-0.2855582037726129,9.808532021131947,0.0,0.0,0.0,0.0,0.0,0.0,0.0,0.0,0.0
2025/05/25 18:16:10.717864716,1748189770,715710229,mA1/imu,0.15779842189408463,-0.9874709527917168,-0.0007818036073912316,-0.00040524495632105785,0.0,0.0,0.0,0.0,0.0,0.0,0.0,0.0,0.0,-0.000529945485104754,0.0015170204141533217,0.00011371065212495333,0.0,0.0,0.0,0.0,0.0,0.0,0.0,0.0,0.0,0.011967412778618286,-0.05166207988226928,9.811611944983344,0.0,0.0,0.0,0.0,0.0,0.0,0.0,0.0,0.0
2025/05/25 18:16:10.769446204,1748189770,766845210,mA1/imu,0.15779501197919107,-0.9874715259884096,-0.0007624369904995323,-0.0003718150671280355,0.0,0.0,0.0,0.0,0.0,0.0,0.0,0.0,0.0,-2.737693061218982e-05,0.0013890180156680423,0.0001558519314010343,0.0,0.0,0.0,0.0,0.0,0.0,0.0,0.0,0.0,0.017833772717367094,-0.021130258095607028,9.810284916819601,0.0,0.0,0.0,0.0,0.0,0.0,0.0,0.0,0.0
2025/05/25 18:16:10.818639306,1748189770,816891352,mA1/imu,0.15779054937996234,-0.9874722641739295,-0.0007433132853120715,-0.0003427811879019695,0.0,0.0,0.0,0.0,0.0,0.0,0.0,0.0,0.0,0.0009781831365219353,0.001178371608310044,0.00019864295100355814,0.0,0.0,0.0,0.0,0.0,0.0,0.0,0.0,0.0,0.01786410157140066,0.23949289326915893,9.811428529150165,0.0,0.0,0.0,0.0,0.0,0.0,0.0,0.0,0.0
2025/05/25 18:16:10.870128894,1748189770,868874525,mA1/imu,0.15778503684505485,-0.9874731607482337,-0.000733230932551544,-0.0003183113211088752,0.0,0.0,0.0,0.0,0.0,0.0,0.0,0.0,0.0,0.0011826018290073854,0.000920176663638465,0.00024087297531945394,0.0,0.0,0.0,0.0,0.0,0.0,0.0,0.0,0.0,0.017255428507274347,0.05724818587233381,9.809307055398452,0.0,0.0,0.0,0.0,0.0,0.0,0.0,0.0,0.0
2025/05/25 18:16:10.920072117,1748189770,918757307,mA1/imu,0.1577774402767702,-0.9874743901760337,-0.0007187624715640828,-0.00030243460536584054,0.0,0.0,0.0,0.0,0.0,0.0,0.0,0.0,0.0,0.0017666193013110977,0.0005503794642483816,0.00037484334764506907,0.0,0.0,0.0,0.0,0.0,0.0,0.0,0.0,0.0,0.019716989257332958,-0.5079239078382136,9.808505163900005,0.0,0.0,0.0,0.0,0.0,0.0,0.0,0.0,0.0
2025/05/25 18:16:10.972941950,1748189770,970775007,mA1/imu,0.15776749650004507,-0.9874759881410404,-0.0007088113919991019,-0.0002957691573610334,0.0,0.0,0.0,0.0,0.0,0.0,0.0,0.0,0.0,0.0007317351573395098,0.00016321461097483568,0.00042004396699576465,0.0,0.0,0.0,0.0,0.0,0.0,0.0,0.0,0.0,0.018521823424144483,0.02652265337326129,9.80896706829111,0.0,0.0,0.0,0.0,0.0,0.0,0.0,0.0,0.0
2025/05/25 18:16:11.22384557,1748189771,20696201,mA1/imu,0.15775728732615538,-0.9874776220804505,-0.0007034429436759122,-0.00029892115506873287,0.0,0.0,0.0,0.0,0.0,0.0,0.0,0.0,0.0,-0.00026099779403673947,-0.00027311794305388506,0.00039570637524665125,0.0,0.0,0.0,0.0,0.0,0.0,0.0,0.0,0.0,0.021978411928836393,-0.03996527001550218,9.811706485828772,0.0,0.0,0.0,0.0,0.0,0.0,0.0,0.0,0.0
2025/05/25 18:16:11.73689244,1748189771,71706099,mA1/imu,0.15774765697621865,-0.9874791603987227,-0.0006973696762912377,-0.00031332456234225536,0.0,0.0,0.0,0.0,0.0,0.0,0.0,0.0,0.0,-0.00031169695749912635,-0.0006730706592357794,0.0003987350338312841,0.0,0.0,0.0,0.0,0.0,0.0,0.0,0.0,0.0,0.01892572153407885,-0.04208224435644468,9.810085611772255,0.0,0.0,0.0,0.0,0.0,0.0,0.0,0.0,0.0
2025/05/25 18:16:11.114872303,1748189771,114142030,mA1/imu,0.1577380393162546,-0.9874806940336556,-0.0006897198665313791,-0.00033786088746245665,0.0,0.0,0.0,0.0,0.0,0.0,0.0,0.0,0.0,-0.00021587855988627322,-0.001082791051985299,0.00037081759570848223,0.0,0.0,0.0,0.0,0.0,0.0,0.0,0.0,0.0,0.02176605709669122,0.3700189065117801,9.808594552955597,0.0,0.0,0.0,0.0,0.0,0.0,0.0,0.0,0.0
2025/05/25 18:16:11.166854934,1748189771,165162087,mA1/imu,0.15772899363379903,-0.987482127228325,-0.0006899959473704401,-0.00036996957155996976,0.0,0.0,0.0,0.0,0.0,0.0,0.0,0.0,0.0,0.00039268054525645974,-0.0013619136308513163,0.00037279055017276765,0.0,0.0,0.0,0.0,0.0,0.0,0.0,0.0,0.0,0.017784362616992823,0.018099112173817742,9.808850757394637,0.0,0.0,0.0,0.0,0.0,0.0,0.0,0.0,0.0
2025/05/25 18:16:11.219446254,1748189771,217134307,mA1/imu,0.15771581330946485,-0.987484219036021,-0.0006904555027040573,-0.0004033090034651721,0.0,0.0,0.0,0.0,0.0,0.0,0.0,0.0,0.0,0.0009126914609777296,-0.0013230558552778313,0.0006307733030684804,0.0,0.0,0.0,0.0,0.0,0.0,0.0,0.0,0.0,0.017987878470577423,0.05517363854802799,9.810293886014799,0.0,0.0,0.0,0.0,0.0,0.0,0.0,0.0,0.0
2025/05/25 18:16:11.270490489,1748189771,268275950,mA1/imu,0.15769922248930643,-0.987486851087069,-0.0006941246105221722,-0.0004385743246116009,0.0,0.0,0.0,0.0,0.0,0.0,0.0,0.0,0.0,0.0008868367033690453,-0.001469089003893805,0.0006978425109998025,0.0,0.0,0.0,0.0,0.0,0.0,0.0,0.0,0.0,0.018567748282603498,0.060583877118667674,9.810997460166538,0.0,0.0,0.0,0.0,0.0,0.0,0.0,0.0,0.0
2025/05/25 18:16:11.319844491,1748189771,318810001,mA1/imu,0.15768093975614542,-0.9874897464787131,-0.0007044062582523992,-0.00047502510383264817,0.0,0.0,0.0,0.0,0.0,0.0,0.0,0.0,0.0,0.0009815888540867588,-0.0015358195647665772,0.0007675250777749109,0.0,0.0,0.0,0.0,0.0,0.0,0.0,0.0,0.0,0.01899449173253029,-0.5558082715790404,9.809435677924006,0.0,0.0,0.0,0.0,0.0,0.0,0.0,0.0,0.0
2025/05/25 18:16:11.374229481,1748189771,371745460,mA1/imu,0.1576609453975169,-0.9874929155822811,-0.0007110747840439129,-0.0005121950980193676,0.0,0.0,0.0,0.0,0.0,0.0,0.0,0.0,0.0,0.00029211309635838187,-0.0014899574504406363,0.0008369359596359934,0.0,0.0,0.0,0.0,0.0,0.0,0.0,0.0,0.0,0.017770871602028754,0.035850801284497524,9.810244394804526,0.0,0.0,0.0,0.0,0.0,0.0,0.0,0.0,0.0
2025/05/25 18:16:11.425443112,1748189771,421527008,mA1/imu,0.1576405939893486,-0.9874961407541999,-0.0007181076464446337,-0.0005472144505511518,0.0,0.0,0.0,0.0,0.0,0.0,0.0,0.0,0.0,-5.017573807184406e-05,-0.0013595418037105882,0.0008146012759065552,0.0,0.0,0.0,0.0,0.0,0.0,0.0,0.0,0.0,0.016807653637628556,0.6461890690510924,9.811915688442813,0.0,0.0,0.0,0.0,0.0,0.0,0.0,0.0,0.0
