time,header_stamp_secs,header_stamp_nsecs,header_frame_id,orientation_x,orientation_y,orientation_z,orientation_w,orientation_covariance_0,orientation_covariance_1,orientation_covariance_2,orientation_covariance_3,orientation_covariance_4,orientation_covariance_5,orientation_covariance_6,orientation_covariance_7,orientation_covariance_8,angular_velocity_x,angular_velocity_y,angular_velocity_z,angular_velocity_covariance_0,angular_velocity_covariance_1,angular_velocity_covariance_2,angular_velocity_covariance_3,angular_velocity_covariance_4,angular_velocity_covariance_5,angular_velocity_covariance_6,angular_velocity_covariance_7,angular_velocity_covariance_8,linear_acceleration_x,linear_acceleration_y,linear_acceleration_z,linear_acceleration_covariance_0,linear_acceleration_covariance_1,linear_acceleration_covariance_2,linear_acceleration_covariance_3,linear_acceleration_covariance_4,linear_acceleration_covariance_5,linear_acceleration_covariance_6,linear_acceleration_covariance_7,linear_acceleration_covariance_8
2025/05/25 18:47:31.721896093,1748191650,774356140,mA1/imu,0.7877137653247346,0.6160408624606074,0.00012533689972712351,0.0008148542087518221,0.0,0.0,0.0,0.0,0.0,0.0,0.0,0.0,0.0,-7.844792547423563e-05,-7.420110245601271e-05,-4.611857720224213e-05,0.0,0.0,0.0,0.0,0.0,0.0,0.0,0.0,0.0,0.007049138281759194,-0.5330809645929793,9.80876248400125,0.0,0.0,0.0,0.0,0.0,0.0,0.0,0.0,0.0
2025/05/25 18:47:31.730436856,1748191650,814163115,mA1/imu,0.787713026688274,0.6160417524346078,0.00015145497794658404,0.0008508256494254782,0.0,0.0,0.0,0.0,0.0,0.0,0.0,0.0,0.0,-0.0019229951305805716,-5.5947317678916774e-05,-4.520185587034136e-05,0.0,0.0,0.0,0.0,0.0,0.0,0.0,0.0,0.0,0.007959416277012195,0.6019720979153306,9.81120860538226,0.0,0.0,0.0,0.0,0.0,0.0,0.0,0.0,0.0
2025/05/25 18:47:31.743589525,1748191650,865140791,mA1/imu,0.7877122927426267,0.6160426222551592,0.00018316119215147972,0.0008932407957423427,0.0,0.0,0.0,0.0,0.0,0.0,0.0,0.0,0.0,-0.0033672100367400436,-3.7651532957645284e-05,-4.4363549017275756e-05,0.0,0.0,0.0,0.0,0.0,0.0,0.0,0.0,0.0,0.008003628748152962,0.4896734349137817,9.810531530179782,0.0,0.0,0.0,0.0,0.0,0.0,0.0,0.0,0.0
2025/05/25 18:47:31.754968818,1748191650,915237684,mA1/imu,0.787711578319186,0.6160434766095957,0.00020922355966859508,0.0009276498054080014,0.0,0.0,0.0,0.0,0.0,0.0,0.0,0.0,0.0,-0.001593136278510009,-1.9015540873311345e-05,-4.3527205464888896e-05,0.0,0.0,0.0,0.0,0.0,0.0,0.0,0.0,0.0,0.007108291322861992,-0.6326133359614071,9.809058151900716,0.0,0.0,0.0,0.0,0.0,0.0,0.0,0.0,0.0
2025/05/25 18:47:31.763858052,1748191650,966372141,mA1/imu,0.7877108831187065,0.6160443179702616,0.00022967795536788985,0.0009540235527336684,0.0,0.0,0.0,0.0,0.0,0.0,0.0,0.0,0.0,3.772280797558072e-06,2.06699667241422e-06,-4.2791079581465005e-05,0.0,0.0,0.0,0.0,0.0,0.0,0.0,0.0,0.0,0.007079675651678583,-0.5337244484900098,9.808708921279718,0.0,0.0,0.0,0.0,0.0,0.0,0.0,0.0,0.0
2025/05/25 18:47:31.773851088,1748191651,18389263,mA1/imu,0.7877101930990906,0.6160451450024129,0.00025310280328695714,0.0009833339821443935,0.0,0.0,0.0,0.0,0.0,0.0,0.0,0.0,0.0,-0.0015200407058230897,2.4791991736866173e-05,-4.218855184699455e-05,0.0,0.0,0.0,0.0,0.0,0.0,0.0,0.0,0.0,0.008014133287299748,0.6018876755947361,9.81098075975674,0.0,0.0,0.0,0.0,0.0,0.0,0.0,0.0,0.0
2025/05/25 18:47:32.172206666,1748191651,217298620,mA1/imu,0.7877076094390987,0.6160483354455043,0.0003035521543662214,0.0010384038969562083,0.0,0.0,0.0,0.0,0.0,0.0,0.0,0.0,0.0,-0.0003312387641589597,8.162673996755933e-05,-3.937777761156256e-05,0.0,0.0,0.0,0.0,0.0,0.0,0.0,0.0,0.0,0.00806914786952296,0.5921982747924129,9.810897652958388,0.0,0.0,0.0,0.0,0.0,0.0,0.0,0.0,0.0
2025/05/25 18:47:32.182674368,1748191651,270142142,mA1/imu,0.7877070039775941,0.6160491071339153,0.0003065144192482045,0.0010390058031704169,0.0,0.0,0.0,0.0,0.0,0.0,0.0,0.0,0.0,-0.0006220160089077647,7.774030261622683e-05,-3.8982241716673634e-05,0.0,0.0,0.0,0.0,0.0,0.0,0.0,0.0,0.0,0.008034577581703969,0.24388769395890847,9.810242819464618,0.0,0.0,0.0,0.0,0.0,0.0,0.0,0.0,0.0
2025/05/25 18:47:32.373655440,1748191651,421537775,mA1/imu,0.7877052998909184,0.6160513890235755,0.00027194851511718306,0.000986230138859052,0.0,0.0,0.0,0.0,0.0,0.0,0.0,0.0,0.0,0.0008972870065015084,5.789016068502983e-05,-3.7704061759721215e-05,0.0,0.0,0.0,0.0,0.0,0.0,0.0,0.0,0.0,0.008057115674693367,-0.04421241456401881,9.81013749585097,0.0,0.0,0.0,0.0,0.0,0.0,0.0,0.0,0.0
2025/05/25 18:47:32.375980595,1748191651,476102910,mA1/imu,0.7877047536921374,0.6160521371808843,0.0002529420136545732,0.0009598468688999924,0.0,0.0,0.0,0.0,0.0,0.0,0.0,0.0,0.0,-0.00042431359777647974,5.1346109817991316e-05,-3.739449343306308e-05,0.0,0.0,0.0,0.0,0.0,0.0,0.0,0.0,0.0,0.008500923098628991,0.45086704855521587,9.810659073410527,0.0,0.0,0.0,0.0,0.0,0.0,0.0,0.0,0.0
2025/05/25 18:47:32.384290577,1748191651,523875822,mA1/imu,0.7877042264266776,0.6160528804207501,0.00022440318730665654,0.000921866615024575,0.0,0.0,0.0,0.0,0.0,0.0,0.0,0.0,0.0,0.001251720372404179,4.213126535601096e-05,-3.6975714889175646e-05,0.0,0.0,0.0,0.0,0.0,0.0,0.0,0.0,0.0,0.007198274161345246,-0.043608332646157044,9.810593718955817,0.0,0.0,0.0,0.0,0.0,0.0,0.0,0.0,0.0
2025/05/25 18:47:32.398471579,1748191651,573412823,mA1/imu,0.787703705567028,0.616053614505777,0.00019420135673570062,0.0008823696354897851,0.0,0.0,0.0,0.0,0.0,0.0,0.0,0.0,0.0,0.0026895360499388657,1.7902629636409372e-05,-3.6529137151052094e-05,0.0,0.0,0.0,0.0,0.0,0.0,0.0,0.0,0.0,0.007261077757933274,0.10751703412254142,9.811096440382796,0.0,0.0,0.0,0.0,0.0,0.0,0.0,0.0,0.0
2025/05/25 18:47:32.412557826,1748191651,617663011,mA1/imu,0.7877031842209925,0.6160543360060371,0.00016812319349961233,0.0008487584237636797,0.0,0.0,0.0,0.0,0.0,0.0,0.0,0.0,0.0,0.0031798162338567203,-1.0329041684334817e-05,-3.600297321965373e-05,0.0,0.0,0.0,0.0,0.0,0.0,0.0,0.0,0.0,0.007920047251951372,-0.06900275731748229,9.810174239022311,0.0,0.0,0.0,0.0,0.0,0.0,0.0,0.0,0.0
2025/05/25 18:47:32.422007254,1748191651,668644607,mA1/imu,0.7877026626756283,0.6160550474092148,0.00014563246923847043,0.0008201015421216832,0.0,0.0,0.0,0.0,0.0,0.0,0.0,0.0,0.0,0.0018758938323730997,-1.0183462945892029e-05,-3.562665389060411e-05,0.0,0.0,0.0,0.0,0.0,0.0,0.0,0.0,0.0,0.007726005087329294,-0.003981965800351296,9.809236732430305,0.0,0.0,0.0,0.0,0.0,0.0,0.0,0.0,0.0
2025/05/25 18:47:33.369498914,1748191652,422452025,mA1/imu,0.7876956863456006,0.616063785537208,0.00021867965499972926,0.0009327600476689605,0.0,0.0,0.0,0.0,0.0,0.0,0.0,0.0,0.0,-0.0022033331296245563,7.202392557444894e-05,-2.5146906065679617e-05,0.0,0.0,0.0,0.0,0.0,0.0,0.0,0.0,0.0,0.007268447182507543,-0.05576621480077738,9.810537106835426,0.0,0.0,0.0,0.0,0.0,0.0,0.0,0.0,0.0
2025/05/25 18:47:33.373536724,1748191652,474724848,mA1/imu,0.787695268648917,0.6160642702142184,0.00024151706766035595,0.0009593659568946969,0.0,0.0,0.0,0.0,0.0,0.0,0.0,0.0,0.0,-0.0016040361722274622,7.136201067331473e-05,-2.503749167777122e-05,0.0,0.0,0.0,0.0,0.0,0.0,0.0,0.0,0.0,0.007467773145958116,0.6016501968890398,9.811458956587677,0.0,0.0,0.0,0.0,0.0,0.0,0.0,0.0,0.0
2025/05/25 18:47:33.383239599,1748191652,515523872,mA1/imu,0.7876948507385035,0.6160647589528931,0.00026243205346307023,0.0009828661036525104,0.0,0.0,0.0,0.0,0.0,0.0,0.0,0.0,0.0,-0.0003335849686242312,7.15465371286417e-05,-2.4935401873706565e-05,0.0,0.0,0.0,0.0,0.0,0.0,0.0,0.0,0.0,0.008100907798092196,0.040618286423206876,9.810349256557537,0.0,0.0,0.0,0.0,0.0,0.0,0.0,0.0,0.0
2025/05/25 18:47:33.404413506,1748191652,567093402,mA1/imu,0.7876944388891232,0.6160652410264311,0.0002822745117045604,0.0010050190521298428,0.0,0.0,0.0,0.0,0.0,0.0,0.0,0.0,0.0,-0.000648485649598323,7.608433288318141e-05,-2.4656516316664345e-05,0.0,0.0,0.0,0.0,0.0,0.0,0.0,0.0,0.0,0.007690827583562082,0.0022079010671198183,9.809190933925837,0.0,0.0,0.0,0.0,0.0,0.0,0.0,0.0,0.0
2025/05/25 18:47:33.414286236,1748191652,617002855,mA1/imu,0.7876940364943077,0.616065720597669,0.0002978106333586098,0.0010218045831055821,0.0,0.0,0.0,0.0,0.0,0.0,0.0,0.0,0.0,-0.0012901411408312816,7.435069901357435e-05,-2.454348131905268e-05,0.0,0.0,0.0,0.0,0.0,0.0,0.0,0.0,0.0,0.007704808816910938,-0.06358325749999628,9.809477428229231,0.0,0.0,0.0,0.0,0.0,0.0,0.0,0.0,0.0
2025/05/25 18:47:34.372889578,1748191653,418743128,mA1/imu,0.7876098739745161,0.6161737519675836,1.0232351960336845e-05,0.0007705188748909188,0.0,0.0,0.0,0.0,0.0,0.0,0.0,0.0,0.0,0.0008377082432028691,-0.0002810452035539032,-0.001297040775916962,0.0,0.0,0.0,0.0,0.0,0.0,0.0,0.0,0.0,0.007372112017265075,0.04088923559186432,9.809819105880399,0.0,0.0,0.0,0.0,0.0,0.0,0.0,0.0,0.0
2025/05/25 18:47:34.380019905,1748191653,470773196,mA1/imu,0.7875890651639389,0.6162003405804187,1.0727876134115921e-05,0.0007775523657500383,0.0,0.0,0.0,0.0,0.0,0.0,0.0,0.0,0.0,0.0005040440931601616,-7.46096409252934e-05,-0.0013825967011042715,0.0,0.0,0.0,0.0,0.0,0.0,0.0,0.0,0.0,0.006506508066828247,0.04546526988860289,9.807966729831007,0.0,0.0,0.0,0.0,0.0,0.0,0.0,0.0,0.0
2025/05/25 18:47:34.389837630,1748191653,522063770,mA1/imu,0.7875669330916331,0.6162286079368464,2.4179445411034106e-05,0.0007925125929977285,0.0,0.0,0.0,0.0,0.0,0.0,0.0,0.0,0.0,-0.00035038912268933286,0.00011962417548749736,-0.001468884731135805,0.0,0.0,0.0,0.0,0.0,0.0,0.0,0.0,0.0,0.0077023087570766546,-0.3755690886864287,9.809337299249366,0.0,0.0,0.0,0.0,0.0,0.0,0.0,0.0,0.0
2025/05/25 18:47:34.403656381,1748191653,566603631,mA1/imu,0.7875399638149161,0.6162630494156763,3.8736310344148156e-05,0.000811060287805498,0.0,0.0,0.0,0.0,0.0,0.0,0.0,0.0,0.0,-0.0021803387667861263,-3.067283625479766e-05,-0.0018893186987705667,0.0,0.0,0.0,0.0,0.0,0.0,0.0,0.0,0.0,0.007229635276195792,0.46218877419246235,9.809575814666907,0.0,0.0,0.0,0.0,0.0,0.0,0.0,0.0,0.0
2025/05/25 18:47:34.403718111,1748191653,615326919,mA1/imu,0.787510251453885,0.6163009961262529,5.377088522155613e-05,0.0008265213361144301,0.0,0.0,0.0,0.0,0.0,0.0,0.0,0.0,0.0,-0.0011631204225783223,0.00017940776563782338,-0.00195684767665648,0.0,0.0,0.0,0.0,0.0,0.0,0.0,0.0,0.0,0.007443447339988585,0.02228902160067596,9.811448487195143,0.0,0.0,0.0,0.0,0.0,0.0,0.0,0.0,0.0
2025/05/25 18:47:34.414771307,1748191653,666738171,mA1/imu,0.7874801286258262,0.6163394511008841,8.032989186402818e-05,0.0008494605473304456,0.0,0.0,0.0,0.0,0.0,0.0,0.0,0.0,0.0,-0.0014982673851647297,0.0003374167096284356,-0.00191840316499456,0.0,0.0,0.0,0.0,0.0,0.0,0.0,0.0,0.0,0.007373084388974148,0.40521836292008645,9.811429262197663,0.0,0.0,0.0,0.0,0.0,0.0,0.0,0.0,0.0
2025/05/25 18:47:35.369082504,1748191654,421940745,mA1/imu,0.7875278897538743,0.6162784435048306,0.0003393267678722604,0.0007666736056151597,0.0,0.0,0.0,0.0,0.0,0.0,0.0,0.0,0.0,0.001582468855615036,-0.002242280740338908,0.0016577013678124113,0.0,0.0,0.0,0.0,0.0,0.0,0.0,0.0,0.0,0.008851147298826648,0.015652243152814573,9.809872949445067,0.0,0.0,0.0,0.0,0.0,0.0,0.0,0.0,0.0
2025/05/25 18:47:35.375302053,1748191654,473454557,mA1/imu,0.7875541686518429,0.6162448717397149,0.00027515407538450214,0.0007834435792428545,0.0,0.0,0.0,0.0,0.0,0.0,0.0,0.0,0.0,0.0008873809560611274,-0.002548988380053408,0.0017316890138045723,0.0,0.0,0.0,0.0,0.0,0.0,0.0,0.0,0.0,0.00739724230374634,0.16950343795699468,9.810168943493917,0.0,0.0,0.0,0.0,0.0,0.0,0.0,0.0,0.0
2025/05/25 18:47:36.322458770,1748191655,367250184,mA1/imu,0.7880673482661111,0.615588350519928,0.00046157920617669095,0.0007900921529842736,0.0,0.0,0.0,0.0,0.0,0.0,0.0,0.0,0.0,-0.000907797447520518,0.0017772064353514562,0.0012035540123968489,0.0,0.0,0.0,0.0,0.0,0.0,0.0,0.0,0.0,0.004006602525826147,-0.016611263571936444,9.809827189477843,0.0,0.0,0.0,0.0,0.0,0.0,0.0,0.0,0.0
2025/05/25 18:47:36.331148817,1748191655,417003097,mA1/imu,0.7880855078965994,0.6155650793554713,0.0005026577710367929,0.0007827238441549701,0.0,0.0,0.0,0.0,0.0,0.0,0.0,0.0,0.0,-0.0006892615024343313,0.0012623275667398774,0.0011679339016851726,0.0,0.0,0.0,0.0,0.0,0.0,0.0,0.0,0.0,0.004114735973726263,-0.016280194694593055,9.810250058157553,0.0,0.0,0.0,0.0,0.0,0.0,0.0,0.0,0.0
2025/05/25 18:47:36.341817565,1748191655,469236018,mA1/imu,0.7881031413384907,0.6155424853735667,0.0005290381642060179,0.0007793786989826343,0.0,0.0,0.0,0.0,0.0,0.0,0.0,0.0,0.0,-0.0004444353853216719,0.0006734497958507049,0.001133490012093059,0.0,0.0,0.0,0.0,0.0,0.0,0.0,0.0,0.0,0.004477538635556325,-0.016181839376981904,9.809965181656068,0.0,0.0,0.0,0.0,0.0,0.0,0.0,0.0,0.0
2025/05/25 18:47:36.525288143,1748191655,570192795,mA1/imu,0.7881368548201784,0.6154993061268736,0.0005336733561818862,0.0007857634779275183,0.0,0.0,0.0,0.0,0.0,0.0,0.0,0.0,0.0,7.99230767756964e-05,-0.0005586476651237588,0.0010647744586854454,0.0,0.0,0.0,0.0,0.0,0.0,0.0,0.0,0.0,0.004236546503734983,-0.016155240600953483,9.809574409664236,0.0,0.0,0.0,0.0,0.0,0.0,0.0,0.0,0.0
2025/05/25 18:47:36.528558966,1748191655,620023876,mA1/imu,0.7881529402342878,0.6154787129628413,0.0005129533086381053,0.0007959701972566712,0.0,0.0,0.0,0.0,0.0,0.0,0.0,0.0,0.0,0.0002922776673475209,-0.0011290489766813457,0.001030868142193419,0.0,0.0,0.0,0.0,0.0,0.0,0.0,0.0,0.0,0.004109468249372264,-0.019301405728754,9.80997095751423,0.0,0.0,0.0,0.0,0.0,0.0,0.0,0.0,0.0
2025/05/25 18:47:36.540428090,1748191655,671061044,mA1/imu,0.7881685275969142,0.6154587632724442,0.0004778109373605491,0.0008090201320323112,0.0,0.0,0.0,0.0,0.0,0.0,0.0,0.0,0.0,0.000555983001113086,-0.0016181173156934341,0.0009983807008317669,0.0,0.0,0.0,0.0,0.0,0.0,0.0,0.0,0.0,0.0034280251687005205,-0.017603421336764596,9.809661956442035,0.0,0.0,0.0,0.0,0.0,0.0,0.0,0.0,0.0
2025/05/25 18:47:36.549929087,1748191655,720766051,mA1/imu,0.7881836333977941,0.6154394330553883,0.0004305318169533991,0.0008239700653405217,0.0,0.0,0.0,0.0,0.0,0.0,0.0,0.0,0.0,0.0007786380117339511,-0.002004449944416689,0.0009668001755924591,0.0,0.0,0.0,0.0,0.0,0.0,0.0,0.0,0.0,0.003149617590092264,-0.016844910637413238,9.810056211946499,0.0,0.0,0.0,0.0,0.0,0.0,0.0,0.0,0.0
2025/05/25 18:47:36.565219128,1748191655,771827274,mA1/imu,0.7881982608683,0.6154207148950129,0.000374148752884406,0.0008397946232707661,0.0,0.0,0.0,0.0,0.0,0.0,0.0,0.0,0.0,0.0009568073410707637,-0.002259474372500801,0.0009358932744086291,0.0,0.0,0.0,0.0,0.0,0.0,0.0,0.0,0.0,0.0023468016860516525,-0.01664432751648882,9.80956613840025,0.0,0.0,0.0,0.0,0.0,0.0,0.0,0.0,0.0
2025/05/25 18:47:37.524336103,1748191656,566704338,mA1/imu,0.7884207227822256,0.6151358357004785,0.00020463891012104893,0.0007909788514451002,0.0,0.0,0.0,0.0,0.0,0.0,0.0,0.0,0.0,-0.0009384558436738631,0.001573919327353413,0.0008013455452953032,0.0,0.0,0.0,0.0,0.0,0.0,0.0,0.0,0.0,0.006134017772675331,-0.05278093001757896,9.809807339314089,0.0,0.0,0.0,0.0,0.0,0.0,0.0,0.0,0.0
2025/05/25 18:47:37.532177021,1748191656,615329151,mA1/imu,0.7884328539032434,0.6151202739200352,0.00024929424125710994,0.0007882581485289881,0.0,0.0,0.0,0.0,0.0,0.0,0.0,0.0,0.0,-0.0010505504133739602,0.0013973476695737035,0.0007835812938735892,0.0,0.0,0.0,0.0,0.0,0.0,0.0,0.0,0.0,0.006038050611897847,-0.013324597062208458,9.810177619706769,0.0,0.0,0.0,0.0,0.0,0.0,0.0,0.0,0.0
2025/05/25 18:47:37.543301583,1748191656,667327793,mA1/imu,0.7884447103326399,0.6151050547164485,0.00029105008794373395,0.0007910123898149276,0.0,0.0,0.0,0.0,0.0,0.0,0.0,0.0,0.0,-0.0012729368503094783,0.0011395680962094537,0.0007658992305066745,0.0,0.0,0.0,0.0,0.0,0.0,0.0,0.0,0.0,0.006599861613950113,0.05192848014198874,9.810074696648462,0.0,0.0,0.0,0.0,0.0,0.0,0.0,0.0,0.0
2025/05/25 18:47:37.556682477,1748191656,717174345,mA1/imu,0.7884563017004127,0.6150901715221413,0.00032579107152922056,0.0007969102512918544,0.0,0.0,0.0,0.0,0.0,0.0,0.0,0.0,0.0,-0.00039422339268846944,0.0008151098920151387,0.0007489703667355388,0.0,0.0,0.0,0.0,0.0,0.0,0.0,0.0,0.0,0.006629505475291832,-0.28579097524032077,9.809743057141395,0.0,0.0,0.0,0.0,0.0,0.0,0.0,0.0,0.0
2025/05/25 18:47:38.369612083,1748191657,420913554,mA1/imu,0.7886586805616753,0.614830554727552,6.387873500685335e-05,0.0009329885504747496,0.0,0.0,0.0,0.0,0.0,0.0,0.0,0.0,0.0,0.0014513174709190027,-1.0812819292764859e-05,0.0017239089574800047,0.0,0.0,0.0,0.0,0.0,0.0,0.0,0.0,0.0,0.012130136330932352,0.16907416005381068,9.810225089094041,0.0,0.0,0.0,0.0,0.0,0.0,0.0,0.0,0.0
2025/05/25 18:47:38.372218758,1748191657,471923834,mA1/imu,0.7886820213512302,0.6148006341030929,4.7089838541260946e-05,0.0009204815693852938,0.0,0.0,0.0,0.0,0.0,0.0,0.0,0.0,0.0,-0.00012880110642198188,-0.00029027397046645255,0.0014256982672141193,0.0,0.0,0.0,0.0,0.0,0.0,0.0,0.0,0.0,0.010309583832055162,0.5330044634898841,9.811059872664758,0.0,0.0,0.0,0.0,0.0,0.0,0.0,0.0,0.0
2025/05/25 18:47:38.383060009,1748191657,522931555,mA1/imu,0.7887035924566427,0.6147729859630913,2.815320013668744e-05,0.0009045349126854637,0.0,0.0,0.0,0.0,0.0,0.0,0.0,0.0,0.0,0.0006610982798504903,-0.00015604833327616694,0.0013864034065198395,0.0,0.0,0.0,0.0,0.0,0.0,0.0,0.0,0.0,0.010909281729932652,-0.034047208024320416,9.8102336563456,0.0,0.0,0.0,0.0,0.0,0.0,0.0,0.0,0.0
2025/05/25 18:47:38.398695756,1748191657,568882620,mA1/imu,0.7887264471670403,0.6147436965327858,1.4325305994304584e-05,0.0008825572218219841,0.0,0.0,0.0,0.0,0.0,0.0,0.0,0.0,0.0,0.0017235347965682784,0.00018690294027351033,0.0014935917192755882,0.0,0.0,0.0,0.0,0.0,0.0,0.0,0.0,0.0,0.0096597205377016,-0.19149603398136136,9.809917516225726,0.0,0.0,0.0,0.0,0.0,0.0,0.0,0.0,0.0
2025/05/25 18:47:38.407836732,1748191657,618484925,mA1/imu,0.7887490439696486,0.6147147240774203,1.1171604405259652e-05,0.0008680521769640014,0.0,0.0,0.0,0.0,0.0,0.0,0.0,0.0,0.0,-0.0003080697905663737,0.00030904000538770966,0.0014539987008666939,0.0,0.0,0.0,0.0,0.0,0.0,0.0,0.0,0.0,0.010442011593659291,0.5544525188212488,9.811002173354504,0.0,0.0,0.0,0.0,0.0,0.0,0.0,0.0,0.0
2025/05/25 18:47:38.408544670,1748191657,670574027,mA1/imu,0.7887689543086889,0.6146891865273366,9.233888813462918e-06,0.0008605811256445899,0.0,0.0,0.0,0.0,0.0,0.0,0.0,0.0,0.0,-1.9396916246338487e-05,0.00012512530107956101,0.0012539692362927427,0.0,0.0,0.0,0.0,0.0,0.0,0.0,0.0,0.0,0.010862581412519995,-0.03957048190008504,9.80982257796542,0.0,0.0,0.0,0.0,0.0,0.0,0.0,0.0,0.0
2025/05/25 18:47:38.416597864,1748191657,720249963,mA1/imu,0.7887877814425887,0.6146650342116561,1.1791813020936418e-05,0.0008552341291475666,0.0,0.0,0.0,0.0,0.0,0.0,0.0,0.0,0.0,-0.00032971874909947294,0.0003071293076880388,0.001195685775342537,0.0,0.0,0.0,0.0,0.0,0.0,0.0,0.0,0.0,0.004606807785140076,-0.04445449629658596,9.810161542355841,0.0,0.0,0.0,0.0,0.0,0.0,0.0,0.0,0.0
2025/05/25 18:47:39.374681729,1748191658,418519775,mA1/imu,0.7892795977381859,0.6140333246056702,0.0004214941888813395,0.0007843536217794713,0.0,0.0,0.0,0.0,0.0,0.0,0.0,0.0,0.0,-0.00021828667712227247,-0.00202904085850577,0.003395320894001351,0.0,0.0,0.0,0.0,0.0,0.0,0.0,0.0,0.0,0.008758359494157479,-0.03315879235817046,9.811969746166191,0.0,0.0,0.0,0.0,0.0,0.0,0.0,0.0,0.0
2025/05/25 18:47:39.385707311,1748191658,469680372,mA1/imu,0.7893325579991259,0.6139652441846749,0.0003668187720842085,0.0008107156081686756,0.0,0.0,0.0,0.0,0.0,0.0,0.0,0.0,0.0,-0.00021224074700939655,-0.0025718493167253757,0.0034745206191469035,0.0,0.0,0.0,0.0,0.0,0.0,0.0,0.0,0.0,0.005617642975614147,0.5845205696441984,9.809821243956847,0.0,0.0,0.0,0.0,0.0,0.0,0.0,0.0,0.0
2025/05/25 18:47:39.398081093,1748191658,519712159,mA1/imu,0.789386529950221,0.6138958370957661,0.0003044760533324751,0.0008454726314750912,0.0,0.0,0.0,0.0,0.0,0.0,0.0,0.0,0.0,3.2913885469431605e-05,-0.002946900174650676,0.003538260206178586,0.0,0.0,0.0,0.0,0.0,0.0,0.0,0.0,0.0,0.005222694901506264,0.5885134279479736,9.810170671226384,0.0,0.0,0.0,0.0,0.0,0.0,0.0,0.0,0.0
2025/05/25 18:47:39.407011988,1748191658,572561153,mA1/imu,0.7894415923283926,0.6138250094713067,0.00023311193467794446,0.0008807430885750104,0.0,0.0,0.0,0.0,0.0,0.0,0.0,0.0,0.0,0.001995625783004051,-0.0032092170960616403,0.0036212374078672185,0.0,0.0,0.0,0.0,0.0,0.0,0.0,0.0,0.0,0.006179960750740796,-0.5489517097930052,9.811080848708528,0.0,0.0,0.0,0.0,0.0,0.0,0.0,0.0,0.0
2025/05/25 18:47:40.366734805,1748191659,415203730,mA1/imu,0.7905433802278016,0.6124055101794678,8.609999227086337e-05,0.0008047773721276539,0.0,0.0,0.0,0.0,0.0,0.0,0.0,0.0,0.0,-0.0011177184264568793,0.001075035317904266,0.004509845533923363,0.0,0.0,0.0,0.0,0.0,0.0,0.0,0.0,0.0,0.02338119933446889,-0.01218849568803336,9.80896576920134,0.0,0.0,0.0,0.0,0.0,0.0,0.0,0.0,0.0
2025/05/25 18:47:40.369798017,1748191659,466380089,mA1/imu,0.7906109362033141,0.6123182741812561,0.00011749520836247805,0.0008153859719815626,0.0,0.0,0.0,0.0,0.0,0.0,0.0,0.0,0.0,-0.0010921555194504304,0.000502761175347957,0.0043608875036749714,0.0,0.0,0.0,0.0,0.0,0.0,0.0,0.0,0.0,0.022007746406144772,-0.0063204694086546115,9.808656190333595,0.0,0.0,0.0,0.0,0.0,0.0,0.0,0.0,0.0
2025/05/25 18:47:40.378487185,1748191659,516311511,mA1/imu,0.7906762765002852,0.6122338783348124,0.0001333188276875203,0.0008283868955906209,0.0,0.0,0.0,0.0,0.0,0.0,0.0,0.0,0.0,-0.0008056356952693305,-2.056080544252212e-05,0.004209949494686787,0.0,0.0,0.0,0.0,0.0,0.0,0.0,0.0,0.0,0.019866441838578705,0.013851135190206186,9.809330838308414,0.0,0.0,0.0,0.0,0.0,0.0,0.0,0.0,0.0
2025/05/25 18:47:40.389641202,1748191659,567311715,mA1/imu,0.7907393354282725,0.6121523988757344,0.0001409509148240932,0.0008509347669146191,0.0,0.0,0.0,0.0,0.0,0.0,0.0,0.0,0.0,0.00013785375708822207,-0.0004992084365210632,0.004055192587222796,0.0,0.0,0.0,0.0,0.0,0.0,0.0,0.0,0.0,0.017817968745808925,-0.09662635960117448,9.808997274352288,0.0,0.0,0.0,0.0,0.0,0.0,0.0,0.0,0.0
2025/05/25 18:47:40.401874822,1748191659,617589198,mA1/imu,0.7907999781014926,0.6120740058385654,0.00014461093537968559,0.0008860581741994448,0.0,0.0,0.0,0.0,0.0,0.0,0.0,0.0,0.0,-0.001175557412625972,-0.0009208957452056785,0.003894143401393719,0.0,0.0,0.0,0.0,0.0,0.0,0.0,0.0,0.0,0.01867099659973418,-0.022949859311728764,9.812160377702124,0.0,0.0,0.0,0.0,0.0,0.0,0.0,0.0,0.0
2025/05/25 18:47:40.401949163,1748191659,668702121,mA1/imu,0.7908581680160616,0.6119987706345016,0.00013465586064867176,0.0009190712359435086,0.0,0.0,0.0,0.0,0.0,0.0,0.0,0.0,0.0,-0.0005792596033098346,-0.0012450826783140464,0.0037376723957631432,0.0,0.0,0.0,0.0,0.0,0.0,0.0,0.0,0.0,0.01656774786677183,-0.3811522726729865,9.812002149275107,0.0,0.0,0.0,0.0,0.0,0.0,0.0,0.0,0.0
2025/05/25 18:47:40.411523273,1748191659,719191016,mA1/imu,0.7909138446776688,0.6119267688620083,0.00011661676177072527,0.0009519704941020881,0.0,0.0,0.0,0.0,0.0,0.0,0.0,0.0,0.0,-0.0009786909563558768,-0.001440648635825769,0.0035831587825446566,0.0,0.0,0.0,0.0,0.0,0.0,0.0,0.0,0.0,0.0157906450006128,0.1905136762973652,9.809949623804474,0.0,0.0,0.0,0.0,0.0,0.0,0.0,0.0,0.0
2025/05/25 18:47:41.370303308,1748191660,418215735,mA1/imu,0.7914900053602422,0.6111816447816978,4.923093856326475e-05,0.0007523782938805792,0.0,0.0,0.0,0.0,0.0,0.0,0.0,0.0,0.0,0.0010647255944675616,0.0016218544525597649,0.00245904416337071,0.0,0.0,0.0,0.0,0.0,0.0,0.0,0.0,0.0,0.01575173546786524,-0.27115386360711013,9.809679038217919,0.0,0.0,0.0,0.0,0.0,0.0,0.0,0.0,0.0
2025/05/25 18:47:41.370834738,1748191660,469197035,mA1/imu,0.7915276112946512,0.6111329904068542,6.401339320335413e-05,0.0007102794134286668,0.0,0.0,0.0,0.0,0.0,0.0,0.0,0.0,0.0,0.0011833562179858616,0.0013931121167352703,0.002453748864652141,0.0,0.0,0.0,0.0,0.0,0.0,0.0,0.0,0.0,0.01596602990024347,0.031482962636594024,9.810018608960696,0.0,0.0,0.0,0.0,0.0,0.0,0.0,0.0,0.0
2025/05/25 18:47:41.381707956,1748191660,519728710,mA1/imu,0.7915645875488798,0.6110851291840252,7.765796440529571e-05,0.0006801455400615188,0.0,0.0,0.0,0.0,0.0,0.0,0.0,0.0,0.0,0.00011534313623630926,0.0010065985079971602,0.0023975062210637955,0.0,0.0,0.0,0.0,0.0,0.0,0.0,0.0,0.0,0.016450751242746312,0.5999345370470708,9.810879562279238,0.0,0.0,0.0,0.0,0.0,0.0,0.0,0.0,0.0
2025/05/25 18:47:41.390950479,1748191660,570967906,mA1/imu,0.7916007193165243,0.6110383375452062,9.023292390506496e-05,0.0006656467317438534,0.0,0.0,0.0,0.0,0.0,0.0,0.0,0.0,0.0,-0.0013388318641431457,0.000581661770867874,0.0023435707666742364,0.0,0.0,0.0,0.0,0.0,0.0,0.0,0.0,0.0,0.016171397272346497,0.49649672785303406,9.810532024157215,0.0,0.0,0.0,0.0,0.0,0.0,0.0,0.0,0.0
2025/05/25 18:47:41.401796046,1748191660,620823537,mA1/imu,0.7916360374951501,0.610992587449526,9.453045159255415e-05,0.0006582436514105718,0.0,0.0,0.0,0.0,0.0,0.0,0.0,0.0,0.0,0.00013710107542278077,0.00013798038702237818,0.0022907736373189045,0.0,0.0,0.0,0.0,0.0,0.0,0.0,0.0,0.0,0.014954596368679294,-0.6173683331783729,9.809030024244882,0.0,0.0,0.0,0.0,0.0,0.0,0.0,0.0,0.0
2025/05/25 18:47:41.414245574,1748191660,671829591,mA1/imu,0.7916698293058915,0.6109488086518392,8.712963278286297e-05,0.0006534386781675277,0.0,0.0,0.0,0.0,0.0,0.0,0.0,0.0,0.0,0.0015197999409765621,-0.0002834843889875646,0.002178808837202249,0.0,0.0,0.0,0.0,0.0,0.0,0.0,0.0,0.0,0.014082738834928173,-0.47162121531117196,9.808928826415057,0.0,0.0,0.0,0.0,0.0,0.0,0.0,0.0,0.0
2025/05/25 18:47:42.366415289,1748191661,419316371,mA1/imu,0.7921115576985488,0.6103754754384826,1.3523775418654836e-05,0.0010290581774436204,0.0,0.0,0.0,0.0,0.0,0.0,0.0,0.0,0.0,-0.00023533412931314555,0.0008922265618008338,0.0015979158301814092,0.0,0.0,0.0,0.0,0.0,0.0,0.0,0.0,0.0,0.011677483322329131,-0.1013285282575265,9.80934055535664,0.0,0.0,0.0,0.0,0.0,0.0,0.0,0.0,0.0
2025/05/25 18:47:42.370760454,1748191661,470474719,mA1/imu,0.7921373820142946,0.6103420159194446,2.6310268940217844e-05,0.00099545301133915,0.0,0.0,0.0,0.0,0.0,0.0,0.0,0.0,0.0,0.0015134144089000495,0.00135014868010003,0.0016980759426749312,0.0,0.0,0.0,0.0,0.0,0.0,0.0,0.0,0.0,0.01288218887639487,-0.5604998234256345,9.809920267486925,0.0,0.0,0.0,0.0,0.0,0.0,0.0,0.0,0.0
2025/05/25 18:47:42.378396636,1748191661,520331367,mA1/imu,0.7921629485212551,0.6103088914255355,4.3432936936348534e-05,0.0009582017664708079,0.0,0.0,0.0,0.0,0.0,0.0,0.0,0.0,0.0,0.001403496660461312,0.001515102108748222,0.0016588954361440882,0.0,0.0,0.0,0.0,0.0,0.0,0.0,0.0,0.0,0.012401765303020024,-0.46507265393575836,9.809041293573921,0.0,0.0,0.0,0.0,0.0,0.0,0.0,0.0,0.0
2025/05/25 18:47:42.391380505,1748191661,572011528,mA1/imu,0.7921883593227058,0.6102759654188674,6.468255425814658e-05,0.0009193485933703631,0.0,0.0,0.0,0.0,0.0,0.0,0.0,0.0,0.0,0.0005643451509654092,0.0016525318764689795,0.0016556507481585011,0.0,0.0,0.0,0.0,0.0,0.0,0.0,0.0,0.0,0.01392739498229334,-0.025418719030657032,9.811109218125539,0.0,0.0,0.0,0.0,0.0,0.0,0.0,0.0,0.0
2025/05/25 18:47:42.402359991,1748191661,621781048,mA1/imu,0.7922133000477669,0.6102436626651591,7.726483964594957e-05,0.0008680060961428701,0.0,0.0,0.0,0.0,0.0,0.0,0.0,0.0,0.0,-0.00020659724766967856,0.0016409445378283833,0.0016181340524185645,0.0,0.0,0.0,0.0,0.0,0.0,0.0,0.0,0.0,0.014052310450597221,0.5423296062066444,9.809936024355624,0.0,0.0,0.0,0.0,0.0,0.0,0.0,0.0,0.0
2025/05/25 18:47:42.411632785,1748191661,672728396,mA1/imu,0.7922376724794324,0.6102120841616603,9.044307717349698e-05,0.0008212597057715594,0.0,0.0,0.0,0.0,0.0,0.0,0.0,0.0,0.0,0.0005711171575932612,0.0015022970515969182,0.0015815219125386096,0.0,0.0,0.0,0.0,0.0,0.0,0.0,0.0,0.0,0.014435695812781127,-0.040160549135359006,9.809102303674536,0.0,0.0,0.0,0.0,0.0,0.0,0.0,0.0,0.0
2025/05/25 18:47:42.413790308,1748191661,722634244,mA1/imu,0.7922616268116769,0.6101810483319416,9.533033996467281e-05,0.0007706168790115324,0.0,0.0,0.0,0.0,0.0,0.0,0.0,0.0,0.0,0.0004003764078559061,0.0013395602081778721,0.0015732374104920981,0.0,0.0,0.0,0.0,0.0,0.0,0.0,0.0,0.0,0.011054387031408099,0.576018089880568,9.81035495196266,0.0,0.0,0.0,0.0,0.0,0.0,0.0,0.0,0.0
2025/05/25 18:47:43.373064660,1748191662,415556074,mA1/imu,0.7925286742245765,0.6098341315571375,-6.457360409706871e-05,0.0007926853326824133,0.0,0.0,0.0,0.0,0.0,0.0,0.0,0.0,0.0,-0.00033800161892239895,-0.00046638827362631207,0.0010634699304809623,0.0,0.0,0.0,0.0,0.0,0.0,0.0,0.0,0.0,0.009436536039554402,0.06358121946584624,9.811507113753246,0.0,0.0,0.0,0.0,0.0,0.0,0.0,0.0,0.0
2025/05/25 18:47:43.377632005,1748191662,466767925,mA1/imu,0.7925446665515788,0.6098133085165522,-5.095037116961855e-05,0.0008232137041868046,0.0,0.0,0.0,0.0,0.0,0.0,0.0,0.0,0.0,-0.0020227081259392293,-0.0002133260001035575,0.0010422256864881013,0.0,0.0,0.0,0.0,0.0,0.0,0.0,0.0,0.0,0.009075952125163883,0.5819595868310247,9.81059710031851,0.0,0.0,0.0,0.0,0.0,0.0,0.0,0.0,0.0
2025/05/25 18:47:43.385817693,1748191662,516693196,mA1/imu,0.7925603383147026,0.6097929094092072,-3.4888674345729114e-05,0.0008464912988419466,0.0,0.0,0.0,0.0,0.0,0.0,0.0,0.0,0.0,-0.0006540678089656531,3.737365256552136e-05,0.0010208234977871218,0.0,0.0,0.0,0.0,0.0,0.0,0.0,0.0,0.0,0.0087253872645454,-0.5818991174431954,9.80983217561125,0.0,0.0,0.0,0.0,0.0,0.0,0.0,0.0,0.0
2025/05/25 18:47:43.395772357,1748191662,571066585,mA1/imu,0.792575685492647,0.6097729441044607,-1.868447264421661e-05,0.0008596830402077261,0.0,0.0,0.0,0.0,0.0,0.0,0.0,0.0,0.0,-0.0003027907189939955,0.0002908405046544732,0.0009992001095508291,0.0,0.0,0.0,0.0,0.0,0.0,0.0,0.0,0.0,0.00874012122928071,0.06693426013397084,9.809577200083874,0.0,0.0,0.0,0.0,0.0,0.0,0.0,0.0,0.0
2025/05/25 18:47:43.408007490,1748191662,620980317,mA1/imu,0.7925906983211026,0.6097534090555821,6.423544974061568e-06,0.0008746649077063903,0.0,0.0,0.0,0.0,0.0,0.0,0.0,0.0,0.0,-0.0003849046196225941,0.0005165955519121725,0.000977875647364027,0.0,0.0,0.0,0.0,0.0,0.0,0.0,0.0,0.0,0.009391401479840657,0.3402472174733557,9.81135475763959,0.0,0.0,0.0,0.0,0.0,0.0,0.0,0.0,0.0
2025/05/25 18:47:44.75152558,1748191663,117623296,mA1/imu,0.7927290523093538,0.6095736423162486,0.00016880741360370102,0.0007718303395324123,0.0,0.0,0.0,0.0,0.0,0.0,0.0,0.0,0.0,0.000507347028685743,-1.8492319410822907e-05,0.0009752173200233888,0.0,0.0,0.0,0.0,0.0,0.0,0.0,0.0,0.0,0.018489814180619728,-0.012762570471348062,9.810067406591694,0.0,0.0,0.0,0.0,0.0,0.0,0.0,0.0,0.0
2025/05/25 18:47:44.78917354,1748191663,168820931,mA1/imu,0.792743751980023,0.6095545580818448,0.00014216063492500277,0.0007511382272955542,0.0,0.0,0.0,0.0,0.0,0.0,0.0,0.0,0.0,0.00214886615279745,-0.0005455513885235457,0.000936407329992872,0.0,0.0,0.0,0.0,0.0,0.0,0.0,0.0,0.0,0.020015323108357443,0.08408881213350976,9.810851680406387,0.0,0.0,0.0,0.0,0.0,0.0,0.0,0.0,0.0
2025/05/25 18:47:44.85315546,1748191663,218685541,mA1/imu,0.7927568639764462,0.6095375224989754,0.0001087274482737743,0.0007426051329852645,0.0,0.0,0.0,0.0,0.0,0.0,0.0,0.0,0.0,0.002288138955807094,-0.0010621416614688206,0.0008123496893295333,0.0,0.0,0.0,0.0,0.0,0.0,0.0,0.0,0.0,0.020415747106336507,0.08257324961194978,9.809556552163105,0.0,0.0,0.0,0.0,0.0,0.0,0.0,0.0,0.0
2025/05/25 18:47:44.97087686,1748191663,271430922,mA1/imu,0.7927722387752977,0.6095175355595753,7.461148465936481e-05,0.0007387189657620683,0.0,0.0,0.0,0.0,0.0,0.0,0.0,0.0,0.0,0.0013914779643683108,-0.0011208082846762702,0.001055633925712024,0.0,0.0,0.0,0.0,0.0,0.0,0.0,0.0,0.0,0.020797024689334566,-0.13755042763237182,9.80901960858232,0.0,0.0,0.0,0.0,0.0,0.0,0.0,0.0,0.0
2025/05/25 18:47:44.108002199,1748191663,321339593,mA1/imu,0.7927880048301539,0.6094970382936962,2.754360118748108e-05,0.0007341321315171157,0.0,0.0,0.0,0.0,0.0,0.0,0.0,0.0,0.0,0.0014422927786232314,-0.0015503299275754483,0.001028580568072597,0.0,0.0,0.0,0.0,0.0,0.0,0.0,0.0,0.0,0.02097569108277756,-0.6051390332400004,9.808035191540045,0.0,0.0,0.0,0.0,0.0,0.0,0.0,0.0,0.0
2025/05/25 18:47:45.72182112,1748191664,115839599,mA1/imu,0.7930067396843367,0.6092119358649264,1.9692852936376666e-06,0.001062078645502286,0.0,0.0,0.0,0.0,0.0,0.0,0.0,0.0,0.0,-0.0009092298841477433,0.002156619054577068,8.99587987016723e-05,0.0,0.0,0.0,0.0,0.0,0.0,0.0,0.0,0.0,0.0006308599498241734,-0.3518545162272794,9.8107619295466,0.0,0.0,0.0,0.0,0.0,0.0,0.0,0.0,0.0
2025/05/25 18:47:45.76124458,1748191664,166854850,mA1/imu,0.7930056954774402,0.6092133123452732,6.688562916211426e-05,0.0010500133116238051,0.0,0.0,0.0,0.0,0.0,0.0,0.0,0.0,0.0,-0.0011511054974887803,0.002558587876104977,-7.89886769732348e-05,0.0,0.0,0.0,0.0,0.0,0.0,0.0,0.0,0.0,0.00041003969987026684,0.169534807338408,9.809875474263258,0.0,0.0,0.0,0.0,0.0,0.0,0.0,0.0,0.0
2025/05/25 18:47:45.274280522,1748191664,318175087,mA1/imu,0.7930056157323948,0.6092135536604517,0.00027861318457861887,0.0009283469084627989,0.0,0.0,0.0,0.0,0.0,0.0,0.0,0.0,0.0,0.00021057484228057815,0.003549627322672298,4.0503315250602676e-05,0.0,0.0,0.0,0.0,0.0,0.0,0.0,0.0,0.0,0.0012363657535163792,0.543539051824378,9.811137290616628,0.0,0.0,0.0,0.0,0.0,0.0,0.0,0.0,0.0
2025/05/25 18:47:45.279791021,1748191664,369518706,mA1/imu,0.7930003978833433,0.60922039332701,0.0003338334214211272,0.0008774204177088602,0.0,0.0,0.0,0.0,0.0,0.0,0.0,0.0,0.0,-0.00018010416549212282,0.0029063959172147126,-0.00040192400638591253,0.0,0.0,0.0,0.0,0.0,0.0,0.0,0.0,0.0,0.0004216132521768631,0.5844280921300213,9.812079244466917,0.0,0.0,0.0,0.0,0.0,0.0,0.0,0.0,0.0
2025/05/25 18:47:45.287673440,1748191664,419363962,mA1/imu,0.7929925987756011,0.6092305988183271,0.00037620986778788557,0.0008211070067442227,0.0,0.0,0.0,0.0,0.0,0.0,0.0,0.0,0.0,0.00011510713403313345,0.002312818608126443,-0.0008010103202274743,0.0,0.0,0.0,0.0,0.0,0.0,0.0,0.0,0.0,0.043869046495372585,0.5694527273031558,9.807453988601436,0.0,0.0,0.0,0.0,0.0,0.0,0.0,0.0,0.0
2025/05/25 18:47:45.297323139,1748191664,470245280,mA1/imu,0.7929748562158908,0.6092537302752087,0.00039799345033685507,0.0007817648906037893,0.0,0.0,0.0,0.0,0.0,0.0,0.0,0.0,0.0,0.0003412553530695299,0.0015355878788657872,-0.0011958211877517158,0.0,0.0,0.0,0.0,0.0,0.0,0.0,0.0,0.0,-0.002390233259674402,0.2880798315192702,9.810608755539848,0.0,0.0,0.0,0.0,0.0,0.0,0.0,0.0,0.0
2025/05/25 18:47:45.309353793,1748191664,520053295,mA1/imu,0.7929569344523908,0.6092771039084904,0.0004090916426495471,0.0007371572269031794,0.0,0.0,0.0,0.0,0.0,0.0,0.0,0.0,0.0,0.0019436925272330139,0.0013556137464805409,-0.0011622542676867557,0.0,0.0,0.0,0.0,0.0,0.0,0.0,0.0,0.0,-0.003384500779422017,-0.5879388115001406,9.808846499924325,0.0,0.0,0.0,0.0,0.0,0.0,0.0,0.0,0.0
2025/05/25 18:47:46.267371243,1748191665,314384167,mA1/imu,0.7922636821858344,0.6101785272660504,0.00033099749820836874,0.0005596368762355265,0.0,0.0,0.0,0.0,0.0,0.0,0.0,0.0,0.0,-0.0017985699696142395,0.00040660676320190446,-0.0016721986392925468,0.0,0.0,0.0,0.0,0.0,0.0,0.0,0.0,0.0,-0.0004671630716172998,0.5677296423189335,9.809245014014163,0.0,0.0,0.0,0.0,0.0,0.0,0.0,0.0,0.0
2025/05/25 18:47:46.272926719,1748191665,367770881,mA1/imu,0.7922405682794639,0.6102085209682446,0.0003389460959965742,0.0005727351249033273,0.0,0.0,0.0,0.0,0.0,0.0,0.0,0.0,0.0,-0.00042506724730593517,-0.000475212233939761,-0.0015115088598489632,0.0,0.0,0.0,0.0,0.0,0.0,0.0,0.0,0.0,0.018924206884237117,-0.29605836837462557,9.810196227728236,0.0,0.0,0.0,0.0,0.0,0.0,0.0,0.0,0.0
2025/05/25 18:47:46.277746540,1748191665,416205600,mA1/imu,0.7922170854601415,0.6102389871273689,0.00032618835408105667,0.0006014116389520623,0.0,0.0,0.0,0.0,0.0,0.0,0.0,0.0,0.0,0.0003514404159820829,-0.0015309697786902606,-0.0015605953916028898,0.0,0.0,0.0,0.0,0.0,0.0,0.0,0.0,0.0,0.020765787326488344,-0.42171827776766874,9.810145643083947,0.0,0.0,0.0,0.0,0.0,0.0,0.0,0.0,0.0
2025/05/25 18:47:46.290777074,1748191665,467436524,mA1/imu,0.7921971238440977,0.6102648667911864,0.0003038214693816465,0.0006457754949654318,0.0,0.0,0.0,0.0,0.0,0.0,0.0,0.0,0.0,-0.0007286493091722481,-0.002074187784266415,-0.0012063121001912778,0.0,0.0,0.0,0.0,0.0,0.0,0.0,0.0,0.0,0.021678503549092235,0.1107140997372285,9.80937051197843,0.0,0.0,0.0,0.0,0.0,0.0,0.0,0.0,0.0
2025/05/25 18:47:46.301415169,1748191665,517327247,mA1/imu,0.7921784569388537,0.6102890506874573,0.0002658002891778059,0.0007045020832236892,0.0,0.0,0.0,0.0,0.0,0.0,0.0,0.0,0.0,-0.0012702327391976125,-0.0029886004612640566,-0.00123718011539619,0.0,0.0,0.0,0.0,0.0,0.0,0.0,0.0,0.0,0.021738849063129336,-0.0333503022299416,9.809411981985427,0.0,0.0,0.0,0.0,0.0,0.0,0.0,0.0,0.0
2025/05/25 18:47:46.310883420,1748191665,568255261,mA1/imu,0.7921606226933474,0.610312134902568,0.00021404120787250327,0.0007746167563206116,0.0,0.0,0.0,0.0,0.0,0.0,0.0,0.0,0.0,-0.0009879635536050094,-0.003606472433294661,-0.001143261255160046,0.0,0.0,0.0,0.0,0.0,0.0,0.0,0.0,0.0,0.01924477970099945,-0.6531230408459482,9.809754737398336,0.0,0.0,0.0,0.0,0.0,0.0,0.0,0.0,0.0
2025/05/25 18:47:47.272618364,1748191666,318570580,mA1/imu,0.7919933946472724,0.6105290484516878,-9.776428712513229e-05,0.0008568978415641043,0.0,0.0,0.0,0.0,0.0,0.0,0.0,0.0,0.0,0.0014476024498172898,0.0038373332363737214,-9.905192777371328e-05,0.0,0.0,0.0,0.0,0.0,0.0,0.0,0.0,0.0,0.020278986244059702,-0.054458764316626024,9.809482945606085,0.0,0.0,0.0,0.0,0.0,0.0,0.0,0.0,0.0
2025/05/25 18:47:47.278683911,1748191666,370154341,mA1/imu,0.7919925591214519,0.6105302378116411,-3.527290555731445e-05,0.0007834345772567205,0.0,0.0,0.0,0.0,0.0,0.0,0.0,0.0,0.0,0.0008000627791915106,0.0036954555772539767,-2.8147551473877045e-05,0.0,0.0,0.0,0.0,0.0,0.0,0.0,0.0,0.0,0.021209532050508365,0.0050212092803562335,9.80976904912921,0.0,0.0,0.0,0.0,0.0,0.0,0.0,0.0,0.0
2025/05/25 18:47:47.288911182,1748191666,419412938,mA1/imu,0.7919927797725206,0.6105300339893476,2.4003614304043323e-05,0.0007168047072516699,0.0,0.0,0.0,0.0,0.0,0.0,0.0,0.0,0.0,0.0005234187179456295,0.0033503460275579773,4.111642137973292e-05,0.0,0.0,0.0,0.0,0.0,0.0,0.0,0.0,0.0,0.021286759431953593,0.03375914401868933,9.81024521780598,0.0,0.0,0.0,0.0,0.0,0.0,0.0,0.0,0.0
2025/05/25 18:47:47.300081420,1748191666,471299231,mA1/imu,0.7919931794192253,0.6105295749274113,7.681737842871585e-05,0.0006602965029759449,0.0,0.0,0.0,0.0,0.0,0.0,0.0,0.0,0.0,0.0007070467216385237,0.0028347473025447387,3.4588976127765973e-05,0.0,0.0,0.0,0.0,0.0,0.0,0.0,0.0,0.0,0.021187804071007794,0.022464698124034902,9.80989227064668,0.0,0.0,0.0,0.0,0.0,0.0,0.0,0.0,0.0
2025/05/25 18:47:47.310216839,1748191666,520241529,mA1/imu,0.7919941660037654,0.6105283318478446,0.00012171569634429575,0.0006182332711878115,0.0,0.0,0.0,0.0,0.0,0.0,0.0,0.0,0.0,0.0006651330054858777,0.0021731032888567766,8.540508614454527e-05,0.0,0.0,0.0,0.0,0.0,0.0,0.0,0.0,0.0,0.020853923766097696,-0.5954525406918942,9.808588691248653,0.0,0.0,0.0,0.0,0.0,0.0,0.0,0.0,0.0
2025/05/25 18:47:48.72154583,1748191667,119327921,mA1/imu,0.7920604983522058,0.6104416772900094,-0.00016570949223101273,0.0010479111504736343,0.0,0.0,0.0,0.0,0.0,0.0,0.0,0.0,0.0,-0.00115954945471657,-0.0018737319000335826,0.0006089621483724586,0.0,0.0,0.0,0.0,0.0,0.0,0.0,0.0,0.0,0.0021448663856513603,-0.024202155680002835,9.810653456696373,0.0,0.0,0.0,0.0,0.0,0.0,0.0,0.0,0.0
2025/05/25 18:47:48.74520442,1748191667,170681075,mA1/imu,0.792066251251,0.6104341365866585,-0.00018779593108192053,0.0010877736790820998,0.0,0.0,0.0,0.0,0.0,0.0,0.0,0.0,0.0,5.500594484299007e-05,-0.0014073445762665217,0.0002972175553411147,0.0,0.0,0.0,0.0,0.0,0.0,0.0,0.0,0.0,-0.0007423199794787949,-0.5753756200666278,9.808220880379166,0.0,0.0,0.0,0.0,0.0,0.0,0.0,0.0,0.0
2025/05/25 18:47:48.84473693,1748191667,220567168,mA1/imu,0.7920719936345437,0.610426650201342,-0.00019646742845722546,0.0011059042984236614,0.0,0.0,0.0,0.0,0.0,0.0,0.0,0.0,0.0,0.0009962819418855727,-0.00026394489189320697,0.000436855393102407,0.0,0.0,0.0,0.0,0.0,0.0,0.0,0.0,0.0,-0.0019776644524194392,-0.5246002510493991,9.809017413091373,0.0,0.0,0.0,0.0,0.0,0.0,0.0,0.0,0.0
2025/05/25 18:47:48.817625482,1748191667,868553185,mA1/imu,0.7920863039732162,0.6104088262686589,0.0005138911701954593,0.0002962891038588995,0.0,0.0,0.0,0.0,0.0,0.0,0.0,0.0,0.0,0.0024398750763072784,0.002029547821655555,0.00013621593743489037,0.0,0.0,0.0,0.0,0.0,0.0,0.0,0.0,0.0,0.0018755399755329824,-0.5250237463939791,9.808549227307369,0.0,0.0,0.0,0.0,0.0,0.0,0.0,0.0,0.0
2025/05/25 18:47:48.825887359,1748191667,918286058,mA1/imu,0.7920885275303499,0.6104059450759584,0.0005282588029342627,0.0002602179186932782,0.0,0.0,0.0,0.0,0.0,0.0,0.0,0.0,0.0,0.0010979038300374829,0.0008464894011546435,0.00015324892996122788,0.0,0.0,0.0,0.0,0.0,0.0,0.0,0.0,0.0,0.0031127118060911875,0.017925579867499195,9.81130227200832,0.0,0.0,0.0,0.0,0.0,0.0,0.0,0.0,0.0
2025/05/25 18:47:48.835635445,1748191667,969277349,mA1/imu,0.7920910274858213,0.6104027167510719,0.0005185411583285148,0.00024222806133626496,0.0,0.0,0.0,0.0,0.0,0.0,0.0,0.0,0.0,0.00021731217003272506,-0.0003521517424887603,0.0001703735123076241,0.0,0.0,0.0,0.0,0.0,0.0,0.0,0.0,0.0,0.0024757780013656503,-0.028885959514453993,9.811968701868546,0.0,0.0,0.0,0.0,0.0,0.0,0.0,0.0,0.0
2025/05/25 18:47:48.846211262,1748191668,19316685,mA1/imu,0.7920938619253016,0.6103990593536248,0.0004903237341959416,0.0002486425280865373,0.0,0.0,0.0,0.0,0.0,0.0,0.0,0.0,0.0,-0.0007224081647147687,-0.0014885169942872,0.00020061214017024593,0.0,0.0,0.0,0.0,0.0,0.0,0.0,0.0,0.0,-0.0005671764651262404,-0.07646882622215993,9.809717984449124,0.0,0.0,0.0,0.0,0.0,0.0,0.0,0.0,0.0
2025/05/25 18:47:49.75471282,1748191668,123429410,mA1/imu,0.7920899480603959,0.6104041959454471,0.00036248703638267973,0.00031679176073173327,0.0,0.0,0.0,0.0,0.0,0.0,0.0,0.0,0.0,-0.0005726665434966264,-0.0036778851519415194,-0.0002690808044460234,0.0,0.0,0.0,0.0,0.0,0.0,0.0,0.0,0.0,0.002799158799939556,0.6011693108588947,9.810639759051298,0.0,0.0,0.0,0.0,0.0,0.0,0.0,0.0,0.0
2025/05/25 18:47:49.85799903,1748191668,164456382,mA1/imu,0.7920869065886594,0.6104081469200764,0.00028645324536409736,0.00038016962638960915,0.0,0.0,0.0,0.0,0.0,0.0,0.0,0.0,0.0,-0.0006094591531389503,-0.004091525957841919,-0.00015553962875818872,0.0,0.0,0.0,0.0,0.0,0.0,0.0,0.0,0.0,-0.00948510920191677,0.37430836613651425,9.811532553641303,0.0,0.0,0.0,0.0,0.0,0.0,0.0,0.0,0.0
2025/05/25 18:47:49.100044077,1748191668,214318533,mA1/imu,0.7920857344462652,0.6104096485010228,0.00021054085326571286,0.00045384592941561297,0.0,0.0,0.0,0.0,0.0,0.0,0.0,0.0,0.0,0.00011025581813388698,-0.004260570083637706,-2.873012293756365e-05,0.0,0.0,0.0,0.0,0.0,0.0,0.0,0.0,0.0,-0.008571815377498558,-0.2820310167121424,9.808564904974396,0.0,0.0,0.0,0.0,0.0,0.0,0.0,0.0,0.0
2025/05/25 18:47:49.575075596,1748191668,622489287,mA1/imu,0.7919459980218592,0.6105902850278068,-0.0001850522042707762,0.0010028970558467842,0.0,0.0,0.0,0.0,0.0,0.0,0.0,0.0,0.0,-0.0008100547511279452,-0.0014531601192266496,-0.003256858556288453,0.0,0.0,0.0,0.0,0.0,0.0,0.0,0.0,0.0,-0.023158297916276868,-0.03713642616438195,9.810431979742871,0.0,0.0,0.0,0.0,0.0,0.0,0.0,0.0,0.0
2025/05/25 18:47:49.577463402,1748191668,673593314,mA1/imu,0.7918945475651431,0.6106569725155383,-0.0001767602334130398,0.0010277210586203947,0.0,0.0,0.0,0.0,0.0,0.0,0.0,0.0,0.0,-0.0009710981481639562,0.0004047938090599864,-0.003432316030593583,0.0,0.0,0.0,0.0,0.0,0.0,0.0,0.0,0.0,-0.02353722054947252,0.014534209227597232,9.812242147438305,0.0,0.0,0.0,0.0,0.0,0.0,0.0,0.0,0.0
2025/05/25 18:47:50.166733339,1748191669,218174934,mA1/imu,0.7912578731532872,0.6114819812971556,0.0008600871184754891,0.00015802528282320578,0.0,0.0,0.0,0.0,0.0,0.0,0.0,0.0,0.0,-0.0001984960534564165,0.001552161824117018,-0.003845467830611248,0.0,0.0,0.0,0.0,0.0,0.0,0.0,0.0,0.0,0.005894004254650998,0.42326496285823295,9.811045572088089,0.0,0.0,0.0,0.0,0.0,0.0,0.0,0.0,0.0
2025/05/25 18:47:50.180551281,1748191669,269165297,mA1/imu,0.791201456422189,0.6115549902245999,0.0008558229923626636,0.00012982219470868947,0.0,0.0,0.0,0.0,0.0,0.0,0.0,0.0,0.0,0.0009014925846608812,-0.00020980322834044925,-0.0036691060252183163,0.0,0.0,0.0,0.0,0.0,0.0,0.0,0.0,0.0,0.006876648309680329,0.010664157988282416,9.81032531845827,0.0,0.0,0.0,0.0,0.0,0.0,0.0,0.0,0.0
2025/05/25 18:47:50.189841045,1748191669,319900395,mA1/imu,0.7911450619788342,0.6116280020603173,0.000812741839322083,0.00013210947734286152,0.0,0.0,0.0,0.0,0.0,0.0,0.0,0.0,0.0,0.0007137808697181817,-0.002213293113612161,-0.003706635651419536,0.0,0.0,0.0,0.0,0.0,0.0,0.0,0.0,0.0,0.00785368963788748,0.14571168282919855,9.809411055497293,0.0,0.0,0.0,0.0,0.0,0.0,0.0,0.0,0.0
2025/05/25 18:47:50.199976460,1748191669,370916768,mA1/imu,0.7910885652253035,0.611701163575871,0.000734288207079095,0.00017108630866383444,0.0,0.0,0.0,0.0,0.0,0.0,0.0,0.0,0.0,-0.0005250375663883271,-0.004203762942291644,-0.003703915733977664,0.0,0.0,0.0,0.0,0.0,0.0,0.0,0.0,0.0,0.008359635281689972,0.38590223975705745,9.809565875333439,0.0,0.0,0.0,0.0,0.0,0.0,0.0,0.0,0.0
2025/05/25 18:47:50.210633411,1748191669,420966730,mA1/imu,0.7910319332562412,0.6117745064700892,0.0006162719001070691,0.00023240292030635257,0.0,0.0,0.0,0.0,0.0,0.0,0.0,0.0,0.0,0.000971010877466125,-0.005857046557305837,-0.0036948069637592817,0.0,0.0,0.0,0.0,0.0,0.0,0.0,0.0,0.0,0.004060484286432098,-0.5974199210964537,9.808312273761947,0.0,0.0,0.0,0.0,0.0,0.0,0.0,0.0,0.0
2025/05/25 18:47:51.169877051,1748191670,215909165,mA1/imu,0.790207440011894,0.6128387800935201,-1.3725154032198368e-05,0.0009116879700893071,0.0,0.0,0.0,0.0,0.0,0.0,0.0,0.0,0.0,-0.0005247564218925664,0.0063150607906238545,-0.0028352524720118445,0.0,0.0,0.0,0.0,0.0,0.0,0.0,0.0,0.0,0.019359013457618736,0.02499533416896577,9.81190394696387,0.0,0.0,0.0,0.0,0.0,0.0,0.0,0.0,0.0
2025/05/25 18:47:51.178926347,1748191670,267605478,mA1/imu,0.7901678567406594,0.6128899259336508,0.00012490599168055974,0.0008253856129331217,0.0,0.0,0.0,0.0,0.0,0.0,0.0,0.0,0.0,-0.0011181894185362206,0.00648189546676198,-0.0024639504133221746,0.0,0.0,0.0,0.0,0.0,0.0,0.0,0.0,0.0,0.023425617000040908,0.21079332480284266,9.813647153002906,0.0,0.0,0.0,0.0,0.0,0.0,0.0,0.0,0.0
2025/05/25 18:47:51.183095242,1748191670,317443570,mA1/imu,0.7901306961718831,0.612937905413931,0.000249790217315951,0.0007380234179708764,0.0,0.0,0.0,0.0,0.0,0.0,0.0,0.0,0.0,0.0005589176458291764,0.005775807555329486,-0.0023939533130933836,0.0,0.0,0.0,0.0,0.0,0.0,0.0,0.0,0.0,0.024560878097635803,0.078373682984518,9.81000594968126,0.0,0.0,0.0,0.0,0.0,0.0,0.0,0.0,0.0
2025/05/25 18:47:51.875428690,1748191670,914625007,mA1/imu,0.7897917619877379,0.6133743805976511,-0.0002691530108571797,0.0008771997541056986,0.0,0.0,0.0,0.0,0.0,0.0,0.0,0.0,0.0,0.0031321790737703172,-0.0050346408300319815,-0.001167647355598181,0.0,0.0,0.0,0.0,0.0,0.0,0.0,0.0,0.0,0.017059606618692377,-0.4797255234830944,9.808221685709908,0.0,0.0,0.0,0.0,0.0,0.0,0.0,0.0,0.0
2025/05/25 18:47:51.880318362,1748191670,966995972,mA1/imu,0.7897746295908461,0.6133963074935085,-0.00037800742223351776,0.0009281801332236268,0.0,0.0,0.0,0.0,0.0,0.0,0.0,0.0,0.0,0.0016236975474470574,-0.004439817646577113,-0.001082203226148308,0.0,0.0,0.0,0.0,0.0,0.0,0.0,0.0,0.0,0.014676725068051639,0.05540335851807902,9.810284308295275,0.0,0.0,0.0,0.0,0.0,0.0,0.0,0.0,0.0
2025/05/25 18:47:51.885459429,1748191671,16822811,mA1/imu,0.7897588091724312,0.613416548875158,-0.00047182947690288925,0.0009686472933242255,0.0,0.0,0.0,0.0,0.0,0.0,0.0,0.0,0.0,0.001339049125736765,-0.003590292273439158,-0.0009948840061539724,0.0,0.0,0.0,0.0,0.0,0.0,0.0,0.0,0.0,0.012465471781844826,0.047419735124494766,9.809612643067918,0.0,0.0,0.0,0.0,0.0,0.0,0.0,0.0,0.0
2025/05/25 18:47:52.771125727,1748191671,822460045,mA1/imu,0.7896117500833573,0.6136063367802194,0.0005399851617984263,0.0005059737965191581,0.0,0.0,0.0,0.0,0.0,0.0,0.0,0.0,0.0,-0.0006234398574134764,0.00016222096801608583,-0.00011487223610718657,0.0,0.0,0.0,0.0,0.0,0.0,0.0,0.0,0.0,0.015314198469805685,0.0008603722174408811,9.809084120091402,0.0,0.0,0.0,0.0,0.0,0.0,0.0,0.0,0.0
2025/05/25 18:47:52.777835711,1748191671,873569946,mA1/imu,0.7896103516853664,0.613608127677498,0.0005333387827030325,0.0005231722182772079,0.0,0.0,0.0,0.0,0.0,0.0,0.0,0.0,0.0,-0.0012603874647786342,-0.0011496168852144426,-7.597494483725816e-05,0.0,0.0,0.0,0.0,0.0,0.0,0.0,0.0,0.0,0.015538929514842805,0.29828723197314877,9.809227852738681,0.0,0.0,0.0,0.0,0.0,0.0,0.0,0.0,0.0
2025/05/25 18:47:52.785274048,1748191671,923427414,mA1/imu,0.7896095695235994,0.6136091526417465,0.0004893697758226342,0.0005440847877406317,0.0,0.0,0.0,0.0,0.0,0.0,0.0,0.0,0.0,0.00040878879007152084,-0.0023819448021306965,-3.7788561483034524e-05,0.0,0.0,0.0,0.0,0.0,0.0,0.0,0.0,0.0,0.01442131585455423,0.028402765033113758,9.810573503214487,0.0,0.0,0.0,0.0,0.0,0.0,0.0,0.0,0.0
2025/05/25 18:47:52.793991723,1748191671,965901898,mA1/imu,0.7896093786739837,0.6136094044029845,0.0004269888282466398,0.0005878935625604821,0.0,0.0,0.0,0.0,0.0,0.0,0.0,0.0,0.0,0.0006438739319692169,-0.0034649889999416065,5.081722659879887e-07,0.0,0.0,0.0,0.0,0.0,0.0,0.0,0.0,0.0,0.013079024138759698,0.025710976509353323,9.809103588805836,0.0,0.0,0.0,0.0,0.0,0.0,0.0,0.0,0.0
2025/05/25 18:47:52.806801378,1748191672,17897544,mA1/imu,0.7896097881438828,0.6136088884115721,0.00033604059832924044,0.0006337242328353297,0.0,0.0,0.0,0.0,0.0,0.0,0.0,0.0,0.0,0.0013863768102618447,-0.0043320565928891275,3.8328463491846584e-05,0.0,0.0,0.0,0.0,0.0,0.0,0.0,0.0,0.0,0.013165023375653409,0.05593297874722558,9.810624109375333,0.0,0.0,0.0,0.0,0.0,0.0,0.0,0.0,0.0
2025/05/25 18:47:52.816657170,1748191672,71156801,mA1/imu,0.789610842196066,0.6136075095880296,0.00023702530852635808,0.0006970527947250403,0.0,0.0,0.0,0.0,0.0,0.0,0.0,0.0,0.0,0.0016389343874852879,-0.004894703668229337,8.546414091420463e-05,0.0,0.0,0.0,0.0,0.0,0.0,0.0,0.0,0.0,0.009341531179352148,-0.5677758947746461,9.810136070115774,0.0,0.0,0.0,0.0,0.0,0.0,0.0,0.0,0.0
2025/05/25 18:47:53.769570444,1748191672,821841901,mA1/imu,0.7897482082561013,0.6134308617827832,7.793169945748875e-05,0.0005824906521503488,0.0,0.0,0.0,0.0,0.0,0.0,0.0,0.0,0.0,0.00039344907990304494,0.004632969026536998,0.0013214804859219252,0.0,0.0,0.0,0.0,0.0,0.0,0.0,0.0,0.0,0.012929597154880366,-0.5292418310305498,9.810378538708084,0.0,0.0,0.0,0.0,0.0,0.0,0.0,0.0,0.0
2025/05/25 18:47:53.770422076,1748191672,864741838,mA1/imu,0.7897691386118083,0.6134039329175464,0.00018181940759209173,0.000538255842337394,0.0,0.0,0.0,0.0,0.0,0.0,0.0,0.0,0.0,-0.0014263477250151511,0.004135552731454978,0.001396214883255708,0.0,0.0,0.0,0.0,0.0,0.0,0.0,0.0,0.0,0.013669063850539537,-0.013306944462882688,9.812442671258632,0.0,0.0,0.0,0.0,0.0,0.0,0.0,0.0,0.0
2025/05/25 18:47:54.75588269,1748191673,116593828,mA1/imu,0.7898833213663504,0.6132567678242181,0.00045209137524027424,0.0005205366885863949,0.0,0.0,0.0,0.0,0.0,0.0,0.0,0.0,0.0,-0.0009789484033843655,-0.0005021370038206043,0.0015430144976686746,0.0,0.0,0.0,0.0,0.0,0.0,0.0,0.0,0.0,0.009263645673884834,0.30109160762977055,9.81009914635558,0.0,0.0,0.0,0.0,0.0,0.0,0.0,0.0,0.0
2025/05/25 18:47:54.79865267,1748191673,167598158,mA1/imu,0.7899072755013143,0.613225878943327,0.00045039258704301065,0.0005609374229369405,0.0,0.0,0.0,0.0,0.0,0.0,0.0,0.0,0.0,-0.001348091566716266,-0.0014005495320437442,0.0015761262817449747,0.0,0.0,0.0,0.0,0.0,0.0,0.0,0.0,0.0,0.00828588423223579,0.06629229811986334,9.808389037233875,0.0,0.0,0.0,0.0,0.0,0.0,0.0,0.0,0.0
2025/05/25 18:47:54.84469276,1748191673,217478420,mA1/imu,0.7899317517520739,0.6131943233303379,0.00042581600091512597,0.0006067042791180114,0.0,0.0,0.0,0.0,0.0,0.0,0.0,0.0,0.0,-0.0007274731634197308,-0.0022176429909915446,0.0016094155895732688,0.0,0.0,0.0,0.0,0.0,0.0,0.0,0.0,0.0,0.007832804060304616,0.016531154580657625,9.808568619466993,0.0,0.0,0.0,0.0,0.0,0.0,0.0,0.0,0.0
2025/05/25 18:47:54.96722420,1748191673,269888159,mA1/imu,0.7899567410711164,0.613162098104898,0.00038639294843481576,0.0006628607620916306,0.0,0.0,0.0,0.0,0.0,0.0,0.0,0.0,0.0,-0.0017257080180757291,-0.0028694308314492225,0.001642399792810469,0.0,0.0,0.0,0.0,0.0,0.0,0.0,0.0,0.0,0.006893420060022061,0.5589545802436574,9.809124133883394,0.0,0.0,0.0,0.0,0.0,0.0,0.0,0.0,0.0
2025/05/25 18:47:54.108268611,1748191673,320167352,mA1/imu,0.7899822368491131,0.613129216025854,0.0003312224950215201,0.0007212558854765177,0.0,0.0,0.0,0.0,0.0,0.0,0.0,0.0,0.0,1.418682940484079e-05,-0.0033579807643502476,0.0016751351791791705,0.0,0.0,0.0,0.0,0.0,0.0,0.0,0.0,0.0,0.005750019051778131,-0.5951141427126189,9.80771282315603,0.0,0.0,0.0,0.0,0.0,0.0,0.0,0.0,0.0
2025/05/25 18:47:55.70010098,1748191674,114824867,mA1/imu,0.7904543482004687,0.612520717666808,5.905161575490598e-05,0.0005388439639108673,0.0,0.0,0.0,0.0,0.0,0.0,0.0,0.0,0.0,0.0010063316864123895,0.002842496382424526,0.0020305119584305246,0.0,0.0,0.0,0.0,0.0,0.0,0.0,0.0,0.0,0.009573402695281483,-0.5492397200223118,9.80963704869287,0.0,0.0,0.0,0.0,0.0,0.0,0.0,0.0,0.0
2025/05/25 18:47:55.71649369,1748191674,166322046,mA1/imu,0.7904853110389884,0.6124807803394821,0.00011494059526903757,0.0005035225837076834,0.0,0.0,0.0,0.0,0.0,0.0,0.0,0.0,0.0,-0.0011465772676859506,0.0024632070430397413,0.002017248183834568,0.0,0.0,0.0,0.0,0.0,0.0,0.0,0.0,0.0,0.01051228139541948,0.5798542915701087,9.808919322666675,0.0,0.0,0.0,0.0,0.0,0.0,0.0,0.0,0.0
2025/05/25 18:47:55.83291390,1748191674,216804403,mA1/imu,0.7905160803455296,0.612441077653287,0.00016179272590586036,0.0004763833905422589,0.0,0.0,0.0,0.0,0.0,0.0,0.0,0.0,0.0,-2.57253133511359e-05,0.0019210105140550732,0.0020063254583588363,0.0,0.0,0.0,0.0,0.0,0.0,0.0,0.0,0.0,0.010230420519749164,0.04650928484955185,9.80974249547839,0.0,0.0,0.0,0.0,0.0,0.0,0.0,0.0,0.0
2025/05/25 18:47:55.93912062,1748191674,267950337,mA1/imu,0.7905503130217559,0.6123968827891543,0.00021149505603840766,0.0004645440473023832,0.0,0.0,0.0,0.0,0.0,0.0,0.0,0.0,0.0,-0.00048147972752006154,0.0017042617977360366,0.0023501041010396385,0.0,0.0,0.0,0.0,0.0,0.0,0.0,0.0,0.0,0.013051983090389848,0.11930887258153616,9.808984004305874,0.0,0.0,0.0,0.0,0.0,0.0,0.0,0.0,0.0
2025/05/25 18:47:55.107599500,1748191674,317651514,mA1/imu,0.790586420292414,0.6123502489700432,0.0002538281067849062,0.0004692620216742808,0.0,0.0,0.0,0.0,0.0,0.0,0.0,0.0,0.0,-0.0019065781117013588,0.0008924937109160966,0.0023664754495135707,0.0,0.0,0.0,0.0,0.0,0.0,0.0,0.0,0.0,0.013237241491348506,0.2733594512237699,9.808252629161462,0.0,0.0,0.0,0.0,0.0,0.0,0.0,0.0,0.0
2025/05/25 18:47:55.117687431,1748191674,369274595,mA1/imu,0.7906227728428803,0.6123032916455647,0.0002764717002207801,0.00048338973980282835,0.0,0.0,0.0,0.0,0.0,0.0,0.0,0.0,0.0,-0.00017501519640689917,2.4950186601789786e-05,0.0023817854622990614,0.0,0.0,0.0,0.0,0.0,0.0,0.0,0.0,0.0,0.012916011170112054,-0.5492955231632212,9.808380600137568,0.0,0.0,0.0,0.0,0.0,0.0,0.0,0.0,0.0
2025/05/25 18:47:55.614789821,1748191674,674104037,mA1/imu,0.7908460058345935,0.6120146155503692,0.00014251860146581694,0.0008277056554719263,0.0,0.0,0.0,0.0,0.0,0.0,0.0,0.0,0.0,-0.0010183704288229617,-0.0033020016083073135,0.002483114475415635,0.0,0.0,0.0,0.0,0.0,0.0,0.0,0.0,0.0,0.008732233903221896,0.00451007889304746,9.810094953126987,0.0,0.0,0.0,0.0,0.0,0.0,0.0,0.0,0.0
2025/05/25 18:47:55.618462288,1748191674,715295895,mA1/imu,0.7908841666686264,0.6119652174802523,8.985381180500672e-05,0.000894110458560331,0.0,0.0,0.0,0.0,0.0,0.0,0.0,0.0,0.0,-0.0007219750941980969,-0.0032598615185344495,0.002502470854970913,0.0,0.0,0.0,0.0,0.0,0.0,0.0,0.0,0.0,0.008290856913349458,0.00999849860743907,9.810700865476965,0.0,0.0,0.0,0.0,0.0,0.0,0.0,0.0,0.0
2025/05/25 18:47:55.634761936,1748191674,766633324,mA1/imu,0.7909226310252848,0.6119154195030848,3.721389751894054e-05,0.0009537932326460039,0.0,0.0,0.0,0.0,0.0,0.0,0.0,0.0,0.0,-0.0005078694553602205,-0.0030157450977307924,0.0025229589618171538,0.0,0.0,0.0,0.0,0.0,0.0,0.0,0.0,0.0,0.007174086092617215,0.006461083337431282,9.810753227694399,0.0,0.0,0.0,0.0,0.0,0.0,0.0,0.0,0.0
2025/05/25 18:47:55.643066681,1748191674,816642823,mA1/imu,0.7909614100958455,0.6118652137600525,-1.189620137212672e-05,0.0010038864663532304,0.0,0.0,0.0,0.0,0.0,0.0,0.0,0.0,0.0,-0.00027326559606510463,-0.0026041221827519893,0.0025439959235064734,0.0,0.0,0.0,0.0,0.0,0.0,0.0,0.0,0.0,0.006998487444646939,0.00342347782360807,9.811483996659309,0.0,0.0,0.0,0.0,0.0,0.0,0.0,0.0,0.0
2025/05/25 18:47:55.654075513,1748191674,867648127,mA1/imu,0.791000521735974,0.6118145922277984,-5.782531139332742e-05,0.0010373074680198107,0.0,0.0,0.0,0.0,0.0,0.0,0.0,0.0,0.0,0.00013618307821551277,-0.0020339072178004692,0.0025658640997286704,0.0,0.0,0.0,0.0,0.0,0.0,0.0,0.0,0.0,0.006198651899913377,0.01148972213569631,9.811036500921922,0.0,0.0,0.0,0.0,0.0,0.0,0.0,0.0,0.0
2025/05/25 18:47:55.663868053,1748191674,917486935,mA1/imu,0.7910399550410349,0.6117635729018296,-9.689842496864295e-05,0.0010540444774657502,0.0,0.0,0.0,0.0,0.0,0.0,0.0,0.0,0.0,0.0005889387108659579,-0.0013653177180168697,0.0025820564309116272,0.0,0.0,0.0,0.0,0.0,0.0,0.0,0.0,0.0,0.00567793129804788,0.6500510784603595,9.813089102726053,0.0,0.0,0.0,0.0,0.0,0.0,0.0,0.0,0.0
2025/05/25 18:47:56.626217785,1748191675,665940988,mA1/imu,0.7914135056681117,0.6112809807061401,0.0002902771182794859,0.00037604819321975083,0.0,0.0,0.0,0.0,0.0,0.0,0.0,0.0,0.0,-0.00018211715755219016,0.00018129988905278457,0.0011860697335471417,0.0,0.0,0.0,0.0,0.0,0.0,0.0,0.0,0.0,0.009255210496695292,0.010837642880581344,9.8094407980248,0.0,0.0,0.0,0.0,0.0,0.0,0.0,0.0,0.0
2025/05/25 18:47:56.629170278,1748191675,716018732,mA1/imu,0.7914311099177076,0.6112581799896318,0.00029010219528359884,0.0003892183250170304,0.0,0.0,0.0,0.0,0.0,0.0,0.0,0.0,0.0,-0.00041555990771019734,-0.0006735046721826279,0.0011293711350052022,0.0,0.0,0.0,0.0,0.0,0.0,0.0,0.0,0.0,0.009036575987088671,-0.37210697243691915,9.809495898351098,0.0,0.0,0.0,0.0,0.0,0.0,0.0,0.0,0.0
2025/05/25 18:47:56.637112300,1748191675,767016072,mA1/imu,0.7914478633367074,0.6112364749713652,0.00027607016736972393,0.0004184131966866609,0.0,0.0,0.0,0.0,0.0,0.0,0.0,0.0,0.0,-0.0021549905100109188,-0.0014675430482054858,0.0010739379944517135,0.0,0.0,0.0,0.0,0.0,0.0,0.0,0.0,0.0,0.009031479470527645,0.4316183523301294,9.810524079926859,0.0,0.0,0.0,0.0,0.0,0.0,0.0,0.0,0.0
2025/05/25 18:47:56.651419412,1748191675,819061968,mA1/imu,0.7914637737242947,0.6112158484674454,0.00025266840792328375,0.0004665007983697834,0.0,0.0,0.0,0.0,0.0,0.0,0.0,0.0,0.0,-0.0014786716804507751,-0.0021870484525812165,0.001019344320397313,0.0,0.0,0.0,0.0,0.0,0.0,0.0,0.0,0.0,0.007541966513280636,-0.02924812513926675,9.808662045285372,0.0,0.0,0.0,0.0,0.0,0.0,0.0,0.0,0.0
2025/05/25 18:47:56.657595047,1748191675,872327561,mA1/imu,0.79147885380168,0.6111962849325652,0.0002184747567539538,0.0005268189346241852,0.0,0.0,0.0,0.0,0.0,0.0,0.0,0.0,0.0,-0.0008752803302655776,-0.0027860751133425097,0.00096574028735959,0.0,0.0,0.0,0.0,0.0,0.0,0.0,0.0,0.0,0.007642265081994367,-0.6099190165827216,9.80996005413424,0.0,0.0,0.0,0.0,0.0,0.0,0.0,0.0,0.0
2025/05/25 18:47:57.70517156,1748191676,115356581,mA1/imu,0.7915365523325097,0.6111211835174342,1.125380645214158e-05,0.0008861439873633823,0.0,0.0,0.0,0.0,0.0,0.0,0.0,0.0,0.0,0.0003912961034975218,-0.0023001644878911545,0.0005285176513281988,0.0,0.0,0.0,0.0,0.0,0.0,0.0,0.0,0.0,-0.002814431591570318,-0.5140469996048969,9.810521197686802,0.0,0.0,0.0,0.0,0.0,0.0,0.0,0.0,0.0
2025/05/25 18:47:57.72254650,1748191676,166323019,mA1/imu,0.7915339512470156,0.6111244484843681,-2.4232055616082548e-05,0.0009549349566855197,0.0,0.0,0.0,0.0,0.0,0.0,0.0,0.0,0.0,-0.0016066707049612987,-0.002927269682416575,-0.00047513358026274853,0.0,0.0,0.0,0.0,0.0,0.0,0.0,0.0,0.0,-0.007080838806145934,0.5955070123579155,9.81188561195141,0.0,0.0,0.0,0.0,0.0,0.0,0.0,0.0,0.0
2025/05/25 18:47:57.466944594,1748191676,521813139,mA1/imu,0.7914436119186605,0.611241530985191,9.810070217421629e-05,0.000889004092757091,0.0,0.0,0.0,0.0,0.0,0.0,0.0,0.0,0.0,0.0015424624925139,0.003796541546121881,-0.0011853017885657272,0.0,0.0,0.0,0.0,0.0,0.0,0.0,0.0,0.0,-0.002850158231155765,0.048833998047807664,9.809601192339706,0.0,0.0,0.0,0.0,0.0,0.0,0.0,0.0,0.0
2025/05/25 18:47:57.472143905,1748191676,572953017,mA1/imu,0.7914245881204428,0.6112662547087648,0.00016666541528672399,0.0008120316166279731,0.0,0.0,0.0,0.0,0.0,0.0,0.0,0.0,0.0,0.000138625289120979,0.004186173815109276,-0.0012847270516533188,0.0,0.0,0.0,0.0,0.0,0.0,0.0,0.0,0.0,-0.001453067503335531,0.5685261724322778,9.810756880536541,0.0,0.0,0.0,0.0,0.0,0.0,0.0,0.0,0.0
2025/05/25 18:47:57.480491767,1748191676,622660940,mA1/imu,0.7914040474872119,0.6112929329378424,0.00023615317533648837,0.0007266311217420268,0.0,0.0,0.0,0.0,0.0,0.0,0.0,0.0,0.0,0.0005419244501292401,0.004328684851527359,-0.001383441481447338,0.0,0.0,0.0,0.0,0.0,0.0,0.0,0.0,0.0,-0.0015360314889378513,-0.041367705819621146,9.809588540753147,0.0,0.0,0.0,0.0,0.0,0.0,0.0,0.0,0.0
2025/05/25 18:47:57.492638119,1748191676,674242449,mA1/imu,0.7913820059715663,0.611321545182564,0.0002981258045555425,0.0006325670138719165,0.0,0.0,0.0,0.0,0.0,0.0,0.0,0.0,0.0,0.0021690655116905423,0.004188589040649301,-0.0014812073249520505,0.0,0.0,0.0,0.0,0.0,0.0,0.0,0.0,0.0,0.0006733715820293881,-0.5681240277297087,9.8078081989452,0.0,0.0,0.0,0.0,0.0,0.0,0.0,0.0,0.0
2025/05/25 18:47:57.501499349,1748191676,715114818,mA1/imu,0.7913584618335827,0.61135207885052,0.0003546369150551837,0.0005429568969516369,0.0,0.0,0.0,0.0,0.0,0.0,0.0,0.0,0.0,0.0020358496043363593,0.003804542203525432,-0.0015786493354165486,0.0,0.0,0.0,0.0,0.0,0.0,0.0,0.0,0.0,0.0015997800790662371,0.0474102013328538,9.808691213151832,0.0,0.0,0.0,0.0,0.0,0.0,0.0,0.0,0.0
2025/05/25 18:47:57.511769912,1748191676,764856419,mA1/imu,0.7913334168171182,0.6113845261625555,0.0004063797848398872,0.00046845811239180777,0.0,0.0,0.0,0.0,0.0,0.0,0.0,0.0,0.0,0.0003683824619654871,0.0031989071480041367,-0.0016762497144058176,0.0,0.0,0.0,0.0,0.0,0.0,0.0,0.0,0.0,0.0025275842640761596,0.5652985763870186,9.810273978857339,0.0,0.0,0.0,0.0,0.0,0.0,0.0,0.0,0.0
2025/05/25 18:47:58.470963567,1748191677,518373361,mA1/imu,0.7908629890632815,0.6119919447333338,-0.00036128733915311094,0.001208959413229144,0.0,0.0,0.0,0.0,0.0,0.0,0.0,0.0,0.0,-0.000821916940020757,-0.003171929047367805,-0.0022721354007565644,0.0,0.0,0.0,0.0,0.0,0.0,0.0,0.0,0.0,0.012243785493770715,0.0424690101304246,9.810730540502652,0.0,0.0,0.0,0.0,0.0,0.0,0.0,0.0,0.0
2025/05/25 18:47:58.479139009,1748191677,572357317,mA1/imu,0.7908315844451992,0.6120323862558976,-0.0003777268004531595,0.0012730044271182408,0.0,0.0,0.0,0.0,0.0,0.0,0.0,0.0,0.0,-0.0021632936882632794,-0.001465125816903349,-0.0019466379474334025,0.0,0.0,0.0,0.0,0.0,0.0,0.0,0.0,0.0,0.013521673978985224,0.5164125664081206,9.811914175473179,0.0,0.0,0.0,0.0,0.0,0.0,0.0,0.0,0.0
2025/05/25 18:47:58.490998679,1748191677,622059390,mA1/imu,0.7908017646326159,0.6120708387742994,-0.0003711596072433081,0.0013113415314789023,0.0,0.0,0.0,0.0,0.0,0.0,0.0,0.0,0.0,-0.0018955285812320341,-0.0002268527139930182,-0.0019449844131919196,0.0,0.0,0.0,0.0,0.0,0.0,0.0,0.0,0.0,0.013061009572417242,-0.04903479044055594,9.810717070820466,0.0,0.0,0.0,0.0,0.0,0.0,0.0,0.0,0.0
2025/05/25 18:47:58.491220401,1748191677,674263012,mA1/imu,0.7907719927469756,0.6121092920344438,-0.0003461547210574749,0.0013229773158125874,0.0,0.0,0.0,0.0,0.0,0.0,0.0,0.0,0.0,-0.000340071105528235,0.000994296638119497,-0.0019432071199231668,0.0,0.0,0.0,0.0,0.0,0.0,0.0,0.0,0.0,0.014057166419688821,-0.5917428140248409,9.809101853723302,0.0,0.0,0.0,0.0,0.0,0.0,0.0,0.0,0.0
2025/05/25 18:47:58.502851431,1748191677,713923012,mA1/imu,0.7907422643208744,0.6121477457734742,-0.0003022414393636932,0.001310500386449742,0.0,0.0,0.0,0.0,0.0,0.0,0.0,0.0,0.0,0.0001694466290821218,0.0021524065430129436,-0.0019413725907591775,0.0,0.0,0.0,0.0,0.0,0.0,0.0,0.0,0.0,0.013965665716003786,-0.38566166104089383,9.808240365014267,0.0,0.0,0.0,0.0,0.0,0.0,0.0,0.0,0.0
2025/05/25 18:47:58.513861349,1748191677,764937382,mA1/imu,0.7907125564342942,0.6121862154905743,-0.00023911292916691223,0.0012780788231664545,0.0,0.0,0.0,0.0,0.0,0.0,0.0,0.0,0.0,-0.00011780962959854405,0.003188225116445414,-0.0019411180715371392,0.0,0.0,0.0,0.0,0.0,0.0,0.0,0.0,0.0,0.015016484618941943,0.00987411707475003,9.810672721694655,0.0,0.0,0.0,0.0,0.0,0.0,0.0,0.0,0.0
2025/05/25 18:47:59.469404788,1748191678,521027503,mA1/imu,0.7901050873076997,0.6129711318263564,0.000229543236689692,0.0005383938246380649,0.0,0.0,0.0,0.0,0.0,0.0,0.0,0.0,0.0,0.0022864702305767197,-0.0024554531571508342,-0.003667828436352042,0.0,0.0,0.0,0.0,0.0,0.0,0.0,0.0,0.0,0.0025453939144791256,-0.4805317071913266,9.810248902797978,0.0,0.0,0.0,0.0,0.0,0.0,0.0,0.0,0.0
2025/05/25 18:47:59.475984694,1748191678,571998586,mA1/imu,0.7900480492685249,0.6130446092328629,0.0001893914214997682,0.0005925102652356994,0.0,0.0,0.0,0.0,0.0,0.0,0.0,0.0,0.0,0.0006704562981630235,-0.002698810135417671,-0.003758588243283049,0.0,0.0,0.0,0.0,0.0,0.0,0.0,0.0,0.0,0.001827259320397975,-0.5690504661131089,9.809612542989232,0.0,0.0,0.0,0.0,0.0,0.0,0.0,0.0,0.0
2025/05/25 18:48:00.417585217,1748191679,466103896,mA1/imu,0.7888564874600108,0.6145767212095694,0.00033092462279567334,0.0008868080079153145,0.0,0.0,0.0,0.0,0.0,0.0,0.0,0.0,0.0,0.0006973319841079067,0.00043617871128313077,-0.004464650004451571,0.0,0.0,0.0,0.0,0.0,0.0,0.0,0.0,0.0,0.012619145507277444,-0.1212652520307235,9.810452211870864,0.0,0.0,0.0,0.0,0.0,0.0,0.0,0.0,0.0
2025/05/25 18:48:00.420476597,1748191679,516404263,mA1/imu,0.788788028076195,0.6146646288532662,0.0003166309629542457,0.000860549346425362,0.0,0.0,0.0,0.0,0.0,0.0,0.0,0.0,0.0,0.0013504856465210756,3.2498301840363846e-05,-0.0044524177633980455,0.0,0.0,0.0,0.0,0.0,0.0,0.0,0.0,0.0,0.01288145993432456,0.22449899155115888,9.81108230919556,0.0,0.0,0.0,0.0,0.0,0.0,0.0,0.0,0.0
2025/05/25 18:48:00.429480801,1748191679,567480326,mA1/imu,0.788719759610031,0.6147522571172661,0.0002978224399299632,0.0008452642875377706,0.0,0.0,0.0,0.0,0.0,0.0,0.0,0.0,0.0,0.0015447070936384073,-0.0003801022588200104,-0.004437611250199466,0.0,0.0,0.0,0.0,0.0,0.0,0.0,0.0,0.0,0.011841599037253426,0.010888831059567606,9.809450678991963,0.0,0.0,0.0,0.0,0.0,0.0,0.0,0.0,0.0
2025/05/25 18:48:00.440789983,1748191679,617150383,mA1/imu,0.788651668403746,0.6148396368282468,0.00026890066033982446,0.0008334274606169331,0.0,0.0,0.0,0.0,0.0,0.0,0.0,0.0,0.0,0.0008479294488531529,-0.0007633061651481881,-0.004429207545525042,0.0,0.0,0.0,0.0,0.0,0.0,0.0,0.0,0.0,0.011580700940957978,0.5580206541319557,9.810816999927512,0.0,0.0,0.0,0.0,0.0,0.0,0.0,0.0,0.0
2025/05/25 18:48:00.455892487,1748191679,668177080,mA1/imu,0.7885824247054481,0.6149284706610267,0.00023316075538195246,0.0008252588861866342,0.0,0.0,0.0,0.0,0.0,0.0,0.0,0.0,0.0,0.0006911101846952088,-0.0010054232349901555,-0.004533920132123201,0.0,0.0,0.0,0.0,0.0,0.0,0.0,0.0,0.0,0.009750980903816212,0.04441945974546372,9.809969529996309,0.0,0.0,0.0,0.0,0.0,0.0,0.0,0.0,0.0
2025/05/25 18:48:00.722845757,1748191679,768941926,mA1/imu,0.7884421563319425,0.6151083549418283,0.0001451283546658362,0.0008103932103917922,0.0,0.0,0.0,0.0,0.0,0.0,0.0,0.0,0.0,0.001152416401707185,-0.0013182381995712094,-0.004587660534528185,0.0,0.0,0.0,0.0,0.0,0.0,0.0,0.0,0.0,0.008308868967942806,0.5762791858109472,9.811477209692363,0.0,0.0,0.0,0.0,0.0,0.0,0.0,0.0,0.0
2025/05/25 18:48:00.729579199,1748191679,818760318,mA1/imu,0.7883713862727699,0.6151990610688256,0.00010483350436823243,0.0008133734215396464,0.0,0.0,0.0,0.0,0.0,0.0,0.0,0.0,0.0,9.072900485766686e-05,-0.0013402998451653566,-0.004613753513563198,0.0,0.0,0.0,0.0,0.0,0.0,0.0,0.0,0.0,0.008217382072710729,0.13922247143445804,9.810892448881862,0.0,0.0,0.0,0.0,0.0,0.0,0.0,0.0,0.0
2025/05/25 18:48:00.730735883,1748191679,870266990,mA1/imu,0.7883002267991244,0.6152902444429237,6.336678294359589e-05,0.0008145590630725303,0.0,0.0,0.0,0.0,0.0,0.0,0.0,0.0,0.0,0.0016492545713614076,-0.0013120513074195137,-0.004637325201534125,0.0,0.0,0.0,0.0,0.0,0.0,0.0,0.0,0.0,0.008404021479273126,-0.5927464116581767,9.809613401977726,0.0,0.0,0.0,0.0,0.0,0.0,0.0,0.0,0.0
2025/05/25 18:48:00.741098337,1748191679,920340730,mA1/imu,0.7882290149678749,0.6153814622718885,2.907347678070412e-05,0.0008215896901045468,0.0,0.0,0.0,0.0,0.0,0.0,0.0,0.0,0.0,0.0010700879924141276,-0.0012378479651509989,-0.004588799357401561,0.0,0.0,0.0,0.0,0.0,0.0,0.0,0.0,0.0,0.010991269875428693,-0.6189952214280054,9.811003041188384,0.0,0.0,0.0,0.0,0.0,0.0,0.0,0.0,0.0
2025/05/25 18:48:00.752114591,1748191679,971370934,mA1/imu,0.788159326288248,0.6154707190250299,-9.205818979299068e-06,0.0008187325087422286,0.0,0.0,0.0,0.0,0.0,0.0,0.0,0.0,0.0,-0.00011774234357863164,-0.0010597122756225222,-0.004515259821734691,0.0,0.0,0.0,0.0,0.0,0.0,0.0,0.0,0.0,0.009279547082320726,0.5726137217305461,9.81130078475123,0.0,0.0,0.0,0.0,0.0,0.0,0.0,0.0,0.0
2025/05/25 18:48:00.762464701,1748191680,21477349,mA1/imu,0.7880900891505512,0.6155593503130385,-2.7319771343848535e-05,0.000834792486900397,0.0,0.0,0.0,0.0,0.0,0.0,0.0,0.0,0.0,-0.0008779611964338922,-0.0008772121451367116,-0.004488247079059382,0.0,0.0,0.0,0.0,0.0,0.0,0.0,0.0,0.0,0.008962314874986041,0.5405440784496162,9.811407738084243,0.0,0.0,0.0,0.0,0.0,0.0,0.0,0.0,0.0
2025/05/25 18:48:01.719851004,1748191680,776349617,mA1/imu,0.7871366711871874,0.6167777396690727,0.0003178146475533273,0.0009898054926182358,0.0,0.0,0.0,0.0,0.0,0.0,0.0,0.0,0.0,-0.00045468985679948497,0.00035810240758347956,-0.003688870420315909,0.0,0.0,0.0,0.0,0.0,0.0,0.0,0.0,0.0,0.011551202957366766,0.5815878957756999,9.810797563655376,0.0,0.0,0.0,0.0,0.0,0.0,0.0,0.0,0.0
2025/05/25 18:48:01.721525136,1748191680,817079197,mA1/imu,0.7870803114039396,0.6168496613710334,0.00032264455723181226,0.00098720170604319,0.0,0.0,0.0,0.0,0.0,0.0,0.0,0.0,0.0,-4.601288661295351e-05,0.000125927571189436,-0.0036322668690186594,0.0,0.0,0.0,0.0,0.0,0.0,0.0,0.0,0.0,0.011808119788592081,0.24438591555291617,9.810193114102736,0.0,0.0,0.0,0.0,0.0,0.0,0.0,0.0,0.0
2025/05/25 18:48:01.729703198,1748191680,867923624,mA1/imu,0.7870248287158922,0.6169204775614789,0.0003106686265464314,0.0009730544906031485,0.0,0.0,0.0,0.0,0.0,0.0,0.0,0.0,0.0,4.361353548365167e-05,-0.00011283839039464408,-0.0035762651937178824,0.0,0.0,0.0,0.0,0.0,0.0,0.0,0.0,0.0,0.011571494338669538,0.5706894093644402,9.810804009100094,0.0,0.0,0.0,0.0,0.0,0.0,0.0,0.0,0.0
2025/05/25 18:48:02.472787291,1748191681,516621200,mA1/imu,0.7863604697424936,0.6177673903486459,-6.322483465816709e-06,0.0008142531638338391,0.0,0.0,0.0,0.0,0.0,0.0,0.0,0.0,0.0,-0.00012871848745178144,0.0004843483222183826,-0.003192850479635574,0.0,0.0,0.0,0.0,0.0,0.0,0.0,0.0,0.0,0.006415024923713585,-0.026197362175840136,9.80947548319725,0.0,0.0,0.0,0.0,0.0,0.0,0.0,0.0,0.0
2025/05/25 18:48:02.472832935,1748191681,567517926,mA1/imu,0.7863151380390806,0.6178250995370141,1.473744527862508e-05,0.0008061361349650479,0.0,0.0,0.0,0.0,0.0,0.0,0.0,0.0,0.0,-0.00039144362394810244,0.0010434387757864315,-0.002810730430667344,0.0,0.0,0.0,0.0,0.0,0.0,0.0,0.0,0.0,0.008774812615926813,-0.02496071197987108,9.809365352877016,0.0,0.0,0.0,0.0,0.0,0.0,0.0,0.0,0.0
2025/05/25 18:48:02.475326542,1748191681,617338045,mA1/imu,0.7862723871731517,0.6178795121355191,4.519858070797523e-05,0.0007997557719923694,0.0,0.0,0.0,0.0,0.0,0.0,0.0,0.0,0.0,-0.0006592133399850726,0.0011580237781741883,-0.0027382773925824716,0.0,0.0,0.0,0.0,0.0,0.0,0.0,0.0,0.0,0.008895141008310025,-0.024032721682005865,9.809201612195523,0.0,0.0,0.0,0.0,0.0,0.0,0.0,0.0,0.0
2025/05/25 18:48:03.17624376,1748191682,72353802,mA1/imu,0.785932004542251,0.6183121742173293,0.00033292565119158327,0.0009102809174552017,0.0,0.0,0.0,0.0,0.0,0.0,0.0,0.0,0.0,-0.001036426494317154,3.437666925847941e-05,-0.002119353108373663,0.0,0.0,0.0,0.0,0.0,0.0,0.0,0.0,0.0,0.0058161191824154185,0.602879080562058,9.810742762820068,0.0,0.0,0.0,0.0,0.0,0.0,0.0,0.0,0.0
2025/05/25 18:48:03.19570031,1748191682,122175695,mA1/imu,0.7858997830142359,0.6183530946706407,0.0003452122407227567,0.0009285461364507676,0.0,0.0,0.0,0.0,0.0,0.0,0.0,0.0,0.0,0.00028030627191428544,-0.0001303998496747958,-0.0020590515598996363,0.0,0.0,0.0,0.0,0.0,0.0,0.0,0.0,0.0,0.006175296111780573,0.04628793737686149,9.809340461536742,0.0,0.0,0.0,0.0,0.0,0.0,0.0,0.0,0.0
2025/05/25 18:48:03.29917918,1748191682,165371820,mA1/imu,0.7858684792152568,0.6183928384439903,0.00035602658838062694,0.0009507797604403198,0.0,0.0,0.0,0.0,0.0,0.0,0.0,0.0,0.0,-2.298507967186788e-05,-0.00027387208472326533,-0.0019997317463476202,0.0,0.0,0.0,0.0,0.0,0.0,0.0,0.0,0.0,0.006290886445690387,-0.3152620138334169,9.809809125370025,0.0,0.0,0.0,0.0,0.0,0.0,0.0,0.0,0.0
2025/05/25 18:48:03.42465353,1748191682,216455396,mA1/imu,0.7858380947221043,0.6184314280658756,0.0003561315471428476,0.0009647975205337912,0.0,0.0,0.0,0.0,0.0,0.0,0.0,0.0,0.0,-0.0007023897045223318,-0.0003851690824446483,-0.0019415279819348682,0.0,0.0,0.0,0.0,0.0,0.0,0.0,0.0,0.0,0.006111772488740256,-0.3443692588447274,9.809806717061127,0.0,0.0,0.0,0.0,0.0,0.0,0.0,0.0,0.0
2025/05/25 18:48:03.51656976,1748191682,268233832,mA1/imu,0.7858094281511723,0.6184678538747888,0.0003462613633700489,0.0009677062099150417,0.0,0.0,0.0,0.0,0.0,0.0,0.0,0.0,0.0,-0.00019397222330826816,-0.00037518516928166637,-0.0018044615191824404,0.0,0.0,0.0,0.0,0.0,0.0,0.0,0.0,0.0,0.006158620465649463,-0.048960465849734194,9.810617794465012,0.0,0.0,0.0,0.0,0.0,0.0,0.0,0.0,0.0
2025/05/25 18:48:03.62980518,1748191682,318121000,mA1/imu,0.7857821528381221,0.6185025226816571,0.0003297187029916472,0.0009638480633222515,0.0,0.0,0.0,0.0,0.0,0.0,0.0,0.0,0.0,-0.00038709299761058324,-0.00043380310736519705,-0.0017397441164803897,0.0,0.0,0.0,0.0,0.0,0.0,0.0,0.0,0.0,0.005639759102703969,0.5455275049687025,9.811759749589317,0.0,0.0,0.0,0.0,0.0,0.0,0.0,0.0,0.0
2025/05/25 18:48:04.19087699,1748191683,70148902,mA1/imu,0.7855064892288401,0.6188529992137837,0.00013530056827505308,0.0007088280772497599,0.0,0.0,0.0,0.0,0.0,0.0,0.0,0.0,0.0,0.000918602607865544,0.001135553565850342,-0.0006431160015216904,0.0,0.0,0.0,0.0,0.0,0.0,0.0,0.0,0.0,-0.004630467541490431,-0.5509063202090505,9.807572536197398,0.0,0.0,0.0,0.0,0.0,0.0,0.0,0.0,0.0
2025/05/25 18:48:04.21052310,1748191683,119380094,mA1/imu,0.7854976795717781,0.6188641750629423,0.00017522386035026527,0.0007053421968840764,0.0,0.0,0.0,0.0,0.0,0.0,0.0,0.0,0.0,-0.001098538016223101,0.0014868700458408653,-0.0005058298088427035,0.0,0.0,0.0,0.0,0.0,0.0,0.0,0.0,0.0,-0.008102249067360009,0.586791574089883,9.810109057278277,0.0,0.0,0.0,0.0,0.0,0.0,0.0,0.0,0.0
2025/05/25 18:48:04.31338624,1748191683,170334000,mA1/imu,0.785494027898314,0.6188687877706338,0.00023467935742479197,0.000707520309274256,0.0,0.0,0.0,0.0,0.0,0.0,0.0,0.0,0.0,-0.002974175902230894,0.0019571549682001303,-9.582458271966997e-05,0.0,0.0,0.0,0.0,0.0,0.0,0.0,0.0,0.0,-0.0020534642282775293,0.4762458895336126,9.809791704234847,0.0,0.0,0.0,0.0,0.0,0.0,0.0,0.0,0.0
2025/05/25 18:48:04.41450396,1748191683,220260273,mA1/imu,0.7854936805165792,0.6188692205288548,0.0002876875265556671,0.0006949722389510929,0.0,0.0,0.0,0.0,0.0,0.0,0.0,0.0,0.0,-0.0017153105546088708,0.0019891209200756563,2.8897924271132084e-05,0.0,0.0,0.0,0.0,0.0,0.0,0.0,0.0,0.0,-0.0033193033530515646,-0.052128354147027,9.809670061870007,0.0,0.0,0.0,0.0,0.0,0.0,0.0,0.0,0.0
2025/05/25 18:48:04.816852834,1748191683,875548470,mA1/imu,0.7855371792164814,0.6188137130095801,0.00042507870343358456,0.0008648514361802683,0.0,0.0,0.0,0.0,0.0,0.0,0.0,0.0,0.0,0.0015570937718997716,-0.0014117619000898855,0.0006610010228147078,0.0,0.0,0.0,0.0,0.0,0.0,0.0,0.0,0.0,-0.003272542857601717,-0.6047957410463658,9.81049628334564,0.0,0.0,0.0,0.0,0.0,0.0,0.0,0.0,0.0
2025/05/25 18:48:04.827045967,1748191683,916206345,mA1/imu,0.7855481416135673,0.6187998260525964,0.00038020786013871234,0.0008648275725583097,0.0,0.0,0.0,0.0,0.0,0.0,0.0,0.0,0.0,0.00019312000172811328,-0.0013963403994398814,0.0007351358124358158,0.0,0.0,0.0,0.0,0.0,0.0,0.0,0.0,0.0,-0.002380231162668365,0.37499802907912394,9.810230133046852,0.0,0.0,0.0,0.0,0.0,0.0,0.0,0.0,0.0
2025/05/25 18:48:05.669122120,1748191684,714620074,mA1/imu,0.785937842822222,0.6183049315515968,0.00031751049724926885,0.0007861463042242384,0.0,0.0,0.0,0.0,0.0,0.0,0.0,0.0,0.0,7.476114789922286e-05,0.0006604225160465518,0.002248216778717167,0.0,0.0,0.0,0.0,0.0,0.0,0.0,0.0,0.0,0.002786183909211327,-0.5709111680480928,9.8112249181689,0.0,0.0,0.0,0.0,0.0,0.0,0.0,0.0,0.0
2025/05/25 18:48:05.676018135,1748191684,765787081,mA1/imu,0.7859732468413567,0.6182598853157963,0.0003506156063172361,0.000804069431657198,0.0,0.0,0.0,0.0,0.0,0.0,0.0,0.0,0.0,-0.0016097533219373544,0.0005280367578957404,0.00232232489242713,0.0,0.0,0.0,0.0,0.0,0.0,0.0,0.0,0.0,0.002435024740339917,-0.05358671423496411,9.813531280890965,0.0,0.0,0.0,0.0,0.0,0.0,0.0,0.0,0.0
2025/05/25 18:48:06.73794934,1748191685,122008014,mA1/imu,0.7862567906075936,0.6178990244266352,0.00037494686380086214,0.0009561646869094481,0.0,0.0,0.0,0.0,0.0,0.0,0.0,0.0,0.0,-0.00023496437184486232,-0.0014950268856070612,0.0029633910431470525,0.0,0.0,0.0,0.0,0.0,0.0,0.0,0.0,0.0,0.007454880293835866,0.11418417787328913,9.80992444900371,0.0,0.0,0.0,0.0,0.0,0.0,0.0,0.0,0.0
2025/05/25 18:48:06.80325145,1748191685,172958266,mA1/imu,0.7863045304447263,0.6178382621668246,0.00034126635698586124,0.0009750600239608258,0.0,0.0,0.0,0.0,0.0,0.0,0.0,0.0,0.0,-0.0002839378822946051,-0.0015622702621244243,0.003161440127889817,0.0,0.0,0.0,0.0,0.0,0.0,0.0,0.0,0.0,0.009325935733007431,0.5636152614057005,9.8100456183374,0.0,0.0,0.0,0.0,0.0,0.0,0.0,0.0,0.0
2025/05/25 18:48:06.86912814,1748191685,222807297,mA1/imu,0.786354487348401,0.6177746676246922,0.0003030065832306769,0.0009942108653829458,0.0,0.0,0.0,0.0,0.0,0.0,0.0,0.0,0.0,0.0021403943422815598,-0.0017433643907640464,0.0032805264973512238,0.0,0.0,0.0,0.0,0.0,0.0,0.0,0.0,0.0,0.009341070905028588,-0.05740315155154861,9.808796581904156,0.0,0.0,0.0,0.0,0.0,0.0,0.0,0.0,0.0
2025/05/25 18:48:06.100624074,1748191685,273793131,mA1/imu,0.7864062750944082,0.617708730581061,0.000261816093040844,0.0010129700912901575,0.0,0.0,0.0,0.0,0.0,0.0,0.0,0.0,0.0,0.0023317715662117275,-0.0017825876433123285,0.003399100317629579,0.0,0.0,0.0,0.0,0.0,0.0,0.0,0.0,0.0,0.008098453774322893,-0.47287693017253113,9.806769967207469,0.0,0.0,0.0,0.0,0.0,0.0,0.0,0.0,0.0
2025/05/25 18:48:06.110174290,1748191685,323587513,mA1/imu,0.7864598738575789,0.6176404730273737,0.00022112216561359665,0.0010315015420374902,0.0,0.0,0.0,0.0,0.0,0.0,0.0,0.0,0.0,0.0011055496032135966,-0.0017309174885233216,0.0035163717247932405,0.0,0.0,0.0,0.0,0.0,0.0,0.0,0.0,0.0,0.009320265585585021,-0.642589436855595,9.809067220964982,0.0,0.0,0.0,0.0,0.0,0.0,0.0,0.0,0.0
2025/05/25 18:48:06.120340213,1748191685,364631021,mA1/imu,0.7865152716363425,0.6175699291104577,0.00017547688792206436,0.0010389173096553247,0.0,0.0,0.0,0.0,0.0,0.0,0.0,0.0,0.0,-0.00042823646516790005,-0.0015491696363635263,0.0036322308106136077,0.0,0.0,0.0,0.0,0.0,0.0,0.0,0.0,0.0,0.009097687432327082,-0.12969838459873842,9.8102421585166,0.0,0.0,0.0,0.0,0.0,0.0,0.0,0.0,0.0
2025/05/25 18:48:07.70978774,1748191686,122511270,mA1/imu,0.7875443329713464,0.6162574027030271,0.00024295186989510992,0.0008235246354014148,0.0,0.0,0.0,0.0,0.0,0.0,0.0,0.0,0.0,-0.00032122406439058515,0.000391958245303797,0.005191121072502516,0.0,0.0,0.0,0.0,0.0,0.0,0.0,0.0,0.0,0.013908939160145002,-0.5949904244267793,9.811072251612702,0.0,0.0,0.0,0.0,0.0,0.0,0.0,0.0,0.0
2025/05/25 18:48:07.71028177,1748191686,164513752,mA1/imu,0.7876278342392883,0.6161506457525161,0.0002655991730945656,0.000840194837444561,0.0,0.0,0.0,0.0,0.0,0.0,0.0,0.0,0.0,-0.0015966078141320082,0.00015277963563875647,0.005508691845633438,0.0,0.0,0.0,0.0,0.0,0.0,0.0,0.0,0.0,0.014483740973419736,0.5711804846159108,9.810920456025286,0.0,0.0,0.0,0.0,0.0,0.0,0.0,0.0,0.0
2025/05/25 18:48:07.78444206,1748191686,214362590,mA1/imu,0.7877139042701199,0.6160405610455055,0.00028375390400697895,0.0008669774997359561,0.0,0.0,0.0,0.0,0.0,0.0,0.0,0.0,0.0,-0.0016123014176403147,-0.0002489310244930139,0.005643512229567946,0.0,0.0,0.0,0.0,0.0,0.0,0.0,0.0,0.0,0.013745062112744667,-0.05283203213758772,9.809511867647586,0.0,0.0,0.0,0.0,0.0,0.0,0.0,0.0,0.0
2025/05/25 18:48:07.90436433,1748191686,265864204,mA1/imu,0.7878020080482434,0.6159278368001188,0.00029411514861071175,0.0008997033738633039,0.0,0.0,0.0,0.0,0.0,0.0,0.0,0.0,0.0,-0.0015447929329976675,-0.0006312640975782421,0.005775420485173309,0.0,0.0,0.0,0.0,0.0,0.0,0.0,0.0,0.0,0.014017609032698301,-0.051368533179432865,9.811392126306284,0.0,0.0,0.0,0.0,0.0,0.0,0.0,0.0,0.0
2025/05/25 18:48:07.101729503,1748191686,315639850,mA1/imu,0.7878921107764393,0.6158125261561913,0.0002929910388385793,0.000931966538360145,0.0,0.0,0.0,0.0,0.0,0.0,0.0,0.0,0.0,-7.547993138223994e-05,-0.0009713179221328486,0.005904752725517674,0.0,0.0,0.0,0.0,0.0,0.0,0.0,0.0,0.0,0.013409241155982615,-0.5384149363509264,9.810107269244341,0.0,0.0,0.0,0.0,0.0,0.0,0.0,0.0,0.0
2025/05/25 18:48:07.111728372,1748191686,367153135,mA1/imu,0.7879841714178263,0.615694663075251,0.00028843350054864577,0.0009717313058030734,0.0,0.0,0.0,0.0,0.0,0.0,0.0,0.0,0.0,-0.0006658450315385218,-0.0012339475359001773,0.006032367328011725,0.0,0.0,0.0,0.0,0.0,0.0,0.0,0.0,0.0,0.01262829977363518,0.00026880176878903844,9.808595688592115,0.0,0.0,0.0,0.0,0.0,0.0,0.0,0.0,0.0
2025/05/25 18:48:07.112671249,1748191686,416447412,mA1/imu,0.7880781634636246,0.6155742800837687,0.00028080210715005405,0.0010174091248074425,0.0,0.0,0.0,0.0,0.0,0.0,0.0,0.0,0.0,-0.0020235670457992784,-0.0014459062063639063,0.006158645769134064,0.0,0.0,0.0,0.0,0.0,0.0,0.0,0.0,0.0,0.01282511238984143,0.4787674342785005,9.808917596777341,0.0,0.0,0.0,0.0,0.0,0.0,0.0,0.0,0.0
2025/05/25 18:48:08.72169156,1748191687,117809350,mA1/imu,0.7896449923507554,0.6135632845059298,0.0001215065684006948,0.00093123457041307,0.0,0.0,0.0,0.0,0.0,0.0,0.0,0.0,0.0,0.0012188489638270028,0.002554303833027596,0.008195135215666774,0.0,0.0,0.0,0.0,0.0,0.0,0.0,0.0,0.0,-0.0012261329794174738,0.6394492385343914,9.812458595102083,0.0,0.0,0.0,0.0,0.0,0.0,0.0,0.0,0.0
2025/05/25 18:48:08.77563966,1748191687,169554676,mA1/imu,0.7897724377517011,0.6133992944467375,0.0001697255088861535,0.0008793936726359672,0.0,0.0,0.0,0.0,0.0,0.0,0.0,0.0,0.0,0.0028251669217788464,0.0029092041260457987,0.008384575467815215,0.0,0.0,0.0,0.0,0.0,0.0,0.0,0.0,0.0,-0.0019601392725266415,-0.49025546340891746,9.810234480931038,0.0,0.0,0.0,0.0,0.0,0.0,0.0,0.0,0.0
2025/05/25 18:48:08.81466111,1748191687,219791798,mA1/imu,0.7899026520380266,0.6132316430824497,0.0002327246731070623,0.000835502793418788,0.0,0.0,0.0,0.0,0.0,0.0,0.0,0.0,0.0,0.0012500064538560785,0.0030980413214905748,0.008565334475378173,0.0,0.0,0.0,0.0,0.0,0.0,0.0,0.0,0.0,-0.0003154968299433165,-0.5889040056397583,9.811011349045158,0.0,0.0,0.0,0.0,0.0,0.0,0.0,0.0,0.0
2025/05/25 18:48:08.98001380,1748191687,273019133,mA1/imu,0.7900329345533033,0.6130638200181977,0.0002934430198365556,0.0007929672029907504,0.0,0.0,0.0,0.0,0.0,0.0,0.0,0.0,0.0,-0.0005500997676130754,0.002917818696840352,0.008529297873172598,0.0,0.0,0.0,0.0,0.0,0.0,0.0,0.0,0.0,-0.0003124980574915363,-0.6946689187954121,9.812207162611463,0.0,0.0,0.0,0.0,0.0,0.0,0.0,0.0,0.0
2025/05/25 18:48:08.108659886,1748191687,326066073,mA1/imu,0.7901649199557884,0.6128937143088077,0.00035451798181830265,0.0007540218938420023,0.0,0.0,0.0,0.0,0.0,0.0,0.0,0.0,0.0,-0.00197405609553803,0.0028497527954624868,0.008671255588855217,0.0,0.0,0.0,0.0,0.0,0.0,0.0,0.0,0.0,-0.0017050932854142174,0.04568599957545244,9.811759635889693,0.0,0.0,0.0,0.0,0.0,0.0,0.0,0.0,0.0
2025/05/25 18:48:08.123137677,1748191687,368069680,mA1/imu,0.79029902148984,0.6127207971702007,0.000410626623759689,0.0007160538326028789,0.0,0.0,0.0,0.0,0.0,0.0,0.0,0.0,0.0,-0.001055781559725475,0.0025965713585916006,0.008810887726153783,0.0,0.0,0.0,0.0,0.0,0.0,0.0,0.0,0.0,-0.0003145223806303868,0.04229935761467621,9.812413067792683,0.0,0.0,0.0,0.0,0.0,0.0,0.0,0.0,0.0
2025/05/25 18:48:09.75872864,1748191688,121604923,mA1/imu,0.7925329256140429,0.6098280993792311,0.00033955024418487044,0.0010657067101363595,0.0,0.0,0.0,0.0,0.0,0.0,0.0,0.0,0.0,0.002768160978781753,-0.0003352422547077045,0.010860641657251424,0.0,0.0,0.0,0.0,0.0,0.0,0.0,0.0,0.0,-0.023236115485216577,-0.35264297019482976,9.810688329592269,0.0,0.0,0.0,0.0,0.0,0.0,0.0,0.0,0.0
2025/05/25 18:48:09.77819024,1748191688,173319880,mA1/imu,0.792699788663429,0.6096111593816442,0.00035268272750595104,0.0010747209946712964,0.0,0.0,0.0,0.0,0.0,0.0,0.0,0.0,0.0,0.00018433168713723647,0.0003956654904137878,0.010933564851436994,0.0,0.0,0.0,0.0,0.0,0.0,0.0,0.0,0.0,-0.0183190728843612,-0.6769041109263398,9.808301164925147,0.0,0.0,0.0,0.0,0.0,0.0,0.0,0.0,0.0
2025/05/25 18:48:09.86546696,1748191688,223203987,mA1/imu,0.7928683990460283,0.6093918970476355,0.00035902666314201756,0.00104341110169382,0.0,0.0,0.0,0.0,0.0,0.0,0.0,0.0,0.0,-0.00010883649045104187,0.0013585862468804813,0.01116235557453403,0.0,0.0,0.0,0.0,0.0,0.0,0.0,0.0,0.0,-0.023876864706827983,-0.06625595847310252,9.812035006974648,0.0,0.0,0.0,0.0,0.0,0.0,0.0,0.0,0.0
2025/05/25 18:48:09.100014312,1748191688,274247663,mA1/imu,0.7930412483135796,0.6091669868729004,0.0003905485227861744,0.001004016574766778,0.0,0.0,0.0,0.0,0.0,0.0,0.0,0.0,0.0,-0.0006394237759884435,0.002318601358317474,0.011461303003614157,0.0,0.0,0.0,0.0,0.0,0.0,0.0,0.0,0.0,-0.021435227170226202,0.516747269297741,9.812784602776814,0.0,0.0,0.0,0.0,0.0,0.0,0.0,0.0,0.0
2025/05/25 18:48:09.724180945,1748191688,770463107,mA1/imu,0.7948455914587879,0.6068109306792583,0.0008512789714772702,0.0005054412079152202,0.0,0.0,0.0,0.0,0.0,0.0,0.0,0.0,0.0,-0.001487152159593503,0.0005130445360938265,0.012125326268142882,0.0,0.0,0.0,0.0,0.0,0.0,0.0,0.0,0.0,-0.01920982420655666,0.48966954800292917,9.81011079739824,0.0,0.0,0.0,0.0,0.0,0.0,0.0,0.0,0.0
2025/05/25 18:48:09.729151249,1748191688,820453951,mA1/imu,0.7950302670403542,0.6065689495571418,0.0008537699595397607,0.0005049749944382169,0.0,0.0,0.0,0.0,0.0,0.0,0.0,0.0,0.0,-0.0009271318155837106,-0.0001936888789618553,0.012209842449279121,0.0,0.0,0.0,0.0,0.0,0.0,0.0,0.0,0.0,-0.019687185554091297,0.5392418293546594,9.809935641412148,0.0,0.0,0.0,0.0,0.0,0.0,0.0,0.0,0.0
2025/05/25 18:48:10.171313730,1748191689,214481604,mA1/imu,0.7965634718859438,0.604554003966443,0.0005254916819445595,0.0009029970351168129,0.0,0.0,0.0,0.0,0.0,0.0,0.0,0.0,0.0,0.0006946474253536604,-0.0033818039633509264,0.013335333321189514,0.0,0.0,0.0,0.0,0.0,0.0,0.0,0.0,0.0,-0.010212418754387548,-0.5647287090181692,9.807992216514386,0.0,0.0,0.0,0.0,0.0,0.0,0.0,0.0,0.0
2025/05/25 18:48:10.174390822,1748191689,265918524,mA1/imu,0.7967658880000548,0.6042871351931302,0.0004769276927132981,0.0009749356594385626,0.0,0.0,0.0,0.0,0.0,0.0,0.0,0.0,0.0,0.0004197594194465199,-0.0032463525435018803,0.013434328924467736,0.0,0.0,0.0,0.0,0.0,0.0,0.0,0.0,0.0,-0.011949449582606929,-0.5829091689113993,9.808139275225754,0.0,0.0,0.0,0.0,0.0,0.0,0.0,0.0,0.0
2025/05/25 18:48:10.181487720,1748191689,315926370,mA1/imu,0.7969696846319989,0.6040182551542876,0.0004314550777588168,0.0010407038282334638,0.0,0.0,0.0,0.0,0.0,0.0,0.0,0.0,0.0,-0.0019585827883047847,-0.002921621616613656,0.013531760599171608,0.0,0.0,0.0,0.0,0.0,0.0,0.0,0.0,0.0,-0.011384136864172348,-0.3936252936729539,9.810575669198913,0.0,0.0,0.0,0.0,0.0,0.0,0.0,0.0,0.0
2025/05/25 18:48:10.922597246,1748191689,967972391,mA1/imu,0.7997234565638526,0.6003676957135796,0.0005339515273221586,0.0008589882984706801,0.0,0.0,0.0,0.0,0.0,0.0,0.0,0.0,0.0,0.0003670306237200043,0.0018129165210112603,0.014599264747198287,0.0,0.0,0.0,0.0,0.0,0.0,0.0,0.0,0.0,0.0011788911661153145,0.23436588033748584,9.811211922934802,0.0,0.0,0.0,0.0,0.0,0.0,0.0,0.0,0.0
2025/05/25 18:48:10.927060288,1748191690,18148806,mA1/imu,0.7999431276857302,0.6000749995500612,0.0005546241871609771,0.000824484915834458,0.0,0.0,0.0,0.0,0.0,0.0,0.0,0.0,0.0,0.0005339981985998187,0.0012192533795354792,0.014664591038708184,0.0,0.0,0.0,0.0,0.0,0.0,0.0,0.0,0.0,0.0034590134249825122,-0.43505652582417587,9.808928231783153,0.0,0.0,0.0,0.0,0.0,0.0,0.0,0.0,0.0
2025/05/25 18:48:10.933591738,1748191690,69113970,mA1/imu,0.800165792710642,0.5997780808438324,0.0005663472803430181,0.0007982266576190737,0.0,0.0,0.0,0.0,0.0,0.0,0.0,0.0,0.0,0.0002823941070892349,0.0007160754248274314,0.014900513861047052,0.0,0.0,0.0,0.0,0.0,0.0,0.0,0.0,0.0,0.005724902423564226,-0.21291803050406194,9.807723262767238,0.0,0.0,0.0,0.0,0.0,0.0,0.0,0.0,0.0
2025/05/25 18:48:11.480885989,1748191690,515078875,mA1/imu,0.8022360395022747,0.5970059026999824,0.00010922291067373788,0.00113010417203546,0.0,0.0,0.0,0.0,0.0,0.0,0.0,0.0,0.0,-0.0008268244781708364,-0.003988483643749217,0.015685024052174236,0.0,0.0,0.0,0.0,0.0,0.0,0.0,0.0,0.0,0.00959087116095673,0.07052223802065474,9.808894762401495,0.0,0.0,0.0,0.0,0.0,0.0,0.0,0.0,0.0
2025/05/25 18:48:11.482836106,1748191690,566183465,mA1/imu,0.8024703802856862,0.5966907470335799,4.343989177337372e-05,0.0011997006419418891,0.0,0.0,0.0,0.0,0.0,0.0,0.0,0.0,0.0,-0.000627541214548416,-0.0036219913902949736,0.015720231522781635,0.0,0.0,0.0,0.0,0.0,0.0,0.0,0.0,0.0,0.008114071371235263,-0.0298414694850598,9.812107140452504,0.0,0.0,0.0,0.0,0.0,0.0,0.0,0.0,0.0
2025/05/25 18:48:11.492404810,1748191690,616905486,mA1/imu,0.8027049220673473,0.5963750607539191,-1.2250706293823448e-05,0.0012628735223840714,0.0,0.0,0.0,0.0,0.0,0.0,0.0,0.0,0.0,-0.0009811030551502404,-0.0031074325679735066,0.015716952808021784,0.0,0.0,0.0,0.0,0.0,0.0,0.0,0.0,0.0,0.012279892628288366,0.02088941913880988,9.812191840199445,0.0,0.0,0.0,0.0,0.0,0.0,0.0,0.0,0.0
2025/05/25 18:48:11.502506420,1748191690,668167264,mA1/imu,0.8029388136033914,0.5960600113531117,-6.110852682592797e-05,0.0013117700464601127,0.0,0.0,0.0,0.0,0.0,0.0,0.0,0.0,0.0,-0.0012088639053245002,-0.002452630984981085,0.015693870112345975,0.0,0.0,0.0,0.0,0.0,0.0,0.0,0.0,0.0,0.008297814555245586,0.5613746783409196,9.811087387383859,0.0,0.0,0.0,0.0,0.0,0.0,0.0,0.0,0.0
2025/05/25 18:48:12.317568193,1748191691,370795696,mA1/imu,0.8061853182204298,0.5916621829852023,0.00042830611239172997,0.0009541828354372288,0.0,0.0,0.0,0.0,0.0,0.0,0.0,0.0,0.0,0.0011773268116962658,0.0016187300077594243,0.015454574102704633,0.0,0.0,0.0,0.0,0.0,0.0,0.0,0.0,0.0,0.012747722070509348,0.010181893934776663,9.807614509435965,0.0,0.0,0.0,0.0,0.0,0.0,0.0,0.0,0.0
2025/05/25 18:48:12.321309194,1748191691,420753890,mA1/imu,0.8064138029520089,0.5913507575204456,0.00044705355489271824,0.0009274327966776237,0.0,0.0,0.0,0.0,0.0,0.0,0.0,0.0,0.0,0.00011218629915383574,0.0009538015101623719,0.015438893257615558,0.0,0.0,0.0,0.0,0.0,0.0,0.0,0.0,0.0,0.013689343468133244,0.3649076608292168,9.807936260599075,0.0,0.0,0.0,0.0,0.0,0.0,0.0,0.0,0.0
2025/05/25 18:48:12.332273148,1748191691,471842445,mA1/imu,0.8066420389606618,0.5910394137420084,0.0004524603663351612,0.0009097606859692845,0.0,0.0,0.0,0.0,0.0,0.0,0.0,0.0,0.0,-0.0004014365589166715,0.0003966656530829861,0.015486017005538324,0.0,0.0,0.0,0.0,0.0,0.0,0.0,0.0,0.0,0.004000660175591898,0.34766524902585527,9.808532618307163,0.0,0.0,0.0,0.0,0.0,0.0,0.0,0.0,0.0
2025/05/25 18:48:12.340101712,1748191691,523612885,mA1/imu,0.8068715671858866,0.5907260518562178,0.00044736806156113853,0.0008975450817899014,0.0,0.0,0.0,0.0,0.0,0.0,0.0,0.0,0.0,0.0012311565370504002,-9.261337978580598e-05,0.015561928478627675,0.0,0.0,0.0,0.0,0.0,0.0,0.0,0.0,0.0,0.0039041468300349664,-0.6110010498763924,9.808539692276543,0.0,0.0,0.0,0.0,0.0,0.0,0.0,0.0,0.0
2025/05/25 18:48:12.572402780,1748191691,615495797,mA1/imu,0.8073278084892214,0.5901023899542841,0.0004060635774839473,0.0009022874287846826,0.0,0.0,0.0,0.0,0.0,0.0,0.0,0.0,0.0,0.00038918154825555055,-0.0010655590046334562,0.015474333135421296,0.0,0.0,0.0,0.0,0.0,0.0,0.0,0.0,0.0,0.001773803254445084,-0.029996830460932676,9.810082806774338,0.0,0.0,0.0,0.0,0.0,0.0,0.0,0.0,0.0
2025/05/25 18:48:12.576807385,1748191691,666531773,mA1/imu,0.807553534460433,0.5897934456681652,0.00037174708000959787,0.0009177316841487901,0.0,0.0,0.0,0.0,0.0,0.0,0.0,0.0,0.0,0.000267244517310573,-0.001676926475101104,0.015231129354188957,0.0,0.0,0.0,0.0,0.0,0.0,0.0,0.0,0.0,-0.0008103780739325541,-0.028837016624502464,9.80930323465847,0.0,0.0,0.0,0.0,0.0,0.0,0.0,0.0,0.0
2025/05/25 18:48:12.584019113,1748191691,716543107,mA1/imu,0.8077781722243297,0.5894857345012479,0.00033420463828369754,0.0009389380729606444,0.0,0.0,0.0,0.0,0.0,0.0,0.0,0.0,0.0,0.00016129760844642117,-0.0017455717765961414,0.015241467620972006,0.0,0.0,0.0,0.0,0.0,0.0,0.0,0.0,0.0,-0.0015161681847169319,-0.029460330764334436,9.809944684640026,0.0,0.0,0.0,0.0,0.0,0.0,0.0,0.0,0.0
2025/05/25 18:48:13.125417734,1748191692,173736999,mA1/imu,0.8097535705240367,0.5867690465901643,0.00024989985179392894,0.0010856045817284681,0.0,0.0,0.0,0.0,0.0,0.0,0.0,0.0,0.0,5.2664704501796706e-05,0.0011094479200040158,0.014842441787528183,0.0,0.0,0.0,0.0,0.0,0.0,0.0,0.0,0.0,-0.0026720081539929816,-0.31342591011088455,9.81085747428451,0.0,0.0,0.0,0.0,0.0,0.0,0.0,0.0,0.0
2025/05/25 18:48:13.128146426,1748191692,223691128,mA1/imu,0.8099710676833098,0.5864687922973826,0.0002797234672316159,0.001070949107384854,0.0,0.0,0.0,0.0,0.0,0.0,0.0,0.0,0.0,0.001022455459153794,0.001399904581040573,0.01482363840645415,0.0,0.0,0.0,0.0,0.0,0.0,0.0,0.0,0.0,-0.0025135637057472227,-0.5551969103988592,9.810731767901682,0.0,0.0,0.0,0.0,0.0,0.0,0.0,0.0,0.0
2025/05/25 18:48:13.138536678,1748191692,266904316,mA1/imu,0.8101881483163164,0.5861688693563096,0.00031809550647364146,0.0010581779494952001,0.0,0.0,0.0,0.0,0.0,0.0,0.0,0.0,0.0,0.0009085638199720896,0.0015835646487488485,0.014804478499446551,0.0,0.0,0.0,0.0,0.0,0.0,0.0,0.0,0.0,-0.0017954647526033634,-0.19080627387814963,9.81046434338977,0.0,0.0,0.0,0.0,0.0,0.0,0.0,0.0,0.0
2025/05/25 18:48:13.149086143,1748191692,316663700,mA1/imu,0.8104048247407292,0.5858692731421526,0.0003580145055850683,0.0010424252718416877,0.0,0.0,0.0,0.0,0.0,0.0,0.0,0.0,0.0,-4.8759750017851345e-05,0.0016755525081441306,0.014783057242629048,0.0,0.0,0.0,0.0,0.0,0.0,0.0,0.0,0.0,-0.001309269757123024,0.030660884024671792,9.809574081417042,0.0,0.0,0.0,0.0,0.0,0.0,0.0,0.0,0.0
2025/05/25 18:48:13.160802652,1748191692,369406365,mA1/imu,0.8106210902233477,0.5855700234743517,0.0003939665827068005,0.0010200410236456657,0.0,0.0,0.0,0.0,0.0,0.0,0.0,0.0,0.0,-0.000130750115522308,0.0016577317002501894,0.014759797697407524,0.0,0.0,0.0,0.0,0.0,0.0,0.0,0.0,0.0,-0.0003113146123708199,-0.02646826851239311,9.80866493753255,0.0,0.0,0.0,0.0,0.0,0.0,0.0,0.0,0.0
2025/05/25 18:48:14.124662031,1748191693,166348523,mA1/imu,0.8139903198883768,0.5808774821205978,0.0002787308894048292,0.0010159735940977823,0.0,0.0,0.0,0.0,0.0,0.0,0.0,0.0,0.0,0.0006702101446332864,-0.0006320439875082992,0.014352687426226267,0.0,0.0,0.0,0.0,0.0,0.0,0.0,0.0,0.0,-0.0031049105130672803,0.00518216448935192,9.810844273162806,0.0,0.0,0.0,0.0,0.0,0.0,0.0,0.0,0.0
2025/05/25 18:48:14.127219781,1748191693,216325345,mA1/imu,0.8141985838824143,0.580585522869573,0.0002675110592349672,0.0010222895718754955,0.0,0.0,0.0,0.0,0.0,0.0,0.0,0.0,0.0,0.0009211008279755284,-0.0004599851572863453,0.01434143554705856,0.0,0.0,0.0,0.0,0.0,0.0,0.0,0.0,0.0,-0.0024141956139426633,0.022819475068030563,9.813633644873738,0.0,0.0,0.0,0.0,0.0,0.0,0.0,0.0,0.0
2025/05/25 18:48:14.135587182,1748191693,268165401,mA1/imu,0.8144065580407958,0.5802937466393557,0.00026203735013627724,0.0010281866708463502,0.0,0.0,0.0,0.0,0.0,0.0,0.0,0.0,0.0,0.0009909777202470422,-0.0002595072189154722,0.014327641656823683,0.0,0.0,0.0,0.0,0.0,0.0,0.0,0.0,0.0,-0.0027433810422652074,-0.5952429798457566,9.812622664129062,0.0,0.0,0.0,0.0,0.0,0.0,0.0,0.0,0.0
2025/05/25 18:48:14.968944321,1748191694,22638665,mA1/imu,0.8175152440825731,0.5759058473698333,0.0003142766132431956,0.0010871467497863278,0.0,0.0,0.0,0.0,0.0,0.0,0.0,0.0,0.0,-0.00026718415122840627,-0.000409504475169854,0.014323023372129895,0.0,0.0,0.0,0.0,0.0,0.0,0.0,0.0,0.0,0.0033919830342013105,0.16485112238141314,9.80981446696317,0.0,0.0,0.0,0.0,0.0,0.0,0.0,0.0,0.0
2025/05/25 18:48:14.971184258,1748191694,73932988,mA1/imu,0.8177213647566713,0.5756131301336288,0.0003074718564136291,0.001095216558678879,0.0,0.0,0.0,0.0,0.0,0.0,0.0,0.0,0.0,-0.0005390268724394996,-0.0004322165134254585,0.014317908640076543,0.0,0.0,0.0,0.0,0.0,0.0,0.0,0.0,0.0,0.0031870439373480556,-0.07389602765865366,9.809697690451824,0.0,0.0,0.0,0.0,0.0,0.0,0.0,0.0,0.0
2025/05/25 18:48:14.980526772,1748191694,123722623,mA1/imu,0.8179273154383248,0.5753204530582877,0.0002936949946717455,0.0010939359725137992,0.0,0.0,0.0,0.0,0.0,0.0,0.0,0.0,0.0,7.108458705379232e-05,-0.00042254815963863144,0.014313551842178947,0.0,0.0,0.0,0.0,0.0,0.0,0.0,0.0,0.0,0.0025611566370334375,-0.03570238600198987,9.810070696610149,0.0,0.0,0.0,0.0,0.0,0.0,0.0,0.0,0.0
2025/05/25 18:48:14.991995519,1748191694,164608535,mA1/imu,0.8181330723173189,0.5750278194817463,0.00028319694236963804,0.0010966322013176606,0.0,0.0,0.0,0.0,0.0,0.0,0.0,0.0,0.0,0.0022123532899436427,-0.00041859404781188786,0.014306866058820429,0.0,0.0,0.0,0.0,0.0,0.0,0.0,0.0,0.0,0.0022125061584792553,-0.5232510065094934,9.809033616082104,0.0,0.0,0.0,0.0,0.0,0.0,0.0,0.0,0.0
2025/05/25 18:48:15.2072152,1748191694,214548923,mA1/imu,0.8183386531553312,0.5747352105476308,0.00027453533446349175,0.0011005176233492753,0.0,0.0,0.0,0.0,0.0,0.0,0.0,0.0,0.0,0.000978670472748322,-0.0003834336018506316,0.014301115555076585,0.0,0.0,0.0,0.0,0.0,0.0,0.0,0.0,0.0,0.0035588840071185835,-0.074749261318083,9.809524870100446,0.0,0.0,0.0,0.0,0.0,0.0,0.0,0.0,0.0
2025/05/25 18:48:15.2483968,1748191694,267080322,mA1/imu,0.8185440515287017,0.5744426466964202,0.0002648245937341394,0.0011005595506084222,0.0,0.0,0.0,0.0,0.0,0.0,0.0,0.0,0.0,0.0005644213281504059,-0.0003162755488174551,0.014295532813474164,0.0,0.0,0.0,0.0,0.0,0.0,0.0,0.0,0.0,0.0032183716148716825,-0.6496106103745592,9.809715489254536,0.0,0.0,0.0,0.0,0.0,0.0,0.0,0.0,0.0
2025/05/25 18:48:15.366248217,1748191694,418225034,mA1/imu,0.819159145608263,0.5735652449921375,0.0002284742847450368,0.001073174240885315,0.0,0.0,0.0,0.0,0.0,0.0,0.0,0.0,0.0,0.00247904424172956,-9.929134952229902e-05,0.014278854003183617,0.0,0.0,0.0,0.0,0.0,0.0,0.0,0.0,0.0,0.0032766403717676,-0.5276881724396674,9.810958648882064,0.0,0.0,0.0,0.0,0.0,0.0,0.0,0.0,0.0
2025/05/25 18:48:15.377390484,1748191694,470391548,mA1/imu,0.8193637743031685,0.5732728973665818,0.00022435450654905884,0.0010677872664174221,0.0,0.0,0.0,0.0,0.0,0.0,0.0,0.0,0.0,0.0009912155447775787,1.7174417632693512e-06,0.014269697017662696,0.0,0.0,0.0,0.0,0.0,0.0,0.0,0.0,0.0,0.003029866626165777,0.001784714262071909,9.809907292382324,0.0,0.0,0.0,0.0,0.0,0.0,0.0,0.0,0.0
2025/05/25 18:48:15.392218114,1748191694,519150974,mA1/imu,0.8195683477338528,0.5729804120726119,0.00022005802757479181,0.0010594094425720483,0.0,0.0,0.0,0.0,0.0,0.0,0.0,0.0,0.0,0.00030938252639269487,2.968393178573613e-05,0.014300625103891669,0.0,0.0,0.0,0.0,0.0,0.0,0.0,0.0,0.0,0.006643084739732943,-0.044824650955421985,9.810952240226172,0.0,0.0,0.0,0.0,0.0,0.0,0.0,0.0,0.0
2025/05/25 18:48:15.402628114,1748191694,571036895,mA1/imu,0.8197737332124271,0.5726865418417153,0.00021477809430975542,0.001051189187425963,0.0,0.0,0.0,0.0,0.0,0.0,0.0,0.0,0.0,-0.0011336056324295848,-1.1238787186381935e-05,0.014348004637192466,0.0,0.0,0.0,0.0,0.0,0.0,0.0,0.0,0.0,0.00766506662668677,0.4837145376688932,9.811050080370844,0.0,0.0,0.0,0.0,0.0,0.0,0.0,0.0,0.0
2025/05/25 18:48:15.417511182,1748191694,620921739,mA1/imu,0.8199791897349413,0.5723923621680269,0.0002024702415601336,0.0010349585193797036,0.0,0.0,0.0,0.0,0.0,0.0,0.0,0.0,0.0,0.0004937254598962263,-6.489962543368449e-05,0.01435700152631003,0.0,0.0,0.0,0.0,0.0,0.0,0.0,0.0,0.0,0.008012219499200158,0.0110662966928133,9.811568383128337,0.0,0.0,0.0,0.0,0.0,0.0,0.0,0.0,0.0
2025/05/25 18:48:16.369538310,1748191695,415027838,mA1/imu,0.8233582343091221,0.5675208022073971,0.00013776273320310173,0.001156753503028632,0.0,0.0,0.0,0.0,0.0,0.0,0.0,0.0,0.0,0.0009707557484831237,0.00013061852888707334,0.014980598796591938,0.0,0.0,0.0,0.0,0.0,0.0,0.0,0.0,0.0,0.007729149744919913,-0.2937279027183452,9.810245171986391,0.0,0.0,0.0,0.0,0.0,0.0,0.0,0.0,0.0
2025/05/25 18:48:16.371856112,1748191695,466157155,mA1/imu,0.8235708178426211,0.5672122577506622,0.00014581472495288768,0.001158185433507609,0.0,0.0,0.0,0.0,0.0,0.0,0.0,0.0,0.0,0.0002817180294463001,0.0002639797649756333,0.014994550655008937,0.0,0.0,0.0,0.0,0.0,0.0,0.0,0.0,0.0,0.008326945278067271,-0.006052064256231331,9.81087051243759,0.0,0.0,0.0,0.0,0.0,0.0,0.0,0.0,0.0
2025/05/25 18:48:16.382684347,1748191695,516048332,mA1/imu,0.8237835415390881,0.5669032674914091,0.0001555730790055014,0.00115663040706853,0.0,0.0,0.0,0.0,0.0,0.0,0.0,0.0,0.0,-0.0006830407437784217,0.000398910679367956,0.015023329049761803,0.0,0.0,0.0,0.0,0.0,0.0,0.0,0.0,0.0,0.006596137800910113,-0.07909355747019935,9.811675276936235,0.0,0.0,0.0,0.0,0.0,0.0,0.0,0.0,0.0
2025/05/25 18:48:16.397113591,1748191695,567551425,mA1/imu,0.8239957316520302,0.566594823574646,0.00016349124108691468,0.001146031528956557,0.0,0.0,0.0,0.0,0.0,0.0,0.0,0.0,0.0,-0.0006918334499129468,0.0005563593552790196,0.014970534636974875,0.0,0.0,0.0,0.0,0.0,0.0,0.0,0.0,0.0,0.006438737473391982,-0.08412576307332648,9.811162404709284,0.0,0.0,0.0,0.0,0.0,0.0,0.0,0.0,0.0
2025/05/25 18:48:16.407102130,1748191695,617442020,mA1/imu,0.824207861680886,0.5662862301191027,0.00017104878193165997,0.001130072223542031,0.0,0.0,0.0,0.0,0.0,0.0,0.0,0.0,0.0,0.0003803996014557749,0.0005610863457571758,0.014970770994710184,0.0,0.0,0.0,0.0,0.0,0.0,0.0,0.0,0.0,0.016821263710111268,-0.011780763953121082,9.807574481429148,0.0,0.0,0.0,0.0,0.0,0.0,0.0,0.0,0.0
2025/05/25 18:48:16.419308050,1748191695,668414455,mA1/imu,0.8244196836926934,0.5659778294904134,0.00017893162908306294,0.001117876930718057,0.0,0.0,0.0,0.0,0.0,0.0,0.0,0.0,0.0,0.0006263111122304323,0.0005474155867237246,0.014973161730044628,0.0,0.0,0.0,0.0,0.0,0.0,0.0,0.0,0.0,0.006074638821617839,-0.0026830220132649345,9.80971957241932,0.0,0.0,0.0,0.0,0.0,0.0,0.0,0.0,0.0
2025/05/25 18:48:16.430111680,1748191695,718456881,mA1/imu,0.8246317492659146,0.565668835811626,0.00018562369352647827,0.001100835138245614,0.0,0.0,0.0,0.0,0.0,0.0,0.0,0.0,0.0,0.0022924352667105636,0.000600691321600217,0.015002679460514664,0.0,0.0,0.0,0.0,0.0,0.0,0.0,0.0,0.0,0.0063327629606117,-0.5221649633291471,9.810158761424304,0.0,0.0,0.0,0.0,0.0,0.0,0.0,0.0,0.0
2025/05/25 18:48:16.444182118,1748191695,770120013,mA1/imu,0.82484405093703,0.5653592346250204,0.00019829897006022823,0.0010900162934414743,0.0,0.0,0.0,0.0,0.0,0.0,0.0,0.0,0.0,0.0007846840110350452,0.0006532292814910495,0.015027803569485873,0.0,0.0,0.0,0.0,0.0,0.0,0.0,0.0,0.0,0.005932471651467273,0.0035752805640434406,9.811558942808187,0.0,0.0,0.0,0.0,0.0,0.0,0.0,0.0,0.0
2025/05/25 18:48:16.452652313,1748191695,820084847,mA1/imu,0.8250565812632654,0.5650490519167891,0.00021056720919025804,0.0010781018323636137,0.0,0.0,0.0,0.0,0.0,0.0,0.0,0.0,0.0,-0.0008307887754981866,0.0006618908932255853,0.015049926793701634,0.0,0.0,0.0,0.0,0.0,0.0,0.0,0.0,0.0,0.006076648631726696,0.5195607867662267,9.812236279563544,0.0,0.0,0.0,0.0,0.0,0.0,0.0,0.0,0.0
2025/05/25 18:48:16.454433085,1748191695,871323164,mA1/imu,0.8252692972267546,0.5647383542485204,0.00021969205849780145,0.0010630291297196142,0.0,0.0,0.0,0.0,0.0,0.0,0.0,0.0,0.0,0.0006359508620075856,0.0006007950657531683,0.01506983794500244,0.0,0.0,0.0,0.0,0.0,0.0,0.0,0.0,0.0,0.006081329869196234,-0.6363831535138356,9.809995156538664,0.0,0.0,0.0,0.0,0.0,0.0,0.0,0.0,0.0
2025/05/25 18:48:17.70962276,1748191696,115453368,mA1/imu,0.8263346071335217,0.5631785062143818,0.00023904852617087326,0.001014912522313714,0.0,0.0,0.0,0.0,0.0,0.0,0.0,0.0,0.0,0.0003830717246989471,9.528430555457675e-06,0.01514632106533637,0.0,0.0,0.0,0.0,0.0,0.0,0.0,0.0,0.0,0.005870546428597294,-0.011834265185107912,9.807776183067924,0.0,0.0,0.0,0.0,0.0,0.0,0.0,0.0,0.0
2025/05/25 18:48:17.75489926,1748191696,166357863,mA1/imu,0.8265479222808836,0.5628653937797462,0.00023541816252931557,0.0010125396852584498,0.0,0.0,0.0,0.0,0.0,0.0,0.0,0.0,0.0,0.0002974782082776234,-0.00014413186559816693,0.01516029838056417,0.0,0.0,0.0,0.0,0.0,0.0,0.0,0.0,0.0,0.0058547290569176715,0.060326295828047174,9.810039100964017,0.0,0.0,0.0,0.0,0.0,0.0,0.0,0.0,0.0
2025/05/25 18:48:17.83267977,1748191696,216217208,mA1/imu,0.8267612842784585,0.5625519398780183,0.0002335539512337375,0.001019416629291647,0.0,0.0,0.0,0.0,0.0,0.0,0.0,0.0,0.0,-0.0015852599254048264,-0.0002740565341260807,0.015170924458122606,0.0,0.0,0.0,0.0,0.0,0.0,0.0,0.0,0.0,0.006079828269794111,0.491140070037857,9.80890867622683,0.0,0.0,0.0,0.0,0.0,0.0,0.0,0.0,0.0
2025/05/25 18:48:17.316876832,1748191696,368610206,mA1/imu,0.8274015073780009,0.5616098596295759,0.00020147002804084025,0.0010346812494424118,0.0,0.0,0.0,0.0,0.0,0.0,0.0,0.0,0.0,-0.00020412830684032136,-0.0006043298817605377,0.01519806944179865,0.0,0.0,0.0,0.0,0.0,0.0,0.0,0.0,0.0,0.005672919315946571,0.5942079127867311,9.809427671047004,0.0,0.0,0.0,0.0,0.0,0.0,0.0,0.0,0.0
2025/05/25 18:48:17.322546587,1748191696,418760378,mA1/imu,0.8276148836252343,0.5612953410260959,0.00019464452477521173,0.0010519780880888531,0.0,0.0,0.0,0.0,0.0,0.0,0.0,0.0,0.0,-0.0016979911927307342,-0.000630000051547774,0.015204639433036515,0.0,0.0,0.0,0.0,0.0,0.0,0.0,0.0,0.0,0.005482038702510078,0.4946591102660677,9.808830924021642,0.0,0.0,0.0,0.0,0.0,0.0,0.0,0.0,0.0
2025/05/25 18:48:17.823918154,1748191696,866384556,mA1/imu,0.829532247009077,0.5584577006158415,0.0001692594330607832,0.001104149529242746,0.0,0.0,0.0,0.0,0.0,0.0,0.0,0.0,0.0,-0.0003980569071654392,0.0007131868023700342,0.015322575619132058,0.0,0.0,0.0,0.0,0.0,0.0,0.0,0.0,0.0,0.0009178269938327332,0.27926551996253235,9.811135721792724,0.0,0.0,0.0,0.0,0.0,0.0,0.0,0.0,0.0
2025/05/25 18:48:17.828629328,1748191696,917370735,mA1/imu,0.8297464649082492,0.5581393892465605,0.00018623839257195062,0.0010915397388021513,0.0,0.0,0.0,0.0,0.0,0.0,0.0,0.0,0.0,-0.0005328218405029388,0.0009170624471771763,0.015364873661666147,0.0,0.0,0.0,0.0,0.0,0.0,0.0,0.0,0.0,0.0006047242729421247,0.5663036077174632,9.811236467704267,0.0,0.0,0.0,0.0,0.0,0.0,0.0,0.0,0.0
2025/05/25 18:48:17.838735232,1748191696,968637945,mA1/imu,0.8299622956216447,0.5578184227238187,0.0002031171157396839,0.0010741786620902354,0.0,0.0,0.0,0.0,0.0,0.0,0.0,0.0,0.0,0.0028308047656152163,0.0009443227295229758,0.015530127133097302,0.0,0.0,0.0,0.0,0.0,0.0,0.0,0.0,0.0,0.0016124586090395104,-0.46036359978495606,9.809863582827516,0.0,0.0,0.0,0.0,0.0,0.0,0.0,0.0,0.0
2025/05/25 18:48:17.851141470,1748191697,18995642,mA1/imu,0.8301792516331711,0.5574954703392903,0.00023402769224684458,0.0010751465019971141,0.0,0.0,0.0,0.0,0.0,0.0,0.0,0.0,0.0,1.3635119264792602e-05,0.0009710868195265643,0.015587576252044748,0.0,0.0,0.0,0.0,0.0,0.0,0.0,0.0,0.0,0.0032462384603151265,-0.6595067778040106,9.810851721960907,0.0,0.0,0.0,0.0,0.0,0.0,0.0,0.0,0.0
2025/05/25 18:48:17.872186805,1748191697,70192512,mA1/imu,0.8303968869471318,0.55717126990684,0.00025300324968966853,0.0010593055590600847,0.0,0.0,0.0,0.0,0.0,0.0,0.0,0.0,0.0,-3.087169305784666e-05,0.0009452128505163641,0.015640342219029175,0.0,0.0,0.0,0.0,0.0,0.0,0.0,0.0,0.0,0.0036039973039753426,-0.6638054628349,9.810510453563635,0.0,0.0,0.0,0.0,0.0,0.0,0.0,0.0,0.0
2025/05/25 18:48:18.817694546,1748191697,865558969,mA1/imu,0.8339274821803612,0.5518730124544039,0.00020046544805750824,0.0010451805724694726,0.0,0.0,0.0,0.0,0.0,0.0,0.0,0.0,0.0,0.0005096901980812775,0.0007703235183326215,0.016284286310974748,0.0,0.0,0.0,0.0,0.0,0.0,0.0,0.0,0.0,-0.00846197559080825,0.0031285102573771102,9.809218463546577,0.0,0.0,0.0,0.0,0.0,0.0,0.0,0.0,0.0
2025/05/25 18:48:18.820628021,1748191697,917384053,mA1/imu,0.8341528577780927,0.5515323134542125,0.0002226232178980527,0.001033206362947395,0.0,0.0,0.0,0.0,0.0,0.0,0.0,0.0,0.0,-0.0011568155142504754,0.001130231281278271,0.01637737730993975,0.0,0.0,0.0,0.0,0.0,0.0,0.0,0.0,0.0,-0.008229154611861068,0.5169283701630083,9.81042485647842,0.0,0.0,0.0,0.0,0.0,0.0,0.0,0.0,0.0
2025/05/25 18:48:18.828266045,1748191697,971113223,mA1/imu,0.8343764042674163,0.5511940882300791,0.00024153344984836222,0.0010172332975426279,0.0,0.0,0.0,0.0,0.0,0.0,0.0,0.0,0.0,0.000642955690244163,0.000951794283522362,0.016152571717757597,0.0,0.0,0.0,0.0,0.0,0.0,0.0,0.0,0.0,-0.009088255561530272,-0.6174397309054559,9.809590480229357,0.0,0.0,0.0,0.0,0.0,0.0,0.0,0.0,0.0
2025/05/25 18:48:18.841556236,1748191698,22258325,mA1/imu,0.8345994890520372,0.5508562671361092,0.00026293261414941314,0.0009983473293433617,0.0,0.0,0.0,0.0,0.0,0.0,0.0,0.0,0.0,0.0005735102261307815,0.0012174318874807535,0.0162197997667571,0.0,0.0,0.0,0.0,0.0,0.0,0.0,0.0,0.0,-0.009191171184874797,-0.2593349163700258,9.810798736156206,0.0,0.0,0.0,0.0,0.0,0.0,0.0,0.0,0.0
2025/05/25 18:48:18.854894866,1748191698,73375817,mA1/imu,0.834823278989567,0.5505170850420879,0.00028730606837853545,0.0009743659956294793,0.0,0.0,0.0,0.0,0.0,0.0,0.0,0.0,0.0,0.0020935421890472643,0.0013782441246902837,0.016278193478571033,0.0,0.0,0.0,0.0,0.0,0.0,0.0,0.0,0.0,-0.008383081765848205,-0.5120676096874581,9.809546422436403,0.0,0.0,0.0,0.0,0.0,0.0,0.0,0.0,0.0
2025/05/25 18:48:18.863922723,1748191698,123736959,mA1/imu,0.8350476774575714,0.5501766582695381,0.000320167734256508,0.0009584157249249196,0.0,0.0,0.0,0.0,0.0,0.0,0.0,0.0,0.0,0.00048476829728545906,0.001438803235662148,0.0163333461623772,0.0,0.0,0.0,0.0,0.0,0.0,0.0,0.0,0.0,-0.006956220085405317,0.003586059278351629,9.812538122549453,0.0,0.0,0.0,0.0,0.0,0.0,0.0,0.0,0.0
2025/05/25 18:48:19.820825457,1748191698,866793664,mA1/imu,0.8385050989514568,0.5448927260258754,0.0002932429390086442,0.0010149704808229514,0.0,0.0,0.0,0.0,0.0,0.0,0.0,0.0,0.0,0.0008333787271718184,-0.0007087108549398989,0.017445657609452575,0.0,0.0,0.0,0.0,0.0,0.0,0.0,0.0,0.0,-0.008238548269501173,-0.08661507134034588,9.809068973632339,0.0,0.0,0.0,0.0,0.0,0.0,0.0,0.0,0.0
2025/05/25 18:48:19.823949590,1748191698,917568895,mA1/imu,0.8387434536580071,0.544525742577939,0.0002828165845325445,0.0010269520740840551,0.0,0.0,0.0,0.0,0.0,0.0,0.0,0.0,0.0,3.4582785173102346e-06,-0.00058280652361933,0.017538524493967946,0.0,0.0,0.0,0.0,0.0,0.0,0.0,0.0,0.0,-0.007940688801058565,-0.034640116385071966,9.808156385913636,0.0,0.0,0.0,0.0,0.0,0.0,0.0,0.0,0.0
2025/05/25 18:48:19.836271747,1748191698,968510730,mA1/imu,0.8389818033068501,0.5441584327981923,0.000270743023916623,0.0010297731867750515,0.0,0.0,0.0,0.0,0.0,0.0,0.0,0.0,0.0,0.0005061585650774751,-0.00041527378638998933,0.01752408771074677,0.0,0.0,0.0,0.0,0.0,0.0,0.0,0.0,0.0,-0.008767069299710672,-0.48722071059201677,9.80839688058303,0.0,0.0,0.0,0.0,0.0,0.0,0.0,0.0,0.0
2025/05/25 18:48:19.847959505,1748191699,18532878,mA1/imu,0.8392206315004924,0.543790029330532,0.00026385869198011905,0.0010324936825914536,0.0,0.0,0.0,0.0,0.0,0.0,0.0,0.0,0.0,-0.001186545575312488,-0.00023128231747153536,0.01758545884272163,0.0,0.0,0.0,0.0,0.0,0.0,0.0,0.0,0.0,-0.00773538692789722,0.5124355888129709,9.810727523257812,0.0,0.0,0.0,0.0,0.0,0.0,0.0,0.0,0.0
2025/05/25 18:48:19.858296353,1748191699,69714118,mA1/imu,0.8394601106547089,0.5434202725619227,0.00025895622914345315,0.0010309849565607924,0.0,0.0,0.0,0.0,0.0,0.0,0.0,0.0,0.0,-0.0012162011962183012,-7.916576007797307e-05,0.017644801882102528,0.0,0.0,0.0,0.0,0.0,0.0,0.0,0.0,0.0,-0.007017421814542508,0.5094980269675943,9.81079203056059,0.0,0.0,0.0,0.0,0.0,0.0,0.0,0.0,0.0
2025/05/25 18:48:19.870194220,1748191699,119562822,mA1/imu,0.8397002009733274,0.5430492216266166,0.0002553436082850913,0.0010247808160796918,0.0,0.0,0.0,0.0,0.0,0.0,0.0,0.0,0.0,0.0005201365024095736,5.234363127837973e-05,0.01770089624720687,0.0,0.0,0.0,0.0,0.0,0.0,0.0,0.0,0.0,-0.007234546472216391,0.0005133093973564047,9.810761883033921,0.0,0.0,0.0,0.0,0.0,0.0,0.0,0.0,0.0
2025/05/25 18:48:20.823612091,1748191699,872930068,mA1/imu,0.8433554006859864,0.5373550565827326,0.00013150679624965658,0.0010927052256315874,0.0,0.0,0.0,0.0,0.0,0.0,0.0,0.0,0.0,0.00039517339761488185,-0.001441800276872656,0.01831290821669239,0.0,0.0,0.0,0.0,0.0,0.0,0.0,0.0,0.0,0.002616249590274386,-0.6271390932144705,9.807972146233288,0.0,0.0,0.0,0.0,0.0,0.0,0.0,0.0,0.0
2025/05/25 18:48:20.831847007,1748191699,923668200,mA1/imu,0.8436015271452529,0.5369685370287328,0.00010452551001587063,0.0011147707554284992,0.0,0.0,0.0,0.0,0.0,0.0,0.0,0.0,0.0,-0.0014099800660760764,-0.0013594973816881935,0.018337056635802366,0.0,0.0,0.0,0.0,0.0,0.0,0.0,0.0,0.0,0.0032764741779728913,0.5074319198467173,9.809960505403675,0.0,0.0,0.0,0.0,0.0,0.0,0.0,0.0,0.0
2025/05/25 18:48:21.766905532,1748191700,822701804,mA1/imu,0.8480522968287446,0.5299114388568819,0.0001052549437287077,0.0010759802584997692,0.0,0.0,0.0,0.0,0.0,0.0,0.0,0.0,0.0,-0.000928868019251424,-0.0010726329464177274,0.018860846005564633,0.0,0.0,0.0,0.0,0.0,0.0,0.0,0.0,0.0,0.0183941679504219,0.5348467507297365,9.809517098950542,0.0,0.0,0.0,0.0,0.0,0.0,0.0,0.0,0.0
2025/05/25 18:48:21.771275825,1748191700,873972685,mA1/imu,0.8483019544450984,0.5295116557021049,7.649338829816198e-05,0.0010930274485664979,0.0,0.0,0.0,0.0,0.0,0.0,0.0,0.0,0.0,-0.00013590572611223118,-0.001520029028215416,0.018844733925996022,0.0,0.0,0.0,0.0,0.0,0.0,0.0,0.0,0.0,0.016977989324792234,-0.03774528579271796,9.809331628173132,0.0,0.0,0.0,0.0,0.0,0.0,0.0,0.0,0.0
2025/05/25 18:48:21.781365478,1748191700,923865444,mA1/imu,0.8485510360153129,0.529112363217247,3.956087490613729e-05,0.0011157073704402283,0.0,0.0,0.0,0.0,0.0,0.0,0.0,0.0,0.0,0.00014922739984741737,-0.0019166123466403209,0.018787214924661406,0.0,0.0,0.0,0.0,0.0,0.0,0.0,0.0,0.0,0.02077544261064452,-0.44605846422078405,9.809344755884728,0.0,0.0,0.0,0.0,0.0,0.0,0.0,0.0,0.0
2025/05/25 18:48:21.790529214,1748191700,966213739,mA1/imu,0.8487988195223943,0.5287147215259429,-4.9577510891168864e-06,0.001143326093158322,0.0,0.0,0.0,0.0,0.0,0.0,0.0,0.0,0.0,-0.0007120850918853536,-0.002206185253437495,0.01872040524500744,0.0,0.0,0.0,0.0,0.0,0.0,0.0,0.0,0.0,0.01709047681226937,0.48865666732053165,9.810145105868765,0.0,0.0,0.0,0.0,0.0,0.0,0.0,0.0,0.0
2025/05/25 18:48:21.801546758,1748191701,16036363,mA1/imu,0.8490457798748928,0.5283179599713591,-4.837412203720858e-05,0.0011808930014616768,0.0,0.0,0.0,0.0,0.0,0.0,0.0,0.0,0.0,-0.0021194026802898074,-0.002319070833083497,0.018670413703107763,0.0,0.0,0.0,0.0,0.0,0.0,0.0,0.0,0.0,0.01720513318917193,0.44785346377273333,9.810012140461495,0.0,0.0,0.0,0.0,0.0,0.0,0.0,0.0,0.0
2025/05/25 18:48:21.812679158,1748191701,67137436,mA1/imu,0.849291883075629,0.52792218071717,-0.00010036437962435542,0.0012076322582599745,0.0,0.0,0.0,0.0,0.0,0.0,0.0,0.0,0.0,-0.00039743603468738093,-0.00232397549334294,0.018617036871262586,0.0,0.0,0.0,0.0,0.0,0.0,0.0,0.0,0.0,0.015989858011292907,-0.04958690314073026,9.808228289086816,0.0,0.0,0.0,0.0,0.0,0.0,0.0,0.0,0.0
2025/05/25 18:48:21.812749327,1748191701,116957012,mA1/imu,0.8495370945231557,0.527527414390547,-0.00014747561123934093,0.0012370717533826516,0.0,0.0,0.0,0.0,0.0,0.0,0.0,0.0,0.0,-0.0001230853673467549,-0.0021688906385636084,0.018564089391864273,0.0,0.0,0.0,0.0,0.0,0.0,0.0,0.0,0.0,0.016456910912677328,-0.029470913938277943,9.807729424066217,0.0,0.0,0.0,0.0,0.0,0.0,0.0,0.0,0.0
2025/05/25 18:48:22.771585116,1748191701,816677167,mA1/imu,0.8529440512388179,0.5220010196283615,-5.33318350127884e-05,0.0011739331237330987,0.0,0.0,0.0,0.0,0.0,0.0,0.0,0.0,0.0,-0.00035665249852304934,0.0007317550507633072,0.01831702114317806,0.0,0.0,0.0,0.0,0.0,0.0,0.0,0.0,0.0,0.023769303851004807,-0.05185541846192959,9.811917724785413,0.0,0.0,0.0,0.0,0.0,0.0,0.0,0.0,0.0
2025/05/25 18:48:22.780636294,1748191701,868786305,mA1/imu,0.8531822232482962,0.5216116677314702,-4.280633789310428e-05,0.0011662705973695385,0.0,0.0,0.0,0.0,0.0,0.0,0.0,0.0,0.0,-0.0008169584536608496,0.0003649452357080782,0.018228267171755807,0.0,0.0,0.0,0.0,0.0,0.0,0.0,0.0,0.0,0.02372870341917369,-0.0831402632518023,9.811103253714563,0.0,0.0,0.0,0.0,0.0,0.0,0.0,0.0,0.0
2025/05/25 18:48:22.784391158,1748191701,918567462,mA1/imu,0.8534194506938277,0.5212234385710762,-3.5864368765389136e-05,0.0011691772046372381,0.0,0.0,0.0,0.0,0.0,0.0,0.0,0.0,0.0,-0.0008833980878267447,3.202393419960584e-05,0.018177541262230677,0.0,0.0,0.0,0.0,0.0,0.0,0.0,0.0,0.0,0.022842657924811424,-0.08171914355859278,9.809744862827683,0.0,0.0,0.0,0.0,0.0,0.0,0.0,0.0,0.0
2025/05/25 18:48:23.220361235,1748191702,272726160,mA1/imu,0.8550578012662393,0.5185311772000785,-0.0001314271631046842,0.001247995250770288,0.0,0.0,0.0,0.0,0.0,0.0,0.0,0.0,0.0,-0.0008140990914709838,-0.0009460561687292526,0.01785665826988201,0.0,0.0,0.0,0.0,0.0,0.0,0.0,0.0,0.0,0.01952348890334856,-0.710585463997465,9.81059327442968,0.0,0.0,0.0,0.0,0.0,0.0,0.0,0.0,0.0
2025/05/25 18:48:23.224422119,1748191702,322676137,mA1/imu,0.8552889005672369,0.5181498797320966,-0.00015266989833648715,0.0012551462077806518,0.0,0.0,0.0,0.0,0.0,0.0,0.0,0.0,0.0,-0.0010001449814475195,-0.0008280544577572182,0.017817647940707365,0.0,0.0,0.0,0.0,0.0,0.0,0.0,0.0,0.0,0.018319937750772224,-0.09018807122147598,9.809076672897525,0.0,0.0,0.0,0.0,0.0,0.0,0.0,0.0,0.0
2025/05/25 18:48:23.229337790,1748191702,373667508,mA1/imu,0.8555193350052935,0.5177693057396717,-0.000171577399838052,0.0012585814055295548,0.0,0.0,0.0,0.0,0.0,0.0,0.0,0.0,0.0,-0.00014380507248017274,-0.0006538123245575563,0.017781486986092037,0.0,0.0,0.0,0.0,0.0,0.0,0.0,0.0,0.0,0.018150253454334662,0.24545546465363166,9.808920581254846,0.0,0.0,0.0,0.0,0.0,0.0,0.0,0.0,0.0
2025/05/25 18:48:23.236536904,1748191702,423544905,mA1/imu,0.8557491299588974,0.5173894041949342,-0.0001836237197805965,0.0012638369083891677,0.0,0.0,0.0,0.0,0.0,0.0,0.0,0.0,0.0,0.00037206589431214055,-0.00045587749389727804,0.017743624191448537,0.0,0.0,0.0,0.0,0.0,0.0,0.0,0.0,0.0,0.01918125354873382,0.23243577546275335,9.8100132017965,0.0,0.0,0.0,0.0,0.0,0.0,0.0,0.0,0.0
2025/05/25 18:48:23.242143553,1748191702,465368784,mA1/imu,0.8559781101122879,0.5170104783631646,-0.00019118908458530266,0.0012663798883348189,0.0,0.0,0.0,0.0,0.0,0.0,0.0,0.0,0.0,0.0017554170570821884,-0.0002458258668331363,0.017686503173924357,0.0,0.0,0.0,0.0,0.0,0.0,0.0,0.0,0.0,0.018127054280455718,-0.5371849059355887,9.808803450515391,0.0,0.0,0.0,0.0,0.0,0.0,0.0,0.0,0.0
2025/05/25 18:48:23.253472740,1748191702,514937592,mA1/imu,0.8562062027943992,0.51663264054979,-0.0001908450960573584,0.0012714531438650662,0.0,0.0,0.0,0.0,0.0,0.0,0.0,0.0,0.0,0.0005917674836869966,-3.752179234696024e-05,0.0176303695523726,0.0,0.0,0.0,0.0,0.0,0.0,0.0,0.0,0.0,0.020254610117043735,0.006385236027329901,9.808842057816403,0.0,0.0,0.0,0.0,0.0,0.0,0.0,0.0,0.0
2025/05/25 18:48:23.263511855,1748191702,566736378,mA1/imu,0.8564338596710398,0.5162551558017258,-0.00018831945844632837,0.001273833930750128,0.0,0.0,0.0,0.0,0.0,0.0,0.0,0.0,0.0,-0.0009140444320299747,5.2576206943715405e-05,0.0176270189274462,0.0,0.0,0.0,0.0,0.0,0.0,0.0,0.0,0.0,0.0214835416314289,-0.09947400046392574,9.809377841508516,0.0,0.0,0.0,0.0,0.0,0.0,0.0,0.0,0.0
2025/05/25 18:48:23.770563176,1748191702,820537110,mA1/imu,0.8575665517972906,0.5143715108595555,-0.000154400311411731,0.0012386343717941505,0.0,0.0,0.0,0.0,0.0,0.0,0.0,0.0,0.0,0.0013501801808550216,0.00045296026628604955,0.017516115878964136,0.0,0.0,0.0,0.0,0.0,0.0,0.0,0.0,0.0,0.02249036215833973,-0.5687872162233217,9.8098101905096,0.0,0.0,0.0,0.0,0.0,0.0,0.0,0.0,0.0
2025/05/25 18:48:23.772055045,1748191702,873717547,mA1/imu,0.8577914226640633,0.5139964311533153,-0.00014279142431590562,0.0012343322999475766,0.0,0.0,0.0,0.0,0.0,0.0,0.0,0.0,0.0,-0.00028668739790355184,0.0004639732069963721,0.017477555740467957,0.0,0.0,0.0,0.0,0.0,0.0,0.0,0.0,0.0,0.021961902355268594,-0.04836874333042034,9.810120480154541,0.0,0.0,0.0,0.0,0.0,0.0,0.0,0.0,0.0
2025/05/25 18:48:23.780816757,1748191702,923798836,mA1/imu,0.8580156690321932,0.513622029498204,-0.00013361127958932278,0.0012266447773382643,0.0,0.0,0.0,0.0,0.0,0.0,0.0,0.0,0.0,-0.0009412615516003969,0.0004485839456338125,0.017443517127028248,0.0,0.0,0.0,0.0,0.0,0.0,0.0,0.0,0.0,0.022129379790498945,0.2639306902931251,9.8119137865129,0.0,0.0,0.0,0.0,0.0,0.0,0.0,0.0,0.0
2025/05/25 18:48:23.797606994,1748191702,964818129,mA1/imu,0.8582393089478448,0.5132482656841331,-0.0001242121742945036,0.0012210324692324623,0.0,0.0,0.0,0.0,0.0,0.0,0.0,0.0,0.0,-0.0005048022140546353,0.0004093553215013474,0.01741028940443158,0.0,0.0,0.0,0.0,0.0,0.0,0.0,0.0,0.0,0.02163918341064925,-0.06288305816400656,9.811475768981818,0.0,0.0,0.0,0.0,0.0,0.0,0.0,0.0,0.0
2025/05/25 18:48:23.807005979,1748191703,14601159,mA1/imu,0.8584623462567756,0.5128751301256087,-0.00011323004351064601,0.0012198921710695032,0.0,0.0,0.0,0.0,0.0,0.0,0.0,0.0,0.0,-0.00042236465093553404,0.000369926705033139,0.017377079029728827,0.0,0.0,0.0,0.0,0.0,0.0,0.0,0.0,0.0,0.020717442958985983,-0.20871207673131797,9.811771135611504,0.0,0.0,0.0,0.0,0.0,0.0,0.0,0.0,0.0
2025/05/25 18:48:23.816818322,1748191703,66510083,mA1/imu,0.8586848164368875,0.5125025964124741,-0.00010889772343627589,0.0012094761292601507,0.0,0.0,0.0,0.0,0.0,0.0,0.0,0.0,0.0,-0.0006747281787340458,0.0003297351690412335,0.01734286522186228,0.0,0.0,0.0,0.0,0.0,0.0,0.0,0.0,0.0,0.02089267504919129,-0.07544158314596565,9.810783308494367,0.0,0.0,0.0,0.0,0.0,0.0,0.0,0.0,0.0
