time,header_stamp_secs,header_stamp_nsecs,header_frame_id,orientation_x,orientation_y,orientation_z,orientation_w,orientation_covariance_0,orientation_covariance_1,orientation_covariance_2,orientation_covariance_3,orientation_covariance_4,orientation_covariance_5,orientation_covariance_6,orientation_covariance_7,orientation_covariance_8,angular_velocity_x,angular_velocity_y,angular_velocity_z,angular_velocity_covariance_0,angular_velocity_covariance_1,angular_velocity_covariance_2,angular_velocity_covariance_3,angular_velocity_covariance_4,angular_velocity_covariance_5,angular_velocity_covariance_6,angular_velocity_covariance_7,angular_velocity_covariance_8,linear_acceleration_x,linear_acceleration_y,linear_acceleration_z,linear_acceleration_covariance_0,linear_acceleration_covariance_1,linear_acceleration_covariance_2,linear_acceleration_covariance_3,linear_acceleration_covariance_4,linear_acceleration_covariance_5,linear_acceleration_covariance_6,linear_acceleration_covariance_7,linear_acceleration_covariance_8
2025/05/07 10:29:52.148323746,1746606592,148015559,mti/imu_base_body,0.4117746271542452,0.9111478328998469,0.004272903546759006,-0.015265167184650966,0.017453292519943295,0.0,0.0,0.0,0.017453292519943295,0.0,0.0,0.0,0.15707963267948966,0.00990698765963316,0.018608015030622482,-0.044659391045570374,0.0004363323129985824,0.0,0.0,0.0,0.0004363323129985824,0.0,0.0,0.0,0.0004363323129985824,-0.25246545672416687,-0.0006358583923429251,9.839420318603516,0.0004,0.0,0.0,0.0,0.0004,0.0,0.0,0.0,0.0004
2025/05/07 10:29:52.199306170,1746606592,198591730,mti/imu_base_body,0.4115570849152867,0.9112461070482207,0.004278794445829782,-0.015264015316557102,0.017453292519943295,0.0,0.0,0.0,0.017453292519943295,0.0,0.0,0.0,0.15707963267948966,0.011086305603384972,0.005606926511973143,-0.053250156342983246,0.0004363323129985824,0.0,0.0,0.0,0.0004363323129985824,0.0,0.0,0.0,0.0004363323129985824,-0.25942307710647583,0.0037224250845611095,9.833812713623047,0.0004,0.0,0.0,0.0,0.0004,0.0,0.0,0.0,0.0004
2025/05/07 10:29:52.249071215,1746606592,248239718,mti/imu_base_body,0.4113346937906916,0.9113461272495944,0.004285694168886826,-0.015285249647116262,0.017453292519943295,0.0,0.0,0.0,0.017453292519943295,0.0,0.0,0.0,0.15707963267948966,0.008848831988871098,0.004809909034520388,-0.05182292312383652,0.0004363323129985824,0.0,0.0,0.0,0.0004363323129985824,0.0,0.0,0.0,0.0004363323129985824,-0.2629149854183197,0.017224296927452087,9.822298049926758,0.0004,0.0,0.0,0.0,0.0004,0.0,0.0,0.0,0.0004
2025/05/07 10:29:52.299152356,1746606592,298572517,mti/imu_base_body,0.41113402086336287,0.9114362420557938,0.0043030731683468834,-0.015306113721127536,0.017453292519943295,0.0,0.0,0.0,0.017453292519943295,0.0,0.0,0.0,0.15707963267948966,0.012303393334150314,0.00976510625332594,-0.040152691304683685,0.0004363323129985824,0.0,0.0,0.0,0.0004363323129985824,0.0,0.0,0.0,0.0004363323129985824,-0.25873497128486633,0.014055028557777405,9.854204177856445,0.0004,0.0,0.0,0.0,0.0004,0.0,0.0,0.0,0.0004
2025/05/07 10:29:52.350242912,1746606592,348923748,mti/imu_base_body,0.4109456195870587,0.9115210417416681,0.004296482523829868,-0.015317586047261217,0.017453292519943295,0.0,0.0,0.0,0.017453292519943295,0.0,0.0,0.0,0.15707963267948966,0.011299686506390572,0.002719833282753825,-0.04515828564763069,0.0004363323129985824,0.0,0.0,0.0,0.0004363323129985824,0.0,0.0,0.0,0.0004363323129985824,-0.26190534234046936,0.01122715137898922,9.83189582824707,0.0004,0.0,0.0,0.0,0.0004,0.0,0.0,0.0,0.0004
2025/05/07 10:29:52.399986889,1746606592,398762319,mti/imu_base_body,0.41074624076648847,0.9116113562207359,0.004297608201405797,-0.015290240983573865,0.017453292519943295,0.0,0.0,0.0,0.017453292519943295,0.0,0.0,0.0,0.15707963267948966,0.007952822372317314,0.001665232121013105,-0.04759062081575394,0.0004363323129985824,0.0,0.0,0.0,0.0004363323129985824,0.0,0.0,0.0,0.0004363323129985824,-0.2710553705692291,0.015208723023533821,9.80982494354248,0.0004,0.0,0.0,0.0,0.0004,0.0,0.0,0.0,0.0004
2025/05/07 10:29:52.448370759,1746606592,447971032,mti/imu_base_body,0.4104997879744998,0.9117216219057256,0.004320574500781984,-0.015327780611265445,0.017453292519943295,0.0,0.0,0.0,0.017453292519943295,0.0,0.0,0.0,0.15707963267948966,0.003582129953429103,0.011696248315274715,-0.05284373462200165,0.0004363323129985824,0.0,0.0,0.0,0.0004363323129985824,0.0,0.0,0.0,0.0004363323129985824,-0.2635215222835541,0.014116809703409672,9.830327033996582,0.0004,0.0,0.0,0.0,0.0004,0.0,0.0,0.0,0.0004
2025/05/07 10:29:52.500752073,1746606592,498739545,mti/imu_base_body,0.41030279929511293,0.9118098899763112,0.004348750180274932,-0.015343591621617404,0.017453292519943295,0.0,0.0,0.0,0.017453292519943295,0.0,0.0,0.0,0.15707963267948966,0.012469912879168987,0.00985061377286911,-0.04807892069220543,0.0004363323129985824,0.0,0.0,0.0,0.0004363323129985824,0.0,0.0,0.0,0.0004363323129985824,-0.2691902816295624,0.015585973858833313,9.817134857177734,0.0004,0.0,0.0,0.0,0.0004,0.0,0.0,0.0,0.0004
2025/05/07 10:29:52.549128413,1746606592,548779246,mti/imu_base_body,0.41007986703582594,0.911909341173605,0.004372135765626261,-0.015386375825646349,0.017453292519943295,0.0,0.0,0.0,0.017453292519943295,0.0,0.0,0.0,0.15707963267948966,0.006805286277085543,0.013073062524199486,-0.04893447458744049,0.0004363323129985824,0.0,0.0,0.0,0.0004363323129985824,0.0,0.0,0.0,0.0004363323129985824,-0.24989256262779236,0.019162969663739204,9.834264755249023,0.0004,0.0,0.0,0.0,0.0004,0.0,0.0,0.0,0.0004
2025/05/07 10:29:52.599792218,1746606592,599124982,mti/imu_base_body,0.4098633315747609,0.9120058182121125,0.004413015135493698,-0.015426025901276692,0.017453292519943295,0.0,0.0,0.0,0.017453292519943295,0.0,0.0,0.0,0.15707963267948966,0.011554116383194923,0.013408194296061993,-0.044938795268535614,0.0004363323129985824,0.0,0.0,0.0,0.0004363323129985824,0.0,0.0,0.0,0.0004363323129985824,-0.2727150321006775,0.017108943313360214,9.818575859069824,0.0004,0.0,0.0,0.0,0.0004,0.0,0.0,0.0,0.0004
2025/05/07 10:29:52.649529774,1746606592,648444769,mti/imu_base_body,0.4096460811318356,0.9121021096766759,0.004415237133948287,-0.015502755166017545,0.017453292519943295,0.0,0.0,0.0,0.017453292519943295,0.0,0.0,0.0,0.15707963267948966,0.013205939903855324,0.020936213433742523,-0.050142671912908554,0.0004363323129985824,0.0,0.0,0.0,0.0004363323129985824,0.0,0.0,0.0,0.0004363323129985824,-0.25574952363967896,0.012444348074495792,9.79897689819336,0.0004,0.0,0.0,0.0,0.0004,0.0,0.0,0.0,0.0004
2025/05/07 10:29:52.699257196,1746606592,698925690,mti/imu_base_body,0.40945502907699866,0.9121870574530151,0.004455663463670568,-0.015540220135578205,0.017453292519943295,0.0,0.0,0.0,0.017453292519943295,0.0,0.0,0.0,0.15707963267948966,0.0023895965423434973,0.00844484195113182,-0.04515499994158745,0.0004363323129985824,0.0,0.0,0.0,0.0004363323129985824,0.0,0.0,0.0,0.0004363323129985824,-0.2549992501735687,0.009796169586479664,9.829837799072266,0.0004,0.0,0.0,0.0,0.0004,0.0,0.0,0.0,0.0004
2025/05/07 10:29:52.749326089,1746606592,748157458,mti/imu_base_body,0.40922962309326655,0.9122879160787307,0.004473227528550882,-0.01555197721022413,0.017453292519943295,0.0,0.0,0.0,0.017453292519943295,0.0,0.0,0.0,0.15707963267948966,0.005958192050457001,0.00866732094436884,-0.04996993765234947,0.0004363323129985824,0.0,0.0,0.0,0.0004363323129985824,0.0,0.0,0.0,0.0004363323129985824,-0.25346434116363525,0.014359444379806519,9.816755294799805,0.0004,0.0,0.0,0.0,0.0004,0.0,0.0,0.0,0.0004
2025/05/07 10:29:52.798958874,1746606592,798593880,mti/imu_base_body,0.40904989211965276,0.9123676520300079,0.004562291597550201,-0.01557686687140426,0.017453292519943295,0.0,0.0,0.0,0.017453292519943295,0.0,0.0,0.0,0.15707963267948966,-0.0032378430478274822,0.01644759066402912,-0.038074277341365814,0.0004363323129985824,0.0,0.0,0.0,0.0004363323129985824,0.0,0.0,0.0,0.0004363323129985824,-0.26521188020706177,0.005090966820716858,9.795272827148438,0.0004,0.0,0.0,0.0,0.0004,0.0,0.0,0.0,0.0004
2025/05/07 10:29:52.851152922,1746606592,850174772,mti/imu_base_body,0.4088040074253691,0.9124770561307556,0.004640720478709353,-0.015600296835226663,0.017453292519943295,0.0,0.0,0.0,0.017453292519943295,0.0,0.0,0.0,0.15707963267948966,0.00011205611372133717,0.011985569261014462,-0.05522140860557556,0.0004363323129985824,0.0,0.0,0.0,0.0004363323129985824,0.0,0.0,0.0,0.0004363323129985824,-0.2528744041919708,0.012102016247808933,9.812431335449219,0.0004,0.0,0.0,0.0,0.0004,0.0,0.0,0.0,0.0004
2025/05/07 10:29:52.901502233,1746606592,899400636,mti/imu_base_body,0.40859506343586344,0.9125699649474182,0.004690010171159849,-0.015624884521324274,0.017453292519943295,0.0,0.0,0.0,0.017453292519943295,0.0,0.0,0.0,0.15707963267948966,0.002990501234307885,0.01432243175804615,-0.04876861348748207,0.0004363323129985824,0.0,0.0,0.0,0.0004363323129985824,0.0,0.0,0.0,0.0004363323129985824,-0.263632208108902,0.00904273334890604,9.829607009887695,0.0004,0.0,0.0,0.0,0.0004,0.0,0.0,0.0,0.0004
2025/05/07 10:29:52.949118035,1746606592,948816619,mti/imu_base_body,0.40838547987141605,0.9126629516637762,0.004742486864163492,-0.01565711687700369,0.017453292519943295,0.0,0.0,0.0,0.017453292519943295,0.0,0.0,0.0,0.15707963267948966,0.006006835028529167,0.016317525878548622,-0.044897038489580154,0.0004363323129985824,0.0,0.0,0.0,0.0004363323129985824,0.0,0.0,0.0,0.0004363323129985824,-0.2565414309501648,0.009489106945693493,9.823820114135742,0.0004,0.0,0.0,0.0,0.0004,0.0,0.0,0.0,0.0004
2025/05/07 10:29:52.999998986,1746606592,998895132,mti/imu_base_body,0.40817554463928435,0.91275508021683,0.004810765694822298,-0.015739912014409253,0.017453292519943295,0.0,0.0,0.0,0.017453292519943295,0.0,0.0,0.0,0.15707963267948966,0.002599518047645688,0.019217368215322495,-0.04714755341410637,0.0004363323129985824,0.0,0.0,0.0,0.0004363323129985824,0.0,0.0,0.0,0.0004363323129985824,-0.2599465847015381,0.016262391582131386,9.79583740234375,0.0004,0.0,0.0,0.0,0.0004,0.0,0.0,0.0,0.0004
2025/05/07 10:29:53.49356443,1746606593,48678307,mti/imu_base_body,0.4079603143750291,0.9128501324868944,0.00485792027844029,-0.0157929770548448,0.017453292519943295,0.0,0.0,0.0,0.017453292519943295,0.0,0.0,0.0,0.15707963267948966,0.01206337008625269,0.01950686238706112,-0.05081094801425934,0.0004363323129985824,0.0,0.0,0.0,0.0004363323129985824,0.0,0.0,0.0,0.0004363323129985824,-0.2678963243961334,0.009273373521864414,9.805213928222656,0.0004,0.0,0.0,0.0,0.0004,0.0,0.0,0.0,0.0004
2025/05/07 10:29:53.103526828,1746606593,98088099,mti/imu_base_body,0.40777420943143683,0.912932684034753,0.004914483612924121,-0.015810009313301867,0.017453292519943295,0.0,0.0,0.0,0.017453292519943295,0.0,0.0,0.0,0.15707963267948966,-0.004733286798000336,0.006453872192651033,-0.038253672420978546,0.0004363323129985824,0.0,0.0,0.0,0.0004363323129985824,0.0,0.0,0.0,0.0004363323129985824,-0.25493884086608887,0.011401962488889694,9.826457977294922,0.0004,0.0,0.0,0.0,0.0004,0.0,0.0,0.0,0.0004
2025/05/07 10:29:53.150732609,1746606593,148419679,mti/imu_base_body,0.40758811316874666,0.9130150816251521,0.004944453153071278,-0.015841184033236103,0.017453292519943295,0.0,0.0,0.0,0.017453292519943295,0.0,0.0,0.0,0.15707963267948966,0.011115668341517448,0.008795744739472866,-0.04418535158038139,0.0004363323129985824,0.0,0.0,0.0,0.0004363323129985824,0.0,0.0,0.0,0.0004363323129985824,-0.2580205798149109,0.012687011621892452,9.804492950439453,0.0004,0.0,0.0,0.0,0.0004,0.0,0.0,0.0,0.0004
2025/05/07 10:29:53.206966079,1746606593,197976592,mti/imu_base_body,0.40740428886282115,0.9130967434297004,0.004940092814896362,-0.015864363751348434,0.017453292519943295,0.0,0.0,0.0,0.017453292519943295,0.0,0.0,0.0,0.15707963267948966,0.009237677790224552,0.016163386404514313,-0.04012979194521904,0.0004363323129985824,0.0,0.0,0.0,0.0004363323129985824,0.0,0.0,0.0,0.0004363323129985824,-0.27115675806999207,0.0132596455514431,9.804384231567383,0.0004,0.0,0.0,0.0,0.0004,0.0,0.0,0.0,0.0004
2025/05/07 10:29:53.254668839,1746606593,248353583,mti/imu_base_body,0.407161902810551,0.913204521839932,0.004997184661217351,-0.0158655077528002,0.017453292519943295,0.0,0.0,0.0,0.017453292519943295,0.0,0.0,0.0,0.15707963267948966,3.424589885980822e-05,0.003953146282583475,-0.05760269612073898,0.0004363323129985824,0.0,0.0,0.0,0.0004363323129985824,0.0,0.0,0.0,0.0004363323129985824,-0.27100852131843567,0.006775687448680401,9.801993370056152,0.0004,0.0,0.0,0.0,0.0004,0.0,0.0,0.0,0.0004
2025/05/07 10:29:53.298544682,1746606593,298152090,mti/imu_base_body,0.40692949609564005,0.913307740903839,0.005025135486833944,-0.015877771437241908,0.017453292519943295,0.0,0.0,0.0,0.017453292519943295,0.0,0.0,0.0,0.15707963267948966,0.009167016483843327,0.010646790266036987,-0.05036981776356697,0.0004363323129985824,0.0,0.0,0.0,0.0004363323129985824,0.0,0.0,0.0,0.0004363323129985824,-0.2560519278049469,0.011452725157141685,9.814702033996582,0.0004,0.0,0.0,0.0,0.0004,0.0,0.0,0.0,0.0004
2025/05/07 10:29:53.351681181,1746606593,348192092,mti/imu_base_body,0.4067186885339263,0.9134005028428649,0.00508408464540596,-0.015924254675272198,0.017453292519943295,0.0,0.0,0.0,0.017453292519943295,0.0,0.0,0.0,0.15707963267948966,0.003144785761833191,0.014611362479627132,-0.05091524496674538,0.0004363323129985824,0.0,0.0,0.0,0.0004363323129985824,0.0,0.0,0.0,0.0004363323129985824,-0.26183006167411804,0.0015584882348775864,9.810248374938965,0.0004,0.0,0.0,0.0,0.0004,0.0,0.0,0.0,0.0004
2025/05/07 10:29:53.403289924,1746606593,398344679,mti/imu_base_body,0.4065042043942907,0.9134950759679054,0.005102936322941154,-0.01596991023893015,0.017453292519943295,0.0,0.0,0.0,0.017453292519943295,0.0,0.0,0.0,0.15707963267948966,0.00744633749127388,0.01203541737049818,-0.04040885716676712,0.0004363323129985824,0.0,0.0,0.0,0.0004363323129985824,0.0,0.0,0.0,0.0004363323129985824,-0.25910356640815735,0.011914934031665325,9.798371315002441,0.0004,0.0,0.0,0.0,0.0004,0.0,0.0,0.0,0.0004
2025/05/07 10:29:53.448644850,1746606593,448226134,mti/imu_base_body,0.4063158596434777,0.9135787013845669,0.005194538820136379,-0.0159497757073951,0.017453292519943295,0.0,0.0,0.0,0.017453292519943295,0.0,0.0,0.0,0.15707963267948966,-0.006644854322075844,0.0075333258137106895,-0.048216354101896286,0.0004363323129985824,0.0,0.0,0.0,0.0004363323129985824,0.0,0.0,0.0,0.0004363323129985824,-0.25339147448539734,0.01399586908519268,9.799330711364746,0.0004,0.0,0.0,0.0,0.0004,0.0,0.0,0.0,0.0004
2025/05/07 10:29:53.499104705,1746606593,498249039,mti/imu_base_body,0.4061257145075303,0.9136625797810163,0.005219699915371229,-0.015979645066131483,0.017453292519943295,0.0,0.0,0.0,0.017453292519943295,0.0,0.0,0.0,0.15707963267948966,0.01192591991275549,0.01188245601952076,-0.037267427891492844,0.0004363323129985824,0.0,0.0,0.0,0.0004363323129985824,0.0,0.0,0.0,0.0004363323129985824,-0.25845351815223694,0.020018303766846657,9.804133415222168,0.0004,0.0,0.0,0.0,0.0004,0.0,0.0,0.0,0.0004
2025/05/07 10:29:53.548484588,1746606593,548211245,mti/imu_base_body,0.4058919020321607,0.9137661148514997,0.0052284323535467464,-0.015997334435299472,0.017453292519943295,0.0,0.0,0.0,0.017453292519943295,0.0,0.0,0.0,0.15707963267948966,0.008685575798153877,0.00674217427149415,-0.053460266441106796,0.0004363323129985824,0.0,0.0,0.0,0.0004363323129985824,0.0,0.0,0.0,0.0004363323129985824,-0.26123306155204773,0.01271427609026432,9.801502227783203,0.0004,0.0,0.0,0.0,0.0004,0.0,0.0,0.0,0.0004
2025/05/07 10:29:53.598578598,1746606593,598071985,mti/imu_base_body,0.4056475052431188,0.9138745037312741,0.005259802433050666,-0.015994605287935167,0.017453292519943295,0.0,0.0,0.0,0.017453292519943295,0.0,0.0,0.0,0.15707963267948966,0.0034236444626003504,0.005217830650508404,-0.057380322366952896,0.0004363323129985824,0.0,0.0,0.0,0.0004363323129985824,0.0,0.0,0.0,0.0004363323129985824,-0.2690376937389374,0.027111841365695,9.796355247497559,0.0004,0.0,0.0,0.0,0.0004,0.0,0.0,0.0,0.0004
2025/05/07 10:29:53.648684025,1746606593,648249611,mti/imu_base_body,0.4054055220865792,0.9139815065914324,0.005320836682711958,-0.01599552961172134,0.017453292519943295,0.0,0.0,0.0,0.017453292519943295,0.0,0.0,0.0,0.15707963267948966,-0.00046798179391771555,0.006589973345398903,-0.05311179533600807,0.0004363323129985824,0.0,0.0,0.0,0.0004363323129985824,0.0,0.0,0.0,0.0004363323129985824,-0.24936406314373016,-0.0015922391321510077,9.820684432983398,0.0004,0.0,0.0,0.0,0.0004,0.0,0.0,0.0,0.0004
2025/05/07 10:29:53.698466100,1746606593,697925851,mti/imu_base_body,0.4051622571409902,0.914088396582199,0.005398096513925969,-0.016025266806790752,0.017453292519943295,0.0,0.0,0.0,0.017453292519943295,0.0,0.0,0.0,0.15707963267948966,-0.0019904584623873234,0.020216936245560646,-0.054088808596134186,0.0004363323129985824,0.0,0.0,0.0,0.0004363323129985824,0.0,0.0,0.0,0.0004363323129985824,-0.2552053928375244,0.009747357107698917,9.822244644165039,0.0004,0.0,0.0,0.0,0.0004,0.0,0.0,0.0,0.0004
2025/05/07 10:29:53.749277497,1746606593,748892822,mti/imu_base_body,0.4049544224851431,0.9141798715761635,0.005459849672438298,-0.0160395809255584,0.017453292519943295,0.0,0.0,0.0,0.017453292519943295,0.0,0.0,0.0,0.15707963267948966,0.0008598716231063008,0.008149831555783749,-0.044803764671087265,0.0004363323129985824,0.0,0.0,0.0,0.0004363323129985824,0.0,0.0,0.0,0.0004363323129985824,-0.26693102717399597,0.029270274564623833,9.788907051086426,0.0004,0.0,0.0,0.0,0.0004,0.0,0.0,0.0,0.0004
2025/05/07 10:29:53.799670367,1746606593,798850291,mti/imu_base_body,0.40477149232551246,0.9142603923414007,0.005507760445629121,-0.016051123674032778,0.017453292519943295,0.0,0.0,0.0,0.017453292519943295,0.0,0.0,0.0,0.15707963267948966,0.0030326039995998144,0.008078057318925858,-0.04226633533835411,0.0004363323129985824,0.0,0.0,0.0,0.0004363323129985824,0.0,0.0,0.0,0.0004363323129985824,-0.2517147958278656,0.011582251638174057,9.78432559967041,0.0004,0.0,0.0,0.0,0.0004,0.0,0.0,0.0,0.0004
2025/05/07 10:29:53.849180849,1746606593,848767321,mti/imu_base_body,0.4045278660130663,0.9143681179270469,0.005564130586435089,-0.016037175196463468,0.017453292519943295,0.0,0.0,0.0,0.017453292519943295,0.0,0.0,0.0,0.15707963267948966,0.0029400030616670847,0.0026316901203244925,-0.050165049731731415,0.0004363323129985824,0.0,0.0,0.0,0.0004363323129985824,0.0,0.0,0.0,0.0004363323129985824,-0.26637667417526245,0.03349609300494194,9.800670623779297,0.0004,0.0,0.0,0.0,0.0004,0.0,0.0,0.0,0.0004
2025/05/07 10:29:53.898643488,1746606593,898107998,mti/imu_base_body,0.40429523979929827,0.9144708313759768,0.005588936215360557,-0.016038124271187233,0.017453292519943295,0.0,0.0,0.0,0.017453292519943295,0.0,0.0,0.0,0.15707963267948966,0.0013916883617639542,0.012027713470160961,-0.053821638226509094,0.0004363323129985824,0.0,0.0,0.0,0.0004363323129985824,0.0,0.0,0.0,0.0004363323129985824,-0.23686152696609497,0.017446598038077354,9.802908897399902,0.0004,0.0,0.0,0.0,0.0004,0.0,0.0,0.0,0.0004
2025/05/07 10:29:53.958262842,1746606593,949694810,mti/imu_base_body,0.4040707738959897,0.9145690926534917,0.005671788643278013,-0.01606285340936705,0.017453292519943295,0.0,0.0,0.0,0.017453292519943295,0.0,0.0,0.0,0.15707963267948966,0.0017432424938306212,0.015107935294508934,-0.04935898631811142,0.0004363323129985824,0.0,0.0,0.0,0.0004363323129985824,0.0,0.0,0.0,0.0004363323129985824,-0.2593258023262024,0.026533406227827072,9.80665111541748,0.0004,0.0,0.0,0.0,0.0004,0.0,0.0,0.0,0.0004
2025/05/07 10:29:54.979564,1746606594,54105,mti/imu_base_body,0.40385537303688984,0.914662904852729,0.005726975406462648,-0.016118619925281324,0.017453292519943295,0.0,0.0,0.0,0.017453292519943295,0.0,0.0,0.0,0.15707963267948966,0.004224032629281282,0.017254889011383057,-0.04703574255108833,0.0004363323129985824,0.0,0.0,0.0,0.0004363323129985824,0.0,0.0,0.0,0.0004363323129985824,-0.26613619923591614,0.03913697600364685,9.798255920410156,0.0004,0.0,0.0,0.0,0.0004,0.0,0.0,0.0,0.0004
2025/05/07 10:29:54.50846980,1746606594,48640153,mti/imu_base_body,0.4036761457381718,0.9147409536786703,0.005743430120049563,-0.016173126953905527,0.017453292519943295,0.0,0.0,0.0,0.017453292519943295,0.0,0.0,0.0,0.15707963267948966,0.012424128130078316,0.012507433071732521,-0.04246334359049797,0.0004363323129985824,0.0,0.0,0.0,0.0004363323129985824,0.0,0.0,0.0,0.0004363323129985824,-0.2719966471195221,0.04307892918586731,9.79910659790039,0.0004,0.0,0.0,0.0,0.0004,0.0,0.0,0.0,0.0004
2025/05/07 10:29:54.98020171,1746606594,97770464,mti/imu_base_body,0.4034621698520398,0.9148345957246724,0.005771128631917977,-0.01620598771667253,0.017453292519943295,0.0,0.0,0.0,0.017453292519943295,0.0,0.0,0.0,0.15707963267948966,0.005524979904294014,0.016613928601145744,-0.04582426697015762,0.0004363323129985824,0.0,0.0,0.0,0.0004363323129985824,0.0,0.0,0.0,0.0004363323129985824,-0.2584682106971741,0.04745929315686226,9.820215225219727,0.0004,0.0,0.0,0.0,0.0004,0.0,0.0,0.0,0.0004
2025/05/07 10:29:54.148956100,1746606594,148135223,mti/imu_base_body,0.4032436574287276,0.9149303740545348,0.0058145794322950976,-0.01622202336200227,0.017453292519943295,0.0,0.0,0.0,0.017453292519943295,0.0,0.0,0.0,0.15707963267948966,0.005269131623208523,0.006990974303334951,-0.048404570668935776,0.0004363323129985824,0.0,0.0,0.0,0.0004363323129985824,0.0,0.0,0.0,0.0004363323129985824,-0.2655855417251587,0.043546270579099655,9.787467002868652,0.0004,0.0,0.0,0.0,0.0004,0.0,0.0,0.0,0.0004
2025/05/07 10:29:54.200110774,1746606594,199270624,mti/imu_base_body,0.4030491509755585,0.9150152984917754,0.005893796576667013,-0.01623725918378706,0.017453292519943295,0.0,0.0,0.0,0.017453292519943295,0.0,0.0,0.0,0.15707963267948966,-0.001048353617079556,0.008361214771866798,-0.04757941886782646,0.0004363323129985824,0.0,0.0,0.0,0.0004363323129985824,0.0,0.0,0.0,0.0004363323129985824,-0.29974979162216187,0.062280766665935516,9.78185749053955,0.0004,0.0,0.0,0.0,0.0004,0.0,0.0,0.0,0.0004
2025/05/07 10:29:54.249451801,1746606594,248661923,mti/imu_base_body,0.4028140383507151,0.9151187568281682,0.005930824769018034,-0.016227653139491094,0.017453292519943295,0.0,0.0,0.0,0.017453292519943295,0.0,0.0,0.0,0.15707963267948966,-0.0013094034511595964,0.007080089300870895,-0.05262822285294533,0.0004363323129985824,0.0,0.0,0.0,0.0004363323129985824,0.0,0.0,0.0,0.0004363323129985824,-0.2918958067893982,0.05396148934960365,9.802617073059082,0.0004,0.0,0.0,0.0,0.0004,0.0,0.0,0.0,0.0004
2025/05/07 10:29:54.298624411,1746606594,298025360,mti/imu_base_body,0.40260578688870646,0.9152096364675566,0.005944913490094387,-0.01626529078263402,0.017453292519943295,0.0,0.0,0.0,0.017453292519943295,0.0,0.0,0.0,0.15707963267948966,0.012647964991629124,0.013993930071592331,-0.04557468369603157,0.0004363323129985824,0.0,0.0,0.0,0.0004363323129985824,0.0,0.0,0.0,0.0004363323129985824,-0.29577571153640747,0.057020287960767746,9.807900428771973,0.0004,0.0,0.0,0.0,0.0004,0.0,0.0,0.0,0.0004
2025/05/07 10:29:54.349249470,1746606594,347986216,mti/imu_base_body,0.4023643762338435,0.9153149097692699,0.006033847616948067,-0.01628242534017524,0.017453292519943295,0.0,0.0,0.0,0.017453292519943295,0.0,0.0,0.0,0.15707963267948966,-0.0038533639162778854,0.008339553140103817,-0.05459555611014366,0.0004363323129985824,0.0,0.0,0.0,0.0004363323129985824,0.0,0.0,0.0,0.0004363323129985824,-0.27091550827026367,0.06328296661376953,9.808711051940918,0.0004,0.0,0.0,0.0,0.0004,0.0,0.0,0.0,0.0004
2025/05/07 10:29:54.402059619,1746606594,398223450,mti/imu_base_body,0.4021411734380419,0.9154131019579433,0.006048766116561275,-0.016270888668961914,0.017453292519943295,0.0,0.0,0.0,0.017453292519943295,0.0,0.0,0.0,0.15707963267948966,0.006879908032715321,0.007137149106711149,-0.04776904731988907,0.0004363323129985824,0.0,0.0,0.0,0.0004363323129985824,0.0,0.0,0.0,0.0004363323129985824,-0.2824482023715973,0.0775710791349411,9.803811073303223,0.0004,0.0,0.0,0.0,0.0004,0.0,0.0,0.0,0.0004
2025/05/07 10:29:54.449084703,1746606594,448264497,mti/imu_base_body,0.40193660131462244,0.9155017646056722,0.006110400109398508,-0.016314120817675276,0.017453292519943295,0.0,0.0,0.0,0.017453292519943295,0.0,0.0,0.0,0.15707963267948966,0.002345680259168148,0.01450386643409729,-0.04000792279839516,0.0004363323129985824,0.0,0.0,0.0,0.0004363323129985824,0.0,0.0,0.0,0.0004363323129985824,-0.28933215141296387,0.09489782899618149,9.795400619506836,0.0004,0.0,0.0,0.0,0.0004,0.0,0.0,0.0,0.0004
2025/05/07 10:29:54.499572493,1746606594,498723047,mti/imu_base_body,0.40175119043223556,0.915582645447657,0.006152356957378122,-0.01632632368969324,0.017453292519943295,0.0,0.0,0.0,0.017453292519943295,0.0,0.0,0.0,0.15707963267948966,0.005719041917473078,0.009267039597034454,-0.04715521261096001,0.0004363323129985824,0.0,0.0,0.0,0.0004363323129985824,0.0,0.0,0.0,0.0004363323129985824,-0.27591654658317566,0.08912892639636993,9.8017578125,0.0004,0.0,0.0,0.0,0.0004,0.0,0.0,0.0,0.0004
2025/05/07 10:29:54.548469169,1746606594,547943670,mti/imu_base_body,0.4015379445478024,0.9156750343012139,0.006172000880926629,-0.016383438311969832,0.017453292519943295,0.0,0.0,0.0,0.017453292519943295,0.0,0.0,0.0,0.15707963267948966,0.009305504150688648,0.015361955389380455,-0.051915451884269714,0.0004363323129985824,0.0,0.0,0.0,0.0004363323129985824,0.0,0.0,0.0,0.0004363323129985824,-0.2659795880317688,0.08653076738119125,9.789372444152832,0.0004,0.0,0.0,0.0,0.0004,0.0,0.0,0.0,0.0004
2025/05/07 10:29:54.605162205,1746606594,601073880,mti/imu_base_body,0.40130998625203307,0.9157742449886441,0.006207570386496748,-0.016410155994639138,0.017453292519943295,0.0,0.0,0.0,0.017453292519943295,0.0,0.0,0.0,0.15707963267948966,0.00666793854907155,0.014275077730417252,-0.04648421332240105,0.0004363323129985824,0.0,0.0,0.0,0.0004363323129985824,0.0,0.0,0.0,0.0004363323129985824,-0.25870251655578613,0.07711634784936905,9.787814140319824,0.0004,0.0,0.0,0.0,0.0004,0.0,0.0,0.0,0.0004
2025/05/07 10:29:54.651180819,1746606594,650779697,mti/imu_base_body,0.4010862545565616,0.9158713777218979,0.006240285846892823,-0.016446723325044002,0.017453292519943295,0.0,0.0,0.0,0.017453292519943295,0.0,0.0,0.0,0.15707963267948966,0.009502435103058815,0.00926399789750576,-0.04887954518198967,0.0004363323129985824,0.0,0.0,0.0,0.0004363323129985824,0.0,0.0,0.0,0.0004363323129985824,-0.24940358102321625,0.09839554876089096,9.79825210571289,0.0004,0.0,0.0,0.0,0.0004,0.0,0.0,0.0,0.0004
2025/05/07 10:29:54.702194714,1746606594,699052742,mti/imu_base_body,0.4008919404415844,0.9159556526475187,0.006245829338048769,-0.016488908026885123,0.017453292519943295,0.0,0.0,0.0,0.017453292519943295,0.0,0.0,0.0,0.15707963267948966,0.015398750081658363,0.009967724792659283,-0.042388319969177246,0.0004363323129985824,0.0,0.0,0.0,0.0004363323129985824,0.0,0.0,0.0,0.0004363323129985824,-0.23266875743865967,0.09675627201795578,9.811062812805176,0.0004,0.0,0.0,0.0,0.0004,0.0,0.0,0.0,0.0004
2025/05/07 10:29:54.750193516,1746606594,749560573,mti/imu_base_body,0.40069930281637894,0.9160391550310862,0.006259006293256585,-0.016527553134753126,0.017453292519943295,0.0,0.0,0.0,0.017453292519943295,0.0,0.0,0.0,0.15707963267948966,0.007223589811474085,0.015826549381017685,-0.0445302352309227,0.0004363323129985824,0.0,0.0,0.0,0.0004363323129985824,0.0,0.0,0.0,0.0004363323129985824,-0.2417202740907669,0.10135003924369812,9.814555168151855,0.0004,0.0,0.0,0.0,0.0004,0.0,0.0,0.0,0.0004
2025/05/07 10:29:54.798948050,1746606594,798512473,mti/imu_base_body,0.40048924009144865,0.9161297528013965,0.0062985037813176855,-0.016582323514603224,0.017453292519943295,0.0,0.0,0.0,0.017453292519943295,0.0,0.0,0.0,0.15707963267948966,0.005336975213140249,0.015833444893360138,-0.044113654643297195,0.0004363323129985824,0.0,0.0,0.0,0.0004363323129985824,0.0,0.0,0.0,0.0004363323129985824,-0.23727263510227203,0.09960171580314636,9.77133846282959,0.0004,0.0,0.0,0.0,0.0004,0.0,0.0,0.0,0.0004
2025/05/07 10:29:54.848364147,1746606594,848026793,mti/imu_base_body,0.40025803454188413,0.9162309944013328,0.0063210335046261085,-0.01656246414172438,0.017453292519943295,0.0,0.0,0.0,0.017453292519943295,0.0,0.0,0.0,0.15707963267948966,0.002941704588010907,0.0005710700643248856,-0.05222458392381668,0.0004363323129985824,0.0,0.0,0.0,0.0004363323129985824,0.0,0.0,0.0,0.0004363323129985824,-0.2136985957622528,0.1179642304778099,9.810465812683105,0.0004,0.0,0.0,0.0,0.0004,0.0,0.0,0.0,0.0004
2025/05/07 10:29:54.898921414,1746606594,898551506,mti/imu_base_body,0.40006475482646225,0.9163150754342244,0.006334610052270856,-0.016575499784318274,0.017453292519943295,0.0,0.0,0.0,0.017453292519943295,0.0,0.0,0.0,0.15707963267948966,0.013231437653303146,0.00565608823671937,-0.04776069521903992,0.0004363323129985824,0.0,0.0,0.0,0.0004363323129985824,0.0,0.0,0.0,0.0004363323129985824,-0.2094213217496872,0.12056142836809158,9.81261157989502,0.0004,0.0,0.0,0.0,0.0004,0.0,0.0,0.0,0.0004
2025/05/07 10:29:54.948878782,1746606594,947982561,mti/imu_base_body,0.39985147727397796,0.9164082737705103,0.006353130488919423,-0.01656229512360901,0.017453292519943295,0.0,0.0,0.0,0.017453292519943295,0.0,0.0,0.0,0.15707963267948966,0.000390961387893185,0.003990584053099155,-0.042944133281707764,0.0004363323129985824,0.0,0.0,0.0,0.0004363323129985824,0.0,0.0,0.0,0.0004363323129985824,-0.21782563626766205,0.10576477646827698,9.792576789855957,0.0004,0.0,0.0,0.0,0.0004,0.0,0.0,0.0,0.0004
2025/05/07 10:29:54.998335846,1746606594,997830026,mti/imu_base_body,0.3996534268212147,0.9164941753171345,0.006397786444869742,-0.016572065907167696,0.017453292519943295,0.0,0.0,0.0,0.017453292519943295,0.0,0.0,0.0,0.15707963267948966,0.010193639434874058,0.006960566155612469,-0.04524395987391472,0.0004363323129985824,0.0,0.0,0.0,0.0004363323129985824,0.0,0.0,0.0,0.0004363323129985824,-0.2338791936635971,0.093687042593956,9.790667533874512,0.0004,0.0,0.0,0.0,0.0004,0.0,0.0,0.0,0.0004
2025/05/07 10:29:55.48084972,1746606595,47792056,mti/imu_base_body,0.39944348936349,0.9165858886455107,0.006368466944168522,-0.016572572818359655,0.017453292519943295,0.0,0.0,0.0,0.017453292519943295,0.0,0.0,0.0,0.15707963267948966,0.013749429024755955,0.0008876253268681467,-0.044789865612983704,0.0004363323129985824,0.0,0.0,0.0,0.0004363323129985824,0.0,0.0,0.0,0.0004363323129985824,-0.24619434773921967,0.10404578596353531,9.799809455871582,0.0004,0.0,0.0,0.0,0.0004,0.0,0.0,0.0,0.0004
2025/05/07 10:29:55.98027574,1746606595,97770647,mti/imu_base_body,0.39924455149189214,0.9166721566297733,0.006372800066012855,-0.016593154705394006,0.017453292519943295,0.0,0.0,0.0,0.017453292519943295,0.0,0.0,0.0,0.15707963267948966,0.01629687286913395,0.0083365049213171,-0.04518299922347069,0.0004363323129985824,0.0,0.0,0.0,0.0004363323129985824,0.0,0.0,0.0,0.0004363323129985824,-0.22018200159072876,0.09408833831548691,9.811538696289062,0.0004,0.0,0.0,0.0,0.0004,0.0,0.0,0.0,0.0004
2025/05/07 10:29:55.169912561,1746606595,148057056,mti/imu_base_body,0.39903476188603243,0.9167635380468035,0.006329564004281263,-0.016607550511140507,0.017453292519943295,0.0,0.0,0.0,0.017453292519943295,0.0,0.0,0.0,0.15707963267948966,0.021054398268461227,0.006528093945235014,-0.04641672596335411,0.0004363323129985824,0.0,0.0,0.0,0.0004363323129985824,0.0,0.0,0.0,0.0004363323129985824,-0.2263425886631012,0.08490677922964096,9.797865867614746,0.0004,0.0,0.0,0.0,0.0004,0.0,0.0,0.0,0.0004
2025/05/07 10:29:55.200094549,1746606595,198270656,mti/imu_base_body,0.3988425020492541,0.9168460334235153,0.006286903024172106,-0.01668785201940334,0.017453292519943295,0.0,0.0,0.0,0.017453292519943295,0.0,0.0,0.0,0.15707963267948966,0.023132208734750748,0.009788828901946545,-0.04283673316240311,0.0004363323129985824,0.0,0.0,0.0,0.0004363323129985824,0.0,0.0,0.0,0.0004363323129985824,-0.250903457403183,0.07904116809368134,9.8031587600708,0.0004,0.0,0.0,0.0,0.0004,0.0,0.0,0.0,0.0004
2025/05/07 10:29:55.249808240,1746606595,248115772,mti/imu_base_body,0.3986255721140246,0.9169408107749459,0.0062299713789849805,-0.016685030679269713,0.017453292519943295,0.0,0.0,0.0,0.017453292519943295,0.0,0.0,0.0,0.15707963267948966,0.01619344763457775,-0.000812116137240082,-0.05123802274465561,0.0004363323129985824,0.0,0.0,0.0,0.0004363323129985824,0.0,0.0,0.0,0.0004363323129985824,-0.2591887414455414,0.06857126206159592,9.79082202911377,0.0004,0.0,0.0,0.0,0.0004,0.0,0.0,0.0,0.0004
2025/05/07 10:29:55.299260082,1746606595,298078309,mti/imu_base_body,0.3984106176466036,0.9170346283490798,0.00622131035604539,-0.01666629690635387,0.017453292519943295,0.0,0.0,0.0,0.017453292519943295,0.0,0.0,0.0,0.15707963267948966,0.013217969797551632,-0.0011267107911407948,-0.04196832701563835,0.0004363323129985824,0.0,0.0,0.0,0.0004363323129985824,0.0,0.0,0.0,0.0004363323129985824,-0.2617773413658142,0.07988744974136353,9.816036224365234,0.0004,0.0,0.0,0.0,0.0004,0.0,0.0,0.0,0.0004
2025/05/07 10:29:55.370634294,1746606595,348505839,mti/imu_base_body,0.398222979657375,0.917115726013368,0.006208767369379745,-0.0166929559853098,0.017453292519943295,0.0,0.0,0.0,0.017453292519943295,0.0,0.0,0.0,0.15707963267948966,0.015712616965174675,0.008154572919011116,-0.043697990477085114,0.0004363323129985824,0.0,0.0,0.0,0.0004363323129985824,0.0,0.0,0.0,0.0004363323129985824,-0.23826080560684204,0.09380731731653214,9.808914184570312,0.0004,0.0,0.0,0.0,0.0004,0.0,0.0,0.0,0.0004
2025/05/07 10:29:55.398444808,1746606595,398018548,mti/imu_base_body,0.3979801852727518,0.9172213515948586,0.006184758018362812,-0.016688711065293127,0.017453292519943295,0.0,0.0,0.0,0.017453292519943295,0.0,0.0,0.0,0.15707963267948966,0.013265824876725674,0.0004658218822441995,-0.05320652201771736,0.0004363323129985824,0.0,0.0,0.0,0.0004363323129985824,0.0,0.0,0.0,0.0004363323129985824,-0.2528996169567108,0.08188311010599136,9.803062438964844,0.0004,0.0,0.0,0.0,0.0004,0.0,0.0,0.0,0.0004
2025/05/07 10:29:55.448744925,1746606595,448115504,mti/imu_base_body,0.3977539269557997,0.9173194843815102,0.006137391312431616,-0.01670657335178305,0.017453292519943295,0.0,0.0,0.0,0.017453292519943295,0.0,0.0,0.0,0.15707963267948966,0.0199634600430727,0.0021561153698712587,-0.05170314759016037,0.0004363323129985824,0.0,0.0,0.0,0.0004363323129985824,0.0,0.0,0.0,0.0004363323129985824,-0.27468615770339966,0.0689743235707283,9.764786720275879,0.0004,0.0,0.0,0.0,0.0004,0.0,0.0,0.0,0.0004
2025/05/07 10:29:55.498613213,1746606595,498198494,mti/imu_base_body,0.3975430826380449,0.9174110091835881,0.006109754125630705,-0.01670953559843608,0.017453292519943295,0.0,0.0,0.0,0.017453292519943295,0.0,0.0,0.0,0.15707963267948966,0.018077915534377098,0.0037472681142389774,-0.04380585625767708,0.0004363323129985824,0.0,0.0,0.0,0.0004363323129985824,0.0,0.0,0.0,0.0004363323129985824,-0.24916310608386993,0.07275725901126862,9.82190227508545,0.0004,0.0,0.0,0.0,0.0004,0.0,0.0,0.0,0.0004
2025/05/07 10:29:55.548607840,1746606595,548227060,mti/imu_base_body,0.3973147725013089,0.9175096692713323,0.006062637650191653,-0.016739855751050678,0.017453292519943295,0.0,0.0,0.0,0.017453292519943295,0.0,0.0,0.0,0.15707963267948966,0.022132718935608864,0.0017434137407690287,-0.05070348083972931,0.0004363323129985824,0.0,0.0,0.0,0.0004363323129985824,0.0,0.0,0.0,0.0004363323129985824,-0.24657274782657623,0.08586547523736954,9.810486793518066,0.0004,0.0,0.0,0.0,0.0004,0.0,0.0,0.0,0.0004
2025/05/07 10:29:55.599265737,1746606595,598846069,mti/imu_base_body,0.3970965095416823,0.9176038140668352,0.006019642820741456,-0.01677398044949592,0.017453292519943295,0.0,0.0,0.0,0.017453292519943295,0.0,0.0,0.0,0.15707963267948966,0.019373487681150436,0.010008702985942364,-0.0525655522942543,0.0004363323129985824,0.0,0.0,0.0,0.0004363323129985824,0.0,0.0,0.0,0.0004363323129985824,-0.2775322198867798,0.05971987172961235,9.787469863891602,0.0004,0.0,0.0,0.0,0.0004,0.0,0.0,0.0,0.0004
2025/05/07 10:29:55.648421251,1746606595,648082089,mti/imu_base_body,0.39687199349859076,0.9177007673362318,0.005960291640432727,-0.016804681803193628,0.017453292519943295,0.0,0.0,0.0,0.017453292519943295,0.0,0.0,0.0,0.15707963267948966,0.023292802274227142,0.003909514285624027,-0.04957280680537224,0.0004363323129985824,0.0,0.0,0.0,0.0004363323129985824,0.0,0.0,0.0,0.0004363323129985824,-0.27267545461654663,0.0638948380947113,9.809197425842285,0.0004,0.0,0.0,0.0,0.0004,0.0,0.0,0.0,0.0004
2025/05/07 10:29:55.699545921,1746606595,698205323,mti/imu_base_body,0.3966687894521579,0.9177891081772289,0.005957227513030689,-0.01677902935703865,0.017453292519943295,0.0,0.0,0.0,0.017453292519943295,0.0,0.0,0.0,0.15707963267948966,0.010871774516999722,-0.00046707334695383906,-0.03975943103432655,0.0004363323129985824,0.0,0.0,0.0,0.0004363323129985824,0.0,0.0,0.0,0.0004363323129985824,-0.25147929787635803,0.07943397015333176,9.822150230407715,0.0004,0.0,0.0,0.0,0.0004,0.0,0.0,0.0,0.0004
2025/05/07 10:29:55.771536222,1746606595,748153102,mti/imu_base_body,0.3964808189871236,0.9178707171764393,0.00591118325818505,-0.016773927321792014,0.017453292519943295,0.0,0.0,0.0,0.017453292519943295,0.0,0.0,0.0,0.15707963267948966,0.02070983685553074,-0.004378896206617355,-0.04077232629060745,0.0004363323129985824,0.0,0.0,0.0,0.0004363323129985824,0.0,0.0,0.0,0.0004363323129985824,-0.235864520072937,0.08075492084026337,9.811928749084473,0.0004,0.0,0.0,0.0,0.0004,0.0,0.0,0.0,0.0004
2025/05/07 10:29:55.802062864,1746606595,798016697,mti/imu_base_body,0.3963000038923391,0.9179494183271296,0.005902529974444887,-0.01674313135937386,0.017453292519943295,0.0,0.0,0.0,0.017453292519943295,0.0,0.0,0.0,0.15707963267948966,0.007094201166182756,7.053102308418602e-05,-0.039523895829916,0.0004363323129985824,0.0,0.0,0.0,0.0004363323129985824,0.0,0.0,0.0,0.0004363323129985824,-0.2600186765193939,0.06321685761213303,9.795870780944824,0.0004,0.0,0.0,0.0,0.0004,0.0,0.0,0.0,0.0004
2025/05/07 10:29:55.848642293,1746606595,848300679,mti/imu_base_body,0.39611458135616423,0.918029553796962,0.005877184088867688,-0.016746208513188043,0.017453292519943295,0.0,0.0,0.0,0.017453292519943295,0.0,0.0,0.0,0.15707963267948966,0.014886673539876938,-0.003478455822914839,-0.04236825183033943,0.0004363323129985824,0.0,0.0,0.0,0.0004363323129985824,0.0,0.0,0.0,0.0004363323129985824,-0.27797311544418335,0.07029358297586441,9.766239166259766,0.0004,0.0,0.0,0.0,0.0004,0.0,0.0,0.0,0.0004
2025/05/07 10:29:55.899168969,1746606595,898136279,mti/imu_base_body,0.3959255721303505,0.9181111522183969,0.005832381223844525,-0.01675818709532742,0.017453292519943295,0.0,0.0,0.0,0.017453292519943295,0.0,0.0,0.0,0.15707963267948966,0.017881501466035843,0.0062297252006828785,-0.04784131795167923,0.0004363323129985824,0.0,0.0,0.0,0.0004363323129985824,0.0,0.0,0.0,0.0004363323129985824,-0.24953533709049225,0.09243957698345184,9.82632827758789,0.0004,0.0,0.0,0.0,0.0004,0.0,0.0,0.0,0.0004
2025/05/07 10:29:55.977469502,1746606595,947934725,mti/imu_base_body,0.39572071226791994,0.918199443395619,0.0058128858265516095,-0.016766346904225887,0.017453292519943295,0.0,0.0,0.0,0.017453292519943295,0.0,0.0,0.0,0.15707963267948966,0.018699677661061287,0.0016617628280073404,-0.04654739797115326,0.0004363323129985824,0.0,0.0,0.0,0.0004363323129985824,0.0,0.0,0.0,0.0004363323129985824,-0.22854188084602356,0.074696846306324,9.838440895080566,0.0004,0.0,0.0,0.0,0.0004,0.0,0.0,0.0,0.0004
2025/05/07 10:29:56.29568264,1746606595,998071045,mti/imu_base_body,0.3954990121525659,0.9182958097818801,0.005758063506772759,-0.01673863280071905,0.017453292519943295,0.0,0.0,0.0,0.017453292519943295,0.0,0.0,0.0,0.15707963267948966,0.015321832150220871,-0.007730210665613413,-0.04656880348920822,0.0004363323129985824,0.0,0.0,0.0,0.0004363323129985824,0.0,0.0,0.0,0.0004363323129985824,-0.28039929270744324,0.059356749057769775,9.752808570861816,0.0004,0.0,0.0,0.0,0.0004,0.0,0.0,0.0,0.0004
2025/05/07 10:29:56.51430080,1746606596,48271540,mti/imu_base_body,0.3952492620425557,0.91840465589802,0.005679522899154222,-0.016692869714110367,0.017453292519943295,0.0,0.0,0.0,0.017453292519943295,0.0,0.0,0.0,0.15707963267948966,0.02189970202744007,-0.0038699002470821142,-0.05398376286029816,0.0004363323129985824,0.0,0.0,0.0,0.0004363323129985824,0.0,0.0,0.0,0.0004363323129985824,-0.2894424498081207,0.07166177034378052,9.810436248779297,0.0004,0.0,0.0,0.0,0.0004,0.0,0.0,0.0,0.0004
2025/05/07 10:29:56.98902317,1746606596,98258756,mti/imu_base_body,0.39501518442001354,0.9185049736147162,0.0056751835832723535,-0.016715556046638644,0.017453292519943295,0.0,0.0,0.0,0.017453292519943295,0.0,0.0,0.0,0.15707963267948966,0.011903400532901287,0.006456448696553707,-0.05336158350110054,0.0004363323129985824,0.0,0.0,0.0,0.0004363323129985824,0.0,0.0,0.0,0.0004363323129985824,-0.22516222298145294,0.09430193156003952,9.862564086914062,0.0004,0.0,0.0,0.0,0.0004,0.0,0.0,0.0,0.0004
2025/05/07 10:29:56.148395580,1746606596,148067860,mti/imu_base_body,0.3947852057561848,0.9186040014552176,0.005649332457149771,-0.016715707262871922,0.017453292519943295,0.0,0.0,0.0,0.017453292519943295,0.0,0.0,0.0,0.15707963267948966,0.016324954107403755,-0.0030187517404556274,-0.04877821356058121,0.0004363323129985824,0.0,0.0,0.0,0.0004363323129985824,0.0,0.0,0.0,0.0004363323129985824,-0.24697154760360718,0.0920843854546547,9.800893783569336,0.0004,0.0,0.0,0.0,0.0004,0.0,0.0,0.0,0.0004
2025/05/07 10:29:56.222851239,1746606596,197913511,mti/imu_base_body,0.39456839575730807,0.9186973172785022,0.005605737174804613,-0.016721124529003262,0.017453292519943295,0.0,0.0,0.0,0.017453292519943295,0.0,0.0,0.0,0.15707963267948966,0.017976248636841774,0.0026997216045856476,-0.04650810733437538,0.0004363323129985824,0.0,0.0,0.0,0.0004363323129985824,0.0,0.0,0.0,0.0004363323129985824,-0.2620307207107544,0.03392036259174347,9.756972312927246,0.0004,0.0,0.0,0.0,0.0004,0.0,0.0,0.0,0.0004
2025/05/07 10:29:56.275847003,1746606596,247786934,mti/imu_base_body,0.3943433821725653,0.9187947548395692,0.0055429965510878036,-0.016696424923701964,0.017453292519943295,0.0,0.0,0.0,0.017453292519943295,0.0,0.0,0.0,0.15707963267948966,0.020319027826189995,-0.008845088072121143,-0.050300635397434235,0.0004363323129985824,0.0,0.0,0.0,0.0004363323129985824,0.0,0.0,0.0,0.0004363323129985824,-0.2731044590473175,0.04959901049733162,9.767206192016602,0.0004,0.0,0.0,0.0,0.0004,0.0,0.0,0.0,0.0004
2025/05/07 10:29:56.298322951,1746606596,297927624,mti/imu_base_body,0.3941422662541909,0.9188818613037502,0.0054847977063999616,-0.016670810210843084,0.017453292519943295,0.0,0.0,0.0,0.017453292519943295,0.0,0.0,0.0,0.15707963267948966,0.01814725063741207,-0.005731639452278614,-0.045434970408678055,0.0004363323129985824,0.0,0.0,0.0,0.0004363323129985824,0.0,0.0,0.0,0.0004363323129985824,-0.2232079654932022,0.09870963543653488,9.846600532531738,0.0004,0.0,0.0,0.0,0.0004,0.0,0.0,0.0,0.0004
2025/05/07 10:29:56.351041871,1746606596,349301297,mti/imu_base_body,0.3939056871131547,0.9189838966172224,0.005433110997607739,-0.01665499093446878,0.017453292519943295,0.0,0.0,0.0,0.017453292519943295,0.0,0.0,0.0,0.15707963267948966,0.020065972581505775,0.001531902700662613,-0.055736102163791656,0.0004363323129985824,0.0,0.0,0.0,0.0004363323129985824,0.0,0.0,0.0,0.0004363323129985824,-0.2405826449394226,0.07953500002622604,9.805089950561523,0.0004,0.0,0.0,0.0,0.0004,0.0,0.0,0.0,0.0004
2025/05/07 10:29:56.400156047,1746606596,398997658,mti/imu_base_body,0.39370467669896103,0.9190702221072306,0.005385028299772166,-0.016660007543302328,0.017453292519943295,0.0,0.0,0.0,0.017453292519943295,0.0,0.0,0.0,0.15707963267948966,0.02399979904294014,-0.002398878103122115,-0.03941435366868973,0.0004363323129985824,0.0,0.0,0.0,0.0004363323129985824,0.0,0.0,0.0,0.0004363323129985824,-0.270435631275177,0.06014830991625786,9.759987831115723,0.0004,0.0,0.0,0.0,0.0004,0.0,0.0,0.0,0.0004
2025/05/07 10:29:56.448741855,1746606596,448234376,mti/imu_base_body,0.39346205019645064,0.919174536569236,0.005328224124812679,-0.016655221571982723,0.017453292519943295,0.0,0.0,0.0,0.017453292519943295,0.0,0.0,0.0,0.15707963267948966,0.01903613656759262,-0.002107268199324608,-0.05508481338620186,0.0004363323129985824,0.0,0.0,0.0,0.0004363323129985824,0.0,0.0,0.0,0.0004363323129985824,-0.2626686990261078,0.0650448203086853,9.808239936828613,0.0004,0.0,0.0,0.0,0.0004,0.0,0.0,0.0,0.0004
2025/05/07 10:29:56.499363363,1746606596,498179043,mti/imu_base_body,0.3932393400294143,0.9192702061662019,0.005271560793388466,-0.01665293232979291,0.017453292519943295,0.0,0.0,0.0,0.017453292519943295,0.0,0.0,0.0,0.15707963267948966,0.01779153198003769,-0.003829403081908822,-0.04978504031896591,0.0004363323129985824,0.0,0.0,0.0,0.0004363323129985824,0.0,0.0,0.0,0.0004363323129985824,-0.23692259192466736,0.0867467075586319,9.858139991760254,0.0004,0.0,0.0,0.0,0.0004,0.0,0.0,0.0,0.0004
2025/05/07 10:29:56.548340432,1746606596,547936004,mti/imu_base_body,0.3930334368979082,0.9193592036016403,0.0052150630994588715,-0.016618524304045076,0.017453292519943295,0.0,0.0,0.0,0.017453292519943295,0.0,0.0,0.0,0.15707963267948966,0.020260997116565704,-0.0049049886874854565,-0.04042616859078407,0.0004363323129985824,0.0,0.0,0.0,0.0004363323129985824,0.0,0.0,0.0,0.0004363323129985824,-0.2501640021800995,0.07899300009012222,9.79658031463623,0.0004,0.0,0.0,0.0,0.0004,0.0,0.0,0.0,0.0004
2025/05/07 10:29:56.598779283,1746606596,598152341,mti/imu_base_body,0.392871528865118,0.9194284731254413,0.005175215404129908,-0.016627139228537244,0.017453292519943295,0.0,0.0,0.0,0.017453292519943295,0.0,0.0,0.0,0.15707963267948966,0.02213452197611332,0.004064703360199928,-0.040475260466337204,0.0004363323129985824,0.0,0.0,0.0,0.0004363323129985824,0.0,0.0,0.0,0.0004363323129985824,-0.279675155878067,0.07858151197433472,9.73586654663086,0.0004,0.0,0.0,0.0,0.0004,0.0,0.0,0.0,0.0004
2025/05/07 10:29:56.648588460,1746606596,648034321,mti/imu_base_body,0.3926656640394561,0.9195169959233473,0.005070981425527094,-0.016626955221491903,0.017453292519943295,0.0,0.0,0.0,0.017453292519943295,0.0,0.0,0.0,0.15707963267948966,0.02532925270497799,-0.008433752693235874,-0.04433853179216385,0.0004363323129985824,0.0,0.0,0.0,0.0004363323129985824,0.0,0.0,0.0,0.0004363323129985824,-0.24732467532157898,0.07614671438932419,9.816264152526855,0.0004,0.0,0.0,0.0,0.0004,0.0,0.0,0.0,0.0004
2025/05/07 10:29:56.698637922,1746606596,698095998,mti/imu_base_body,0.39242161670025405,0.9196215069750799,0.004995375397242349,-0.016631442507568105,0.017453292519943295,0.0,0.0,0.0,0.017453292519943295,0.0,0.0,0.0,0.15707963267948966,0.022305477410554886,-0.0005506071611307561,-0.055164702236652374,0.0004363323129985824,0.0,0.0,0.0,0.0004363323129985824,0.0,0.0,0.0,0.0004363323129985824,-0.21746490895748138,0.08519794791936874,9.872516632080078,0.0004,0.0,0.0,0.0,0.0004,0.0,0.0,0.0,0.0004
2025/05/07 10:29:56.748390442,1746606596,747960981,mti/imu_base_body,0.3921969575156209,0.9197172133223045,0.004950273956017893,-0.01665199152970271,0.017453292519943295,0.0,0.0,0.0,0.017453292519943295,0.0,0.0,0.0,0.15707963267948966,0.021534640341997147,0.009215272031724453,-0.048978861421346664,0.0004363323129985824,0.0,0.0,0.0,0.0004363323129985824,0.0,0.0,0.0,0.0004363323129985824,-0.24360400438308716,0.07199948281049728,9.793076515197754,0.0004,0.0,0.0,0.0,0.0004,0.0,0.0,0.0,0.0004
2025/05/07 10:29:56.800730235,1746606596,799294713,mti/imu_base_body,0.39195482417404426,0.9198208471859717,0.004902609762838031,-0.016642995712576013,0.017453292519943295,0.0,0.0,0.0,0.017453292519943295,0.0,0.0,0.0,0.15707963267948966,0.02018195018172264,-0.00880799163132906,-0.052353449165821075,0.0004363323129985824,0.0,0.0,0.0,0.0004363323129985824,0.0,0.0,0.0,0.0004363323129985824,-0.2592940032482147,0.06534243375062943,9.738974571228027,0.0004,0.0,0.0,0.0,0.0004,0.0,0.0,0.0,0.0004
2025/05/07 10:29:56.848422363,1746606596,848116785,mti/imu_base_body,0.391715556029427,0.9199238476362639,0.004853256965522306,-0.01659769898134303,0.017453292519943295,0.0,0.0,0.0,0.017453292519943295,0.0,0.0,0.0,0.15707963267948966,0.01811472326517105,-0.007037416100502014,-0.05641481652855873,0.0004363323129985824,0.0,0.0,0.0,0.0004363323129985824,0.0,0.0,0.0,0.0004363323129985824,-0.25985628366470337,0.08886847645044327,9.818798065185547,0.0004,0.0,0.0,0.0,0.0004,0.0,0.0,0.0,0.0004
2025/05/07 10:29:56.898511763,1746606596,898076786,mti/imu_base_body,0.3914794178077528,0.9200245834307479,0.004804716203964136,-0.016599578855530206,0.017453292519943295,0.0,0.0,0.0,0.017453292519943295,0.0,0.0,0.0,0.15707963267948966,0.017897071316838264,0.0031342385336756706,-0.05119864270091057,0.0004363323129985824,0.0,0.0,0.0,0.0004363323129985824,0.0,0.0,0.0,0.0004363323129985824,-0.24632839858531952,0.08440200239419937,9.843982696533203,0.0004,0.0,0.0,0.0,0.0004,0.0,0.0,0.0,0.0004
2025/05/07 10:29:56.948716305,1746606596,948245406,mti/imu_base_body,0.3912343003836631,0.9201284403131473,0.00475220669132355,-0.016637068905411164,0.017453292519943295,0.0,0.0,0.0,0.017453292519943295,0.0,0.0,0.0,0.15707963267948966,0.021835997700691223,0.005317817907780409,-0.050009723752737045,0.0004363323129985824,0.0,0.0,0.0,0.0004363323129985824,0.0,0.0,0.0,0.0004363323129985824,-0.23321633040905,0.06848807632923126,9.800034523010254,0.0004,0.0,0.0,0.0,0.0004,0.0,0.0,0.0,0.0004
2025/05/07 10:29:56.999228761,1746606596,998643810,mti/imu_base_body,0.3910315015406758,0.9202149950440932,0.004735759144884535,-0.01662228276036858,0.017453292519943295,0.0,0.0,0.0,0.017453292519943295,0.0,0.0,0.0,0.15707963267948966,0.013497378677129745,-0.0018178903264924884,-0.04335373640060425,0.0004363323129985824,0.0,0.0,0.0,0.0004363323129985824,0.0,0.0,0.0,0.0004363323129985824,-0.24531997740268707,0.07572606205940247,9.760804176330566,0.0004,0.0,0.0,0.0,0.0004,0.0,0.0,0.0,0.0004
2025/05/07 10:29:57.49560322,1746606597,48347350,mti/imu_base_body,0.3908169750016746,0.9203063244707756,0.004678556865263909,-0.016627456067910853,0.017453292519943295,0.0,0.0,0.0,0.017453292519943295,0.0,0.0,0.0,0.15707963267948966,0.021206084638834,0.0013703594449907541,-0.04796819016337395,0.0004363323129985824,0.0,0.0,0.0,0.0004363323129985824,0.0,0.0,0.0,0.0004363323129985824,-0.2479771375656128,0.098322793841362,9.82465934753418,0.0004,0.0,0.0,0.0,0.0004,0.0,0.0,0.0,0.0004
2025/05/07 10:29:57.98709592,1746606597,98110827,mti/imu_base_body,0.39063407053187554,0.920383580243268,0.004658930899337176,-0.01665480474687192,0.017453292519943295,0.0,0.0,0.0,0.017453292519943295,0.0,0.0,0.0,0.15707963267948966,0.019724979996681213,0.004679000470787287,-0.042068637907505035,0.0004363323129985824,0.0,0.0,0.0,0.0004363323129985824,0.0,0.0,0.0,0.0004363323129985824,-0.23740369081497192,0.09553700685501099,9.882257461547852,0.0004,0.0,0.0,0.0,0.0004,0.0,0.0,0.0,0.0004
2025/05/07 10:29:57.148752389,1746606597,148174815,mti/imu_base_body,0.39041550035056966,0.920476552894204,0.0045886444494052875,-0.01666124245471786,0.017453292519943295,0.0,0.0,0.0,0.017453292519943295,0.0,0.0,0.0,0.15707963267948966,0.022153859958052635,0.0033515137620270252,-0.048772431910037994,0.0004363323129985824,0.0,0.0,0.0,0.0004363323129985824,0.0,0.0,0.0,0.0004363323129985824,-0.2627251148223877,0.0776350349187851,9.757691383361816,0.0004,0.0,0.0,0.0,0.0004,0.0,0.0,0.0,0.0004
2025/05/07 10:29:57.199295488,1746606597,198120121,mti/imu_base_body,0.3901841059142547,0.9205747449327176,0.004541637251152277,-0.016669613523847368,0.017453292519943295,0.0,0.0,0.0,0.017453292519943295,0.0,0.0,0.0,0.15707963267948966,0.019683727994561195,-0.0022578807547688484,-0.051290277391672134,0.0004363323129985824,0.0,0.0,0.0,0.0004363323129985824,0.0,0.0,0.0,0.0004363323129985824,-0.2500552833080292,0.07194437086582184,9.764530181884766,0.0004,0.0,0.0,0.0,0.0004,0.0,0.0,0.0,0.0004
2025/05/07 10:29:57.248385979,1746606597,247963287,mti/imu_base_body,0.389989085101732,0.9206582069268336,0.0044504442905403145,-0.016648515411237925,0.017453292519943295,0.0,0.0,0.0,0.017453292519943295,0.0,0.0,0.0,0.15707963267948966,0.02291070483624935,-0.010071144439280033,-0.04430665075778961,0.0004363323129985824,0.0,0.0,0.0,0.0004363323129985824,0.0,0.0,0.0,0.0004363323129985824,-0.23403026163578033,0.06733693927526474,9.843017578125,0.0004,0.0,0.0,0.0,0.0004,0.0,0.0,0.0,0.0004
2025/05/07 10:29:57.298773512,1746606597,298083141,mti/imu_base_body,0.38978864586674505,0.9207437949366466,0.0043661791705212095,-0.016631660124071388,0.017453292519943295,0.0,0.0,0.0,0.017453292519943295,0.0,0.0,0.0,0.15707963267948966,0.028684912249445915,-0.004381012171506882,-0.041927535086870193,0.0004363323129985824,0.0,0.0,0.0,0.0004363323129985824,0.0,0.0,0.0,0.0004363323129985824,-0.23906557261943817,0.07548724859952927,9.840496063232422,0.0004,0.0,0.0,0.0,0.0004,0.0,0.0,0.0,0.0004
2025/05/07 10:29:57.348967959,1746606597,348231673,mti/imu_base_body,0.3895945452462085,0.9208263819703187,0.004304017580088747,-0.016623477810694114,0.017453292519943295,0.0,0.0,0.0,0.017453292519943295,0.0,0.0,0.0,0.15707963267948966,0.02105831541121006,-0.0005761812208220363,-0.041798077523708344,0.0004363323129985824,0.0,0.0,0.0,0.0004363323129985824,0.0,0.0,0.0,0.0004363323129985824,-0.2568884789943695,0.06748176366090775,9.79958724975586,0.0004,0.0,0.0,0.0,0.0004,0.0,0.0,0.0,0.0004
2025/05/07 10:29:57.399783840,1746606597,399212683,mti/imu_base_body,0.3893954545833737,0.9209109546110856,0.004229318037857453,-0.0166224696131808,0.017453292519943295,0.0,0.0,0.0,0.017453292519943295,0.0,0.0,0.0,0.15707963267948966,0.023898718878626823,-0.0035193152725696564,-0.04677039012312889,0.0004363323129985824,0.0,0.0,0.0,0.0004363323129985824,0.0,0.0,0.0,0.0004363323129985824,-0.2598458528518677,0.06552062183618546,9.740172386169434,0.0004,0.0,0.0,0.0,0.0004,0.0,0.0,0.0,0.0004
2025/05/07 10:29:57.448079187,1746606597,447750904,mti/imu_base_body,0.38915760711520997,0.9210111030144456,0.0041842454919022,-0.016655240560903967,0.017453292519943295,0.0,0.0,0.0,0.017453292519943295,0.0,0.0,0.0,0.15707963267948966,0.02051505073904991,0.006361423991620541,-0.05282669886946678,0.0004363323129985824,0.0,0.0,0.0,0.0004363323129985824,0.0,0.0,0.0,0.0004363323129985824,-0.23412856459617615,0.04253792762756348,9.85428524017334,0.0004,0.0,0.0,0.0,0.0004,0.0,0.0,0.0,0.0004
2025/05/07 10:29:57.498286033,1746606597,497814352,mti/imu_base_body,0.3889319461391293,0.9211068297963173,0.004119534834073471,-0.01664868786897315,0.017453292519943295,0.0,0.0,0.0,0.017453292519943295,0.0,0.0,0.0,0.15707963267948966,0.023752614855766296,-0.003209539456292987,-0.04758612811565399,0.0004363323129985824,0.0,0.0,0.0,0.0004363323129985824,0.0,0.0,0.0,0.0004363323129985824,-0.22786587476730347,0.02072734571993351,9.832441329956055,0.0004,0.0,0.0,0.0,0.0004,0.0,0.0,0.0,0.0004
2025/05/07 10:29:57.548154973,1746606597,547801576,mti/imu_base_body,0.3887033450632547,0.9212031768985967,0.004056009625223659,-0.016672288219952973,0.017453292519943295,0.0,0.0,0.0,0.017453292519943295,0.0,0.0,0.0,0.15707963267948966,0.02357267029583454,0.0033206846565008163,-0.050845399498939514,0.0004363323129985824,0.0,0.0,0.0,0.0004363323129985824,0.0,0.0,0.0,0.0004363323129985824,-0.2656283974647522,0.03723332658410072,9.764179229736328,0.0004,0.0,0.0,0.0,0.0004,0.0,0.0,0.0,0.0004
2025/05/07 10:29:57.598438191,1746606597,598030875,mti/imu_base_body,0.38846412994033996,0.9213042850121804,0.00399657438978354,-0.01667517799115102,0.017453292519943295,0.0,0.0,0.0,0.017453292519943295,0.0,0.0,0.0,0.15707963267948966,0.022217310965061188,-0.0024428621400147676,-0.05029366910457611,0.0004363323129985824,0.0,0.0,0.0,0.0004363323129985824,0.0,0.0,0.0,0.0004363323129985824,-0.2601468563079834,0.021228976547718048,9.793469429016113,0.0004,0.0,0.0,0.0,0.0004,0.0,0.0,0.0,0.0004
2025/05/07 10:29:57.650007756,1746606597,648742228,mti/imu_base_body,0.388207854594941,0.9214127706865582,0.003961786939399776,-0.016657487528429323,0.017453292519943295,0.0,0.0,0.0,0.017453292519943295,0.0,0.0,0.0,0.15707963267948966,0.013738018460571766,-0.0008117333636619151,-0.05810675024986267,0.0004363323129985824,0.0,0.0,0.0,0.0004363323129985824,0.0,0.0,0.0,0.0004363323129985824,-0.24790820479393005,0.014117119833827019,9.82118034362793,0.0004,0.0,0.0,0.0,0.0004,0.0,0.0,0.0,0.0004
2025/05/07 10:29:57.698244609,1746606597,697850386,mti/imu_base_body,0.3879964943074857,0.921502094682656,0.003878832785374954,-0.01666026880940174,0.017453292519943295,0.0,0.0,0.0,0.017453292519943295,0.0,0.0,0.0,0.15707963267948966,0.022418413311243057,-0.004083242733031511,-0.04387103021144867,0.0004363323129985824,0.0,0.0,0.0,0.0004363323129985824,0.0,0.0,0.0,0.0004363323129985824,-0.24203497171401978,-0.0004186592414043844,9.861865997314453,0.0004,0.0,0.0,0.0,0.0004,0.0,0.0,0.0,0.0004
2025/05/07 10:29:57.748080875,1746606597,747763525,mti/imu_base_body,0.3877840540916442,0.9215919849974199,0.003819409752199128,-0.0166479034688648,0.017453292519943295,0.0,0.0,0.0,0.017453292519943295,0.0,0.0,0.0,0.15707963267948966,0.021484902128577232,-0.0031753312796354294,-0.04934292286634445,0.0004363323129985824,0.0,0.0,0.0,0.0004363323129985824,0.0,0.0,0.0,0.0004363323129985824,-0.2468756139278412,0.003917311783879995,9.76211929321289,0.0004,0.0,0.0,0.0,0.0004,0.0,0.0,0.0,0.0004
2025/05/07 10:29:57.798368761,1746606597,797956704,mti/imu_base_body,0.387540597694324,0.92169514755581,0.0037469703638543265,-0.01662228395533981,0.017453292519943295,0.0,0.0,0.0,0.017453292519943295,0.0,0.0,0.0,0.15707963267948966,0.024793591350317,-0.007503069471567869,-0.04845026135444641,0.0004363323129985824,0.0,0.0,0.0,0.0004363323129985824,0.0,0.0,0.0,0.0004363323129985824,-0.2714156210422516,-0.0022637268994003534,9.796849250793457,0.0004,0.0,0.0,0.0,0.0004,0.0,0.0,0.0,0.0004
2025/05/07 10:29:57.848141660,1746606597,847784330,mti/imu_base_body,0.3873185922780325,0.9217887391447159,0.0037131824587803104,-0.016614473743874772,0.017453292519943295,0.0,0.0,0.0,0.017453292519943295,0.0,0.0,0.0,0.15707963267948966,0.01341782696545124,-0.0002284212678205222,-0.05165540799498558,0.0004363323129985824,0.0,0.0,0.0,0.0004363323129985824,0.0,0.0,0.0,0.0004363323129985824,-0.24182142317295074,0.026736728847026825,9.853940963745117,0.0004,0.0,0.0,0.0,0.0004,0.0,0.0,0.0,0.0004
2025/05/07 10:29:57.898415182,1746606597,897940025,mti/imu_base_body,0.38711632886795994,0.921873775698645,0.0036623581720689703,-0.016621574400075736,0.017453292519943295,0.0,0.0,0.0,0.017453292519943295,0.0,0.0,0.0,0.15707963267948966,0.022253405302762985,0.003825548803433776,-0.04598689079284668,0.0004363323129985824,0.0,0.0,0.0,0.0004363323129985824,0.0,0.0,0.0,0.0004363323129985824,-0.2610829472541809,0.02351176179945469,9.782782554626465,0.0004,0.0,0.0,0.0,0.0004,0.0,0.0,0.0,0.0004
2025/05/07 10:29:57.948463765,1746606597,948082530,mti/imu_base_body,0.38684961429097087,0.9219860371831262,0.0036294026518603403,-0.016611760854063077,0.017453292519943295,0.0,0.0,0.0,0.017453292519943295,0.0,0.0,0.0,0.15707963267948966,0.015857314690947533,-0.008527327328920364,-0.05877029150724411,0.0004363323129985824,0.0,0.0,0.0,0.0004363323129985824,0.0,0.0,0.0,0.0004363323129985824,-0.2553178369998932,0.013311290182173252,9.793705940246582,0.0004,0.0,0.0,0.0,0.0004,0.0,0.0,0.0,0.0004
2025/05/07 10:29:57.998399556,1746606597,997972843,mti/imu_base_body,0.38663271885336276,0.9220784905655957,0.003529739215467431,-0.01655109934113664,0.017453292519943295,0.0,0.0,0.0,0.017453292519943295,0.0,0.0,0.0,0.15707963267948966,0.021205700933933258,-0.013878357596695423,-0.0445237010717392,0.0004363323129985824,0.0,0.0,0.0,0.0004363323129985824,0.0,0.0,0.0,0.0004363323129985824,-0.24950946867465973,0.027926409617066383,9.789382934570312,0.0004,0.0,0.0,0.0,0.0004,0.0,0.0,0.0,0.0004
2025/05/07 10:29:58.49098280,1746606598,47961898,mti/imu_base_body,0.38642025789611434,0.9221689033667871,0.0034883017963116035,-0.01648422583488324,0.017453292519943295,0.0,0.0,0.0,0.017453292519943295,0.0,0.0,0.0,0.15707963267948966,0.016672629863023758,-0.005480273626744747,-0.04743558540940285,0.0004363323129985824,0.0,0.0,0.0,0.0004363323129985824,0.0,0.0,0.0,0.0004363323129985824,-0.24835379421710968,0.015383676625788212,9.846999168395996,0.0004,0.0,0.0,0.0,0.0004,0.0,0.0,0.0,0.0004
2025/05/07 10:29:58.98204654,1746606598,97807398,mti/imu_base_body,0.3862054215491705,0.9222588988100012,0.003445055344819244,-0.01649325696951277,0.017453292519943295,0.0,0.0,0.0,0.017453292519943295,0.0,0.0,0.0,0.15707963267948966,0.015799710527062416,-0.00041538261575624347,-0.048937153071165085,0.0004363323129985824,0.0,0.0,0.0,0.0004363323129985824,0.0,0.0,0.0,0.0004363323129985824,-0.2504189908504486,0.006913791876286268,9.826464653015137,0.0004,0.0,0.0,0.0,0.0004,0.0,0.0,0.0,0.0004
2025/05/07 10:29:58.148158038,1746606598,147840718,mti/imu_base_body,0.3859786256631722,0.9223539807132287,0.0034189038700732505,-0.016490781969238425,0.017453292519943295,0.0,0.0,0.0,0.017453292519943295,0.0,0.0,0.0,0.15707963267948966,0.014791220426559448,0.0002560347493272275,-0.04997963085770607,0.0004363323129985824,0.0,0.0,0.0,0.0004363323129985824,0.0,0.0,0.0,0.0004363323129985824,-0.23622047901153564,0.015588397160172462,9.787074089050293,0.0004,0.0,0.0,0.0,0.0004,0.0,0.0,0.0,0.0004
2025/05/07 10:29:58.198135716,1746606598,197788845,mti/imu_base_body,0.3857298567189011,0.9224583034000395,0.00339857094607777,-0.016480468423585443,0.017453292519943295,0.0,0.0,0.0,0.017453292519943295,0.0,0.0,0.0,0.15707963267948966,0.015487972646951675,-0.0009941501775756478,-0.05380351096391678,0.0004363323129985824,0.0,0.0,0.0,0.0004363323129985824,0.0,0.0,0.0,0.0004363323129985824,-0.22522851824760437,0.0020343682263046503,9.804703712463379,0.0004,0.0,0.0,0.0,0.0004,0.0,0.0,0.0,0.0004
2025/05/07 10:29:58.248221372,1746606598,247816145,mti/imu_base_body,0.3855341403598122,0.9225408271502122,0.0033521188870475676,-0.016450293522907673,0.017453292519943295,0.0,0.0,0.0,0.017453292519943295,0.0,0.0,0.0,0.15707963267948966,0.014472800306975842,-0.006084058899432421,-0.04096286743879318,0.0004363323129985824,0.0,0.0,0.0,0.0004363323129985824,0.0,0.0,0.0,0.0004363323129985824,-0.23805303871631622,0.0079440176486969,9.822128295898438,0.0004,0.0,0.0,0.0,0.0004,0.0,0.0,0.0,0.0004
2025/05/07 10:29:58.298106658,1746606598,297773887,mti/imu_base_body,0.3853132588172416,0.9226340573175922,0.003348205079674116,-0.016397511398373706,0.017453292519943295,0.0,0.0,0.0,0.017453292519943295,0.0,0.0,0.0,0.15707963267948966,0.0070415218360722065,-0.006988074630498886,-0.05207144096493721,0.0004363323129985824,0.0,0.0,0.0,0.0004363323129985824,0.0,0.0,0.0,0.0004363323129985824,-0.24115115404129028,0.0008179419673979282,9.817695617675781,0.0004,0.0,0.0,0.0,0.0004,0.0,0.0,0.0,0.0004
2025/05/07 10:29:58.348119282,1746606598,347780039,mti/imu_base_body,0.3850637248489857,0.9227382392452612,0.0033116333591844396,-0.016404350778803343,0.017453292519943295,0.0,0.0,0.0,0.017453292519943295,0.0,0.0,0.0,0.15707963267948966,0.015979954972863197,0.0034202993847429752,-0.05236067622900009,0.0004363323129985824,0.0,0.0,0.0,0.0004363323129985824,0.0,0.0,0.0,0.0004363323129985824,-0.2473450005054474,0.018477849662303925,9.794042587280273,0.0004,0.0,0.0,0.0,0.0004,0.0,0.0,0.0,0.0004
2025/05/07 10:29:58.398106371,1746606598,397779864,mti/imu_base_body,0.38487265929618325,0.9228179872130102,0.003281064994430108,-0.01640832760870797,0.017453292519943295,0.0,0.0,0.0,0.017453292519943295,0.0,0.0,0.0,0.15707963267948966,0.02415495738387108,0.0013458729954436421,-0.0441703125834465,0.0004363323129985824,0.0,0.0,0.0,0.0004363323129985824,0.0,0.0,0.0,0.0004363323129985824,-0.2574939429759979,0.03785153850913048,9.819024085998535,0.0004,0.0,0.0,0.0,0.0004,0.0,0.0,0.0,0.0004
2025/05/07 10:29:58.448186304,1746606598,447790066,mti/imu_base_body,0.3846364227417809,0.9229167807091831,0.0032114904275521872,-0.0164050149356035,0.017453292519943295,0.0,0.0,0.0,0.017453292519943295,0.0,0.0,0.0,0.15707963267948966,0.02041413076221943,-0.0007506909896619618,-0.0486459955573082,0.0004363323129985824,0.0,0.0,0.0,0.0004363323129985824,0.0,0.0,0.0,0.0004363323129985824,-0.24732311069965363,0.02130195125937462,9.832343101501465,0.0004,0.0,0.0,0.0,0.0004,0.0,0.0,0.0,0.0004
2025/05/07 10:29:58.498773198,1746606598,497821433,mti/imu_base_body,0.38440662903800554,0.9230124832866731,0.0032347151724775973,-0.016402312835668773,0.017453292519943295,0.0,0.0,0.0,0.017453292519943295,0.0,0.0,0.0,0.15707963267948966,0.0019499092595651746,0.004762999713420868,-0.052504632622003555,0.0004363323129985824,0.0,0.0,0.0,0.0004363323129985824,0.0,0.0,0.0,0.0004363323129985824,-0.2369011789560318,0.013363393023610115,9.807722091674805,0.0004,0.0,0.0,0.0,0.0004,0.0,0.0,0.0,0.0004
2025/05/07 10:29:58.548117656,1746606598,547763466,mti/imu_base_body,0.3841649023370816,0.9231142752877117,0.0032298600927989415,-0.016338010165379807,0.017453292519943295,0.0,0.0,0.0,0.017453292519943295,0.0,0.0,0.0,0.15707963267948966,0.006467495113611221,-0.006566510070115328,-0.050636496394872665,0.0004363323129985824,0.0,0.0,0.0,0.0004363323129985824,0.0,0.0,0.0,0.0004363323129985824,-0.2530990540981293,0.023888155817985535,9.802708625793457,0.0004,0.0,0.0,0.0,0.0004,0.0,0.0,0.0,0.0004
2025/05/07 10:29:58.599592120,1746606598,598378898,mti/imu_base_body,0.3839268005188162,0.9232137995573538,0.0031815917421489284,-0.01632083405482835,0.017453292519943295,0.0,0.0,0.0,0.017453292519943295,0.0,0.0,0.0,0.15707963267948966,0.01981908269226551,-0.004853627644479275,-0.051834989339113235,0.0004363323129985824,0.0,0.0,0.0,0.0004363323129985824,0.0,0.0,0.0,0.0004363323129985824,-0.24790334701538086,0.018751442432403564,9.810261726379395,0.0004,0.0,0.0,0.0,0.0004,0.0,0.0,0.0,0.0004
2025/05/07 10:29:58.648161076,1746606598,647781701,mti/imu_base_body,0.38371059070162833,0.9233040238389219,0.00316701860508268,-0.016304359521860653,0.017453292519943295,0.0,0.0,0.0,0.017453292519943295,0.0,0.0,0.0,0.15707963267948966,0.009811078198254108,-0.004961357917636633,-0.04880303144454956,0.0004363323129985824,0.0,0.0,0.0,0.0004363323129985824,0.0,0.0,0.0,0.0004363323129985824,-0.24309757351875305,0.023169558495283127,9.819731712341309,0.0004,0.0,0.0,0.0,0.0004,0.0,0.0,0.0,0.0004
2025/05/07 10:29:58.698153468,1746606598,697763622,mti/imu_base_body,0.38346968643328916,0.923404073004819,0.0031894329814361093,-0.016301688934668244,0.017453292519943295,0.0,0.0,0.0,0.017453292519943295,0.0,0.0,0.0,0.15707963267948966,0.008646936155855656,0.0054168784990906715,-0.05102642998099327,0.0004363323129985824,0.0,0.0,0.0,0.0004363323129985824,0.0,0.0,0.0,0.0004363323129985824,-0.24745841324329376,0.01066834107041359,9.79787826538086,0.0004,0.0,0.0,0.0,0.0004,0.0,0.0,0.0,0.0004
2025/05/07 10:29:58.748095395,1746606598,747780004,mti/imu_base_body,0.3832231672575413,0.9235070488625365,0.003183709390164818,-0.0162664923332011,0.017453292519943295,0.0,0.0,0.0,0.017453292519943295,0.0,0.0,0.0,0.15707963267948966,0.007849265821278095,-0.002672638278454542,-0.05298410356044769,0.0004363323129985824,0.0,0.0,0.0,0.0004363323129985824,0.0,0.0,0.0,0.0004363323129985824,-0.2525273561477661,0.026629135012626648,9.807626724243164,0.0004,0.0,0.0,0.0,0.0004,0.0,0.0,0.0,0.0004
2025/05/07 10:29:58.798204186,1746606598,797813884,mti/imu_base_body,0.38301861814606136,0.9235925228319612,0.0031583952494896967,-0.016236208357326577,0.017453292519943295,0.0,0.0,0.0,0.017453292519943295,0.0,0.0,0.0,0.15707963267948966,0.01102195493876934,-0.0037022659089416265,-0.04411520063877106,0.0004363323129985824,0.0,0.0,0.0,0.0004363323129985824,0.0,0.0,0.0,0.0004363323129985824,-0.24380236864089966,0.018329022452235222,9.819371223449707,0.0004,0.0,0.0,0.0,0.0004,0.0,0.0,0.0,0.0004
2025/05/07 10:29:58.848521161,1746606598,848059777,mti/imu_base_body,0.38283028849843426,0.9236711865545573,0.0031484672265681395,-0.01620482925626758,0.017453292519943295,0.0,0.0,0.0,0.017453292519943295,0.0,0.0,0.0,0.15707963267948966,0.012990081682801247,-0.004385353997349739,-0.04398590698838234,0.0004363323129985824,0.0,0.0,0.0,0.0004363323129985824,0.0,0.0,0.0,0.0004363323129985824,-0.25543928146362305,0.010037303902208805,9.835235595703125,0.0004,0.0,0.0,0.0,0.0004,0.0,0.0,0.0,0.0004
2025/05/07 10:29:58.898104840,1746606598,897762702,mti/imu_base_body,0.382556731201963,0.923784555093652,0.0031479251322966044,-0.01620289325563815,0.017453292519943295,0.0,0.0,0.0,0.017453292519943295,0.0,0.0,0.0,0.15707963267948966,0.008965353481471539,0.005856969393789768,-0.0643903836607933,0.0004363323129985824,0.0,0.0,0.0,0.0004363323129985824,0.0,0.0,0.0,0.0004363323129985824,-0.2564164698123932,0.02391638047993183,9.831259727478027,0.0004,0.0,0.0,0.0,0.0004,0.0,0.0,0.0,0.0004
2025/05/07 10:29:58.948114997,1746606598,947767021,mti/imu_base_body,0.3822757499123635,0.9239013898661057,0.003152318935359339,-0.0161720659703066,0.017453292519943295,0.0,0.0,0.0,0.017453292519943295,0.0,0.0,0.0,0.15707963267948966,0.007333784364163876,0.0010241687996312976,-0.06348318606615067,0.0004363323129985824,0.0,0.0,0.0,0.0004363323129985824,0.0,0.0,0.0,0.0004363323129985824,-0.25423163175582886,0.023595089092850685,9.793939590454102,0.0004,0.0,0.0,0.0,0.0004,0.0,0.0,0.0,0.0004
2025/05/07 10:29:58.998468348,1746606598,997950885,mti/imu_base_body,0.3820043938761311,0.924013422317761,0.0031392473060651268,-0.016185906286033627,0.017453292519943295,0.0,0.0,0.0,0.017453292519943295,0.0,0.0,0.0,0.15707963267948966,0.014424107037484646,0.001649800455197692,-0.05160842463374138,0.0004363323129985824,0.0,0.0,0.0,0.0004363323129985824,0.0,0.0,0.0,0.0004363323129985824,-0.24679724872112274,0.016691410914063454,9.825142860412598,0.0004,0.0,0.0,0.0,0.0004,0.0,0.0,0.0,0.0004
2025/05/07 10:29:59.48074273,1746606599,47736389,mti/imu_base_body,0.3817670704529111,0.924112232153206,0.003163365490455191,-0.01613937487620702,0.017453292519943295,0.0,0.0,0.0,0.017453292519943295,0.0,0.0,0.0,0.15707963267948966,-0.001055524917319417,-0.0027776011265814304,-0.05132484808564186,0.0004363323129985824,0.0,0.0,0.0,0.0004363323129985824,0.0,0.0,0.0,0.0004363323129985824,-0.25231730937957764,0.011218927800655365,9.828391075134277,0.0004,0.0,0.0,0.0,0.0004,0.0,0.0,0.0,0.0004
2025/05/07 10:29:59.98134320,1746606599,97746947,mti/imu_base_body,0.38153712191669764,0.9242079473257263,0.0031466597167146256,-0.0160994792498943,0.017453292519943295,0.0,0.0,0.0,0.017453292519943295,0.0,0.0,0.0,0.15707963267948966,0.0126718170940876,-0.0068498156033456326,-0.05569598823785782,0.0004363323129985824,0.0,0.0,0.0,0.0004363323129985824,0.0,0.0,0.0,0.0004363323129985824,-0.248813658952713,0.01622922345995903,9.818426132202148,0.0004,0.0,0.0,0.0,0.0004,0.0,0.0,0.0,0.0004
2025/05/07 10:29:59.148133433,1746606599,147749906,mti/imu_base_body,0.3812425235932222,0.9243299571097325,0.0031677849122204015,-0.01606965253330976,0.017453292519943295,0.0,0.0,0.0,0.017453292519943295,0.0,0.0,0.0,0.15707963267948966,0.0016420625615864992,-0.0011365084210410714,-0.059574056416749954,0.0004363323129985824,0.0,0.0,0.0,0.0004363323129985824,0.0,0.0,0.0,0.0004363323129985824,-0.2520168423652649,0.02004157193005085,9.809539794921875,0.0004,0.0,0.0,0.0,0.0004,0.0,0.0,0.0,0.0004
2025/05/07 10:29:59.198141849,1746606599,197727587,mti/imu_base_body,0.38100085990883303,0.9244303525687925,0.00316382485413055,-0.016026796640635922,0.017453292519943295,0.0,0.0,0.0,0.017453292519943295,0.0,0.0,0.0,0.15707963267948966,0.01551028061658144,-0.001283522928133607,-0.05593577399849892,0.0004363323129985824,0.0,0.0,0.0,0.0004363323129985824,0.0,0.0,0.0,0.0004363323129985824,-0.25985652208328247,0.0213064756244421,9.80510425567627,0.0004,0.0,0.0,0.0,0.0004,0.0,0.0,0.0,0.0004
2025/05/07 10:29:59.248480681,1746606599,247961095,mti/imu_base_body,0.38080025970022396,0.9245134937924755,0.0031071371663913914,-0.01600961294040302,0.017453292519943295,0.0,0.0,0.0,0.017453292519943295,0.0,0.0,0.0,0.15707963267948966,0.013588016852736473,-0.00763079896569252,-0.04028083011507988,0.0004363323129985824,0.0,0.0,0.0,0.0004363323129985824,0.0,0.0,0.0,0.0004363323129985824,-0.2496507465839386,-0.00333618838340044,9.822027206420898,0.0004,0.0,0.0,0.0,0.0004,0.0,0.0,0.0,0.0004
2025/05/07 10:29:59.300269716,1746606599,298607267,mti/imu_base_body,0.3805642961887318,0.9246115473848423,0.00316402677965641,-0.015946530767545868,0.017453292519943295,0.0,0.0,0.0,0.017453292519943295,0.0,0.0,0.0,0.15707963267948966,-0.0053327628411352634,-0.0016264589503407478,-0.05334277078509331,0.0004363323129985824,0.0,0.0,0.0,0.0004363323129985824,0.0,0.0,0.0,0.0004363323129985824,-0.2535797953605652,0.014889458194375038,9.810026168823242,0.0004,0.0,0.0,0.0,0.0004,0.0,0.0,0.0,0.0004
2025/05/07 10:29:59.348134078,1746606599,347755651,mti/imu_base_body,0.38033187678398844,0.9247083447948721,0.0031789967946911635,-0.015875595991210203,0.017453292519943295,0.0,0.0,0.0,0.017453292519943295,0.0,0.0,0.0,0.15707963267948966,0.006690253969281912,-0.0066627012565732,-0.05365060269832611,0.0004363323129985824,0.0,0.0,0.0,0.0004363323129985824,0.0,0.0,0.0,0.0004363323129985824,-0.2551288902759552,0.025090938434004784,9.805001258850098,0.0004,0.0,0.0,0.0,0.0004,0.0,0.0,0.0,0.0004
2025/05/07 10:29:59.399963731,1746606599,399271145,mti/imu_base_body,0.38008381308197176,0.9248101664681172,0.00321498343057378,-0.015878126836101195,0.017453292519943295,0.0,0.0,0.0,0.017453292519943295,0.0,0.0,0.0,0.15707963267948966,0.001961678499355912,0.003349900245666504,-0.05234329029917717,0.0004363323129985824,0.0,0.0,0.0,0.0004363323129985824,0.0,0.0,0.0,0.0004363323129985824,-0.2620692551136017,0.029371783137321472,9.826472282409668,0.0004,0.0,0.0,0.0,0.0004,0.0,0.0,0.0,0.0004
2025/05/07 10:29:59.449702801,1746606599,449162758,mti/imu_base_body,0.37981640762472585,0.9249199951194533,0.0032459262152699665,-0.015873345277018273,0.017453292519943295,0.0,0.0,0.0,0.017453292519943295,0.0,0.0,0.0,0.15707963267948966,0.004499127622693777,0.0047472077421844006,-0.05443725734949112,0.0004363323129985824,0.0,0.0,0.0,0.0004363323129985824,0.0,0.0,0.0,0.0004363323129985824,-0.258473664522171,0.012577016837894917,9.83510684967041,0.0004,0.0,0.0,0.0,0.0004,0.0,0.0,0.0,0.0004
2025/05/07 10:29:59.498506872,1746606599,498087804,mti/imu_base_body,0.37955220856697114,0.9250290373039265,0.003277974475419594,-0.015832119246769354,0.017453292519943295,0.0,0.0,0.0,0.017453292519943295,0.0,0.0,0.0,0.15707963267948966,0.004101685248315334,0.0006920877494849265,-0.05779416859149933,0.0004363323129985824,0.0,0.0,0.0,0.0004363323129985824,0.0,0.0,0.0,0.0004363323129985824,-0.26312652230262756,0.012087060138583183,9.834278106689453,0.0004,0.0,0.0,0.0,0.0004,0.0,0.0,0.0,0.0004
2025/05/07 10:29:59.548226435,1746606599,547782686,mti/imu_base_body,0.3793195775687593,0.9251255360389414,0.0032911315062562905,-0.015766074182498195,0.017453292519943295,0.0,0.0,0.0,0.017453292519943295,0.0,0.0,0.0,0.15707963267948966,0.0006601970526389778,-0.010741936042904854,-0.050796493887901306,0.0004363323129985824,0.0,0.0,0.0,0.0004363323129985824,0.0,0.0,0.0,0.0004363323129985824,-0.25232744216918945,0.020451707765460014,9.789983749389648,0.0004,0.0,0.0,0.0,0.0004,0.0,0.0,0.0,0.0004
2025/05/07 10:29:59.598244430,1746606599,597864151,mti/imu_base_body,0.3791038358426759,0.9252148351824045,0.0033064446260783927,-0.01571171001832096,0.017453292519943295,0.0,0.0,0.0,0.017453292519943295,0.0,0.0,0.0,0.15707963267948966,6.108325032982975e-05,-0.002730421954765916,-0.04645363986492157,0.0004363323129985824,0.0,0.0,0.0,0.0004363323129985824,0.0,0.0,0.0,0.0004363323129985824,-0.2504436671733856,0.00876476801931858,9.807379722595215,0.0004,0.0,0.0,0.0,0.0004,0.0,0.0,0.0,0.0004
2025/05/07 10:29:59.648179513,1746606599,647850225,mti/imu_base_body,0.3788538343288119,0.9253175636791131,0.0033296851560972616,-0.015687312009035274,0.017453292519943295,0.0,0.0,0.0,0.017453292519943295,0.0,0.0,0.0,0.15707963267948966,0.008263192139565945,0.0017547080060467124,-0.059026144444942474,0.0004363323129985824,0.0,0.0,0.0,0.0004363323129985824,0.0,0.0,0.0,0.0004363323129985824,-0.25087445974349976,0.02203928865492344,9.844593048095703,0.0004,0.0,0.0,0.0,0.0004,0.0,0.0,0.0,0.0004
2025/05/07 10:29:59.698301978,1746606599,697839880,mti/imu_base_body,0.37857717756582576,0.9254311825992703,0.0033502127194895703,-0.015659596864013952,0.017453292519943295,0.0,0.0,0.0,0.017453292519943295,0.0,0.0,0.0,0.15707963267948966,0.0056245955638587475,0.0011034756898880005,-0.06237190589308739,0.0004363323129985824,0.0,0.0,0.0,0.0004363323129985824,0.0,0.0,0.0,0.0004363323129985824,-0.25690850615501404,0.012087784707546234,9.805712699890137,0.0004,0.0,0.0,0.0,0.0004,0.0,0.0,0.0,0.0004
2025/05/07 10:29:59.748200592,1746606599,747834240,mti/imu_base_body,0.3782903439399193,0.925548792125366,0.0033873388646924914,-0.01563249860096725,0.017453292519943295,0.0,0.0,0.0,0.017453292519943295,0.0,0.0,0.0,0.15707963267948966,-0.0031957251485437155,-0.0016276179812848568,-0.06263557076454163,0.0004363323129985824,0.0,0.0,0.0,0.0004363323129985824,0.0,0.0,0.0,0.0004363323129985824,-0.26140475273132324,0.017505722120404243,9.803546905517578,0.0004,0.0,0.0,0.0,0.0004,0.0,0.0,0.0,0.0004
2025/05/07 10:29:59.798230300,1746606599,797902049,mti/imu_base_body,0.3780391823768118,0.9256519215746498,0.0034201821515512775,-0.015594839758076825,0.017453292519943295,0.0,0.0,0.0,0.017453292519943295,0.0,0.0,0.0,0.15707963267948966,0.00286957249045372,-0.002490622689947486,-0.05006231367588043,0.0004363323129985824,0.0,0.0,0.0,0.0004363323129985824,0.0,0.0,0.0,0.0004363323129985824,-0.26617875695228577,0.011324016377329826,9.815799713134766,0.0004,0.0,0.0,0.0,0.0004,0.0,0.0,0.0,0.0004
2025/05/07 10:29:59.848106829,1746606599,847792664,mti/imu_base_body,0.37781181256012547,0.9257453456309994,0.0034636727055358165,-0.015549672149688042,0.017453292519943295,0.0,0.0,0.0,0.017453292519943295,0.0,0.0,0.0,0.15707963267948966,0.0016207945300266147,0.0009362951968796551,-0.051474183797836304,0.0004363323129985824,0.0,0.0,0.0,0.0004363323129985824,0.0,0.0,0.0,0.0004363323129985824,-0.2615019679069519,0.00529071968048811,9.834039688110352,0.0004,0.0,0.0,0.0,0.0004,0.0,0.0,0.0,0.0004
2025/05/07 10:29:59.898366299,1746606599,897930404,mti/imu_base_body,0.37756581875868805,0.9258458502549038,0.003477388245736862,-0.015537755366973088,0.017453292519943295,0.0,0.0,0.0,0.017453292519943295,0.0,0.0,0.0,0.15707963267948966,0.0001967579300981015,-0.0017313027055934072,-0.05109792202711105,0.0004363323129985824,0.0,0.0,0.0,0.0004363323129985824,0.0,0.0,0.0,0.0004363323129985824,-0.2523992359638214,0.010872685350477695,9.828627586364746,0.0004,0.0,0.0,0.0,0.0004,0.0,0.0,0.0,0.0004
2025/05/07 10:29:59.948218696,1746606599,947855332,mti/imu_base_body,0.37732113274311824,0.925945699829545,0.0035223847013652106,-0.015521486998338467,0.017453292519943295,0.0,0.0,0.0,0.017453292519943295,0.0,0.0,0.0,0.15707963267948966,0.007952685467898846,0.006766781210899353,-0.053336456418037415,0.0004363323129985824,0.0,0.0,0.0,0.0004363323129985824,0.0,0.0,0.0,0.0004363323129985824,-0.2505642771720886,0.017778592184185982,9.79153060913086,0.0004,0.0,0.0,0.0,0.0004,0.0,0.0,0.0,0.0004
2025/05/07 10:29:59.998088550,1746606599,997785036,mti/imu_base_body,0.37708242168889844,0.9260433674978665,0.003552589016998087,-0.01548895986576695,0.017453292519943295,0.0,0.0,0.0,0.017453292519943295,0.0,0.0,0.0,0.15707963267948966,0.002500504720956087,-0.0009064720361493528,-0.05558359622955322,0.0004363323129985824,0.0,0.0,0.0,0.0004363323129985824,0.0,0.0,0.0,0.0004363323129985824,-0.26618492603302,0.015450889244675636,9.824567794799805,0.0004,0.0,0.0,0.0,0.0004,0.0,0.0,0.0,0.0004
2025/05/07 10:30:00.48156818,1746606600,47726780,mti/imu_base_body,0.37678902437008466,0.9261630271880268,0.003592551423319464,-0.01546517890038855,0.017453292519943295,0.0,0.0,0.0,0.017453292519943295,0.0,0.0,0.0,0.15707963267948966,0.004483513999730349,0.001461146748624742,-0.061311930418014526,0.0004363323129985824,0.0,0.0,0.0,0.0004363323129985824,0.0,0.0,0.0,0.0004363323129985824,-0.2706049382686615,0.012859883718192577,9.842325210571289,0.0004,0.0,0.0,0.0,0.0004,0.0,0.0,0.0,0.0004
2025/05/07 10:30:00.98335573,1746606600,97773759,mti/imu_base_body,0.3765481756466387,0.9262617124903687,0.0036173050177885522,-0.015415138533468452,0.017453292519943295,0.0,0.0,0.0,0.017453292519943295,0.0,0.0,0.0,0.15707963267948966,-0.00031405038316734135,-0.0021346788853406906,-0.055924754589796066,0.0004363323129985824,0.0,0.0,0.0,0.0004363323129985824,0.0,0.0,0.0,0.0004363323129985824,-0.2686293125152588,0.016490215435624123,9.80860710144043,0.0004,0.0,0.0,0.0,0.0004,0.0,0.0,0.0,0.0004
2025/05/07 10:30:00.148390927,1746606600,147986403,mti/imu_base_body,0.3762859328924672,0.9263685048587036,0.0036425916624080856,-0.01539550061142709,0.017453292519943295,0.0,0.0,0.0,0.017453292519943295,0.0,0.0,0.0,0.15707963267948966,0.005702113267034292,-0.0036675287410616875,-0.052660271525382996,0.0004363323129985824,0.0,0.0,0.0,0.0004363323129985824,0.0,0.0,0.0,0.0004363323129985824,-0.25989067554473877,0.005356176290661097,9.801142692565918,0.0004,0.0,0.0,0.0,0.0004,0.0,0.0,0.0,0.0004
2025/05/07 10:30:00.198329529,1746606600,197837845,mti/imu_base_body,0.376002570670108,0.9264837951992793,0.0036415106413190367,-0.015381270521624087,0.017453292519943295,0.0,0.0,0.0,0.017453292519943295,0.0,0.0,0.0,0.15707963267948966,0.007122287061065435,0.002911001443862915,-0.060504231601953506,0.0004363323129985824,0.0,0.0,0.0,0.0004363323129985824,0.0,0.0,0.0,0.0004363323129985824,-0.2619275748729706,0.016525857150554657,9.820585250854492,0.0004,0.0,0.0,0.0,0.0004,0.0,0.0,0.0,0.0004
2025/05/07 10:30:00.248940892,1746606600,248013666,mti/imu_base_body,0.3757435100353896,0.9265889912654037,0.0036893305623306736,-0.015363748632674711,0.017453292519943295,0.0,0.0,0.0,0.017453292519943295,0.0,0.0,0.0,0.15707963267948966,0.0002762541698757559,0.007847876287996769,-0.05777289718389511,0.0004363323129985824,0.0,0.0,0.0,0.0004363323129985824,0.0,0.0,0.0,0.0004363323129985824,-0.2613857090473175,0.01599721610546112,9.826582908630371,0.0004,0.0,0.0,0.0,0.0004,0.0,0.0,0.0,0.0004
2025/05/07 10:30:00.299595481,1746606600,298985415,mti/imu_base_body,0.37546588742393505,0.9267023382992213,0.0037234997048534073,-0.015306179198625751,0.017453292519943295,0.0,0.0,0.0,0.017453292519943295,0.0,0.0,0.0,0.15707963267948966,0.0006485122721642256,-0.008646185509860516,-0.06535878777503967,0.0004363323129985824,0.0,0.0,0.0,0.0004363323129985824,0.0,0.0,0.0,0.0004363323129985824,-0.26602256298065186,0.02454542927443981,9.810647010803223,0.0004,0.0,0.0,0.0,0.0004,0.0,0.0,0.0,0.0004
2025/05/07 10:30:00.349972811,1746606600,348099723,mti/imu_base_body,0.3752088496444752,0.9268073625780446,0.003746437216988017,-0.015244540917243685,0.017453292519943295,0.0,0.0,0.0,0.017453292519943295,0.0,0.0,0.0,0.15707963267948966,0.0009567614761181176,-0.002623853273689747,-0.04783426970243454,0.0004363323129985824,0.0,0.0,0.0,0.0004363323129985824,0.0,0.0,0.0,0.0004363323129985824,-0.26193690299987793,-0.0026110010221600533,9.799467086791992,0.0004,0.0,0.0,0.0,0.0004,0.0,0.0,0.0,0.0004
2025/05/07 10:30:00.398366499,1746606600,397845874,mti/imu_base_body,0.3749530750331871,0.926910826822446,0.0038202798094388833,-0.01522879196338717,0.017453292519943295,0.0,0.0,0.0,0.017453292519943295,0.0,0.0,0.0,0.15707963267948966,-0.002513218903914094,0.006057099439203739,-0.06077531352639198,0.0004363323129985824,0.0,0.0,0.0,0.0004363323129985824,0.0,0.0,0.0,0.0004363323129985824,-0.2607946991920471,0.009633941575884819,9.820826530456543,0.0004,0.0,0.0,0.0,0.0004,0.0,0.0,0.0,0.0004
2025/05/07 10:30:00.448352646,1746606600,447804547,mti/imu_base_body,0.3746710901916222,0.9270248651661168,0.003861408015216638,-0.015217196407495092,0.017453292519943295,0.0,0.0,0.0,0.017453292519943295,0.0,0.0,0.0,0.15707963267948966,0.0003618760092649609,0.0018729291623458266,-0.059755511581897736,0.0004363323129985824,0.0,0.0,0.0,0.0004363323129985824,0.0,0.0,0.0,0.0004363323129985824,-0.24083203077316284,0.0010328185744583607,9.830527305603027,0.0004,0.0,0.0,0.0,0.0004,0.0,0.0,0.0,0.0004
2025/05/07 10:30:00.498432799,1746606600,497857653,mti/imu_base_body,0.37444855830629803,0.9271153509939902,0.003908210311671977,-0.01517000414584996,0.017453292519943295,0.0,0.0,0.0,0.017453292519943295,0.0,0.0,0.0,0.15707963267948966,-0.004773393739014864,-0.0014549677725881338,-0.05159417912364006,0.0004363323129985824,0.0,0.0,0.0,0.0004363323129985824,0.0,0.0,0.0,0.0004363323129985824,-0.26861560344696045,0.020389284938573837,9.8018798828125,0.0004,0.0,0.0,0.0,0.0004,0.0,0.0,0.0,0.0004
2025/05/07 10:30:00.548633633,1746606600,548104716,mti/imu_base_body,0.3741991410700925,0.9272164098224327,0.003967720926528543,-0.015132394689967039,0.017453292519943295,0.0,0.0,0.0,0.017453292519943295,0.0,0.0,0.0,0.15707963267948966,0.0014696501893922687,0.005803938955068588,-0.05107741802930832,0.0004363323129985824,0.0,0.0,0.0,0.0004363323129985824,0.0,0.0,0.0,0.0004363323129985824,-0.27986767888069153,0.019081994891166687,9.799489974975586,0.0004,0.0,0.0,0.0,0.0004,0.0,0.0,0.0,0.0004
2025/05/07 10:30:00.600326173,1746606600,599154901,mti/imu_base_body,0.3739439749733188,0.9273196195191507,0.0040035558889890376,-0.015106236336527787,0.017453292519943295,0.0,0.0,0.0,0.017453292519943295,0.0,0.0,0.0,0.15707963267948966,-0.007532544434070587,-0.004323237109929323,-0.05181349813938141,0.0004363323129985824,0.0,0.0,0.0,0.0004363323129985824,0.0,0.0,0.0,0.0004363323129985824,-0.2614317536354065,0.008428443223237991,9.82396125793457,0.0004,0.0,0.0,0.0,0.0004,0.0,0.0,0.0,0.0004
2025/05/07 10:30:00.648485898,1746606600,647817048,mti/imu_base_body,0.3736911962108977,0.9274216198061642,0.004072099311003798,-0.015081346020170153,0.017453292519943295,0.0,0.0,0.0,0.017453292519943295,0.0,0.0,0.0,0.15707963267948966,0.0006653356831520796,0.012418780475854874,-0.05491725727915764,0.0004363323129985824,0.0,0.0,0.0,0.0004363323129985824,0.0,0.0,0.0,0.0004363323129985824,-0.2635846734046936,0.018120411783456802,9.833789825439453,0.0004,0.0,0.0,0.0,0.0004,0.0,0.0,0.0,0.0004
2025/05/07 10:30:00.698173546,1746606600,697764154,mti/imu_base_body,0.37346383738470157,0.927513466633625,0.0041453543873305266,-0.015044846831120371,0.017453292519943295,0.0,0.0,0.0,0.017453292519943295,0.0,0.0,0.0,0.15707963267948966,-0.0031244303099811077,-0.0038448392879217863,-0.05462837219238281,0.0004363323129985824,0.0,0.0,0.0,0.0004363323129985824,0.0,0.0,0.0,0.0004363323129985824,-0.2871095538139343,0.007628276012837887,9.79686164855957,0.0004,0.0,0.0,0.0,0.0004,0.0,0.0,0.0,0.0004
2025/05/07 10:30:00.748120940,1746606600,747760657,mti/imu_base_body,0.3732080328763327,0.9276168614862856,0.004172442908158085,-0.015010436472314915,0.017453292519943295,0.0,0.0,0.0,0.017453292519943295,0.0,0.0,0.0,0.15707963267948966,0.0023103724233806133,-5.160227374290116e-05,-0.057342272251844406,0.0004363323129985824,0.0,0.0,0.0,0.0004363323129985824,0.0,0.0,0.0,0.0004363323129985824,-0.26091161370277405,0.013078042306005955,9.797551155090332,0.0004,0.0,0.0,0.0,0.0004,0.0,0.0,0.0,0.0004
2025/05/07 10:30:00.798141700,1746606600,797849916,mti/imu_base_body,0.37296319546914425,0.9277153435353237,0.004219847224513462,-0.014996302343677034,0.017453292519943295,0.0,0.0,0.0,0.017453292519943295,0.0,0.0,0.0,0.15707963267948966,0.00047154867206700146,0.006153225898742676,-0.047326747328042984,0.0004363323129985824,0.0,0.0,0.0,0.0004363323129985824,0.0,0.0,0.0,0.0004363323129985824,-0.257660835981369,0.015619896352291107,9.826223373413086,0.0004,0.0,0.0,0.0,0.0004,0.0,0.0,0.0,0.0004
2025/05/07 10:30:00.848170600,1746606600,847794417,mti/imu_base_body,0.3727260116248668,0.927810863736781,0.004267237130251523,-0.014970373325407427,0.017453292519943295,0.0,0.0,0.0,0.017453292519943295,0.0,0.0,0.0,0.15707963267948966,-0.0007100278162397444,-0.0024507564958184958,-0.06256622076034546,0.0004363323129985824,0.0,0.0,0.0,0.0004363323129985824,0.0,0.0,0.0,0.0004363323129985824,-0.2521074116230011,0.006275561638176441,9.8401517868042,0.0004,0.0,0.0,0.0,0.0004,0.0,0.0,0.0,0.0004
2025/05/07 10:30:00.898613614,1746606600,898003150,mti/imu_base_body,0.3723934878025481,0.927945081494387,0.0043046718520365485,-0.01491595698824167,0.017453292519943295,0.0,0.0,0.0,0.017453292519943295,0.0,0.0,0.0,0.15707963267948966,0.0009007686749100685,-0.003140955464914441,-0.0640917420387268,0.0004363323129985824,0.0,0.0,0.0,0.0004363323129985824,0.0,0.0,0.0,0.0004363323129985824,-0.25928229093551636,0.0002030854666372761,9.801624298095703,0.0004,0.0,0.0,0.0,0.0004,0.0,0.0,0.0,0.0004
2025/05/07 10:30:00.948374219,1746606600,947933087,mti/imu_base_body,0.37213540074984786,0.9280488835441119,0.004340422139977877,-0.014888720459613806,0.017453292519943295,0.0,0.0,0.0,0.017453292519943295,0.0,0.0,0.0,0.15707963267948966,0.0027415163349360228,0.0036110226064920425,-0.05541481822729111,0.0004363323129985824,0.0,0.0,0.0,0.0004363323129985824,0.0,0.0,0.0,0.0004363323129985824,-0.2779327929019928,0.020467644557356834,9.806084632873535,0.0004,0.0,0.0,0.0,0.0004,0.0,0.0,0.0,0.0004
2025/05/07 10:30:00.998107353,1746606600,997792113,mti/imu_base_body,0.37188438189090023,0.9281491914317649,0.004394888288452693,-0.014891941012376786,0.017453292519943295,0.0,0.0,0.0,0.017453292519943295,0.0,0.0,0.0,0.15707963267948966,0.001348309451714158,0.007342298049479723,-0.04978378862142563,0.0004363323129985824,0.0,0.0,0.0,0.0004363323129985824,0.0,0.0,0.0,0.0004363323129985824,-0.2732977569103241,0.019419703632593155,9.829117774963379,0.0004,0.0,0.0,0.0,0.0004,0.0,0.0,0.0,0.0004
2025/05/07 10:30:01.48223472,1746606601,47822535,mti/imu_base_body,0.3716650256191506,0.9282374594594301,0.004399543163149258,-0.014865113782751994,0.017453292519943295,0.0,0.0,0.0,0.017453292519943295,0.0,0.0,0.0,0.15707963267948966,0.00501259183511138,-0.0007649603649042547,-0.048492543399333954,0.0004363323129985824,0.0,0.0,0.0,0.0004363323129985824,0.0,0.0,0.0,0.0004363323129985824,-0.26513588428497314,0.002853176323696971,9.826358795166016,0.0004,0.0,0.0,0.0,0.0004,0.0,0.0,0.0,0.0004
2025/05/07 10:30:01.98184771,1746606601,97930576,mti/imu_base_body,0.37141400467781954,0.928337639045032,0.004443622647553504,-0.014870080001349258,0.017453292519943295,0.0,0.0,0.0,0.017453292519943295,0.0,0.0,0.0,0.15707963267948966,0.007897783070802689,0.006274083163589239,-0.05513187497854233,0.0004363323129985824,0.0,0.0,0.0,0.0004363323129985824,0.0,0.0,0.0,0.0004363323129985824,-0.2794315218925476,0.002805378520861268,9.804393768310547,0.0004,0.0,0.0,0.0,0.0004,0.0,0.0,0.0,0.0004
2025/05/07 10:30:01.148067152,1746606601,147766162,mti/imu_base_body,0.3711849424557231,0.9284291714540477,0.004467526501033319,-0.014867861119022798,0.017453292519943295,0.0,0.0,0.0,0.017453292519943295,0.0,0.0,0.0,0.15707963267948966,0.0035982897970825434,0.006121384911239147,-0.05225388705730438,0.0004363323129985824,0.0,0.0,0.0,0.0004363323129985824,0.0,0.0,0.0,0.0004363323129985824,-0.2702723741531372,0.014177600853145123,9.804987907409668,0.0004,0.0,0.0,0.0,0.0004,0.0,0.0,0.0,0.0004
2025/05/07 10:30:01.198138647,1746606601,197800095,mti/imu_base_body,0.3709089001097538,0.9285394681905801,0.0045079930104589515,-0.014856709956944828,0.017453292519943295,0.0,0.0,0.0,0.017453292519943295,0.0,0.0,0.0,0.15707963267948966,0.00011470235767774284,0.006919239182025194,-0.05601570010185242,0.0004363323129985824,0.0,0.0,0.0,0.0004363323129985824,0.0,0.0,0.0,0.0004363323129985824,-0.2704325020313263,0.012553757056593895,9.820352554321289,0.0004,0.0,0.0,0.0,0.0004,0.0,0.0,0.0,0.0004
2025/05/07 10:30:01.248128512,1746606601,247775221,mti/imu_base_body,0.37068315824298803,0.9286293493678791,0.004536834385157037,-0.01486421277279715,0.017453292519943295,0.0,0.0,0.0,0.017453292519943295,0.0,0.0,0.0,0.15707963267948966,0.0068833795376122,0.008428909815847874,-0.053424954414367676,0.0004363323129985824,0.0,0.0,0.0,0.0004363323129985824,0.0,0.0,0.0,0.0004363323129985824,-0.2677513659000397,0.0005062205018475652,9.81987190246582,0.0004,0.0,0.0,0.0,0.0004,0.0,0.0,0.0,0.0004
2025/05/07 10:30:01.298211373,1746606601,297895986,mti/imu_base_body,0.37040770461258266,0.9287389615255204,0.004630166737518239,-0.014853796286411085,0.017453292519943295,0.0,0.0,0.0,0.017453292519943295,0.0,0.0,0.0,0.15707963267948966,-0.006254237610846758,0.005014702677726746,-0.06184981390833855,0.0004363323129985824,0.0,0.0,0.0,0.0004363323129985824,0.0,0.0,0.0,0.0004363323129985824,-0.27762097120285034,0.008538016118109226,9.815081596374512,0.0004,0.0,0.0,0.0,0.0004,0.0,0.0,0.0,0.0004
2025/05/07 10:30:01.348020523,1746606601,347783826,mti/imu_base_body,0.3701515793069605,0.9288413739783401,0.004634256084854057,-0.014833542838170549,0.017453292519943295,0.0,0.0,0.0,0.017453292519943295,0.0,0.0,0.0,0.15707963267948966,0.007204984314739704,0.0017620775615796447,-0.05536745861172676,0.0004363323129985824,0.0,0.0,0.0,0.0004363323129985824,0.0,0.0,0.0,0.0004363323129985824,-0.27099406719207764,0.0032772626727819443,9.80295467376709,0.0004,0.0,0.0,0.0,0.0004,0.0,0.0,0.0,0.0004
2025/05/07 10:30:01.398044071,1746606601,397791173,mti/imu_base_body,0.3698515467553277,0.9289607964173062,0.004700507813491708,-0.014818141202960256,0.017453292519943295,0.0,0.0,0.0,0.017453292519943295,0.0,0.0,0.0,0.15707963267948966,-0.004306483548134565,0.006227554753422737,-0.06332903355360031,0.0004363323129985824,0.0,0.0,0.0,0.0004363323129985824,0.0,0.0,0.0,0.0004363323129985824,-0.26015791296958923,0.004613097291439772,9.80954360961914,0.0004,0.0,0.0,0.0,0.0004,0.0,0.0,0.0,0.0004
2025/05/07 10:30:01.448822221,1746606601,448228590,mti/imu_base_body,0.3695966224302853,0.9290622577881569,0.004737362739401238,-0.014805918950630244,0.017453292519943295,0.0,0.0,0.0,0.017453292519943295,0.0,0.0,0.0,0.15707963267948966,0.006370998919010162,0.0029741614125669003,-0.05706992372870445,0.0004363323129985824,0.0,0.0,0.0,0.0004363323129985824,0.0,0.0,0.0,0.0004363323129985824,-0.261355996131897,-0.002796918386593461,9.818787574768066,0.0004,0.0,0.0,0.0,0.0004,0.0,0.0,0.0,0.0004
2025/05/07 10:30:01.498136752,1746606601,497763298,mti/imu_base_body,0.3692753886430323,0.9291895600487736,0.004778133354646003,-0.014819523627605406,0.017453292519943295,0.0,0.0,0.0,0.017453292519943295,0.0,0.0,0.0,0.15707963267948966,0.0017823332455009222,0.008817222900688648,-0.06811964511871338,0.0004363323129985824,0.0,0.0,0.0,0.0004363323129985824,0.0,0.0,0.0,0.0004363323129985824,-0.27226895093917847,-0.0022619101218879223,9.795265197753906,0.0004,0.0,0.0,0.0,0.0004,0.0,0.0,0.0,0.0004
2025/05/07 10:30:01.548152723,1746606601,547792382,mti/imu_base_body,0.36902579392179297,0.9292889790692447,0.004807161091901558,-0.014793512195135519,0.017453292519943295,0.0,0.0,0.0,0.017453292519943295,0.0,0.0,0.0,0.15707963267948966,-0.0021203055512160063,-0.002710130997002125,-0.056655362248420715,0.0004363323129985824,0.0,0.0,0.0,0.0004363323129985824,0.0,0.0,0.0,0.0004363323129985824,-0.28072887659072876,0.024804554879665375,9.794333457946777,0.0004,0.0,0.0,0.0,0.0004,0.0,0.0,0.0,0.0004
2025/05/07 10:30:01.598072926,1746606601,597801946,mti/imu_base_body,0.3687484140475576,0.9294007167237133,0.004834730216757143,-0.014681289949801793,0.017453292519943295,0.0,0.0,0.0,0.017453292519943295,0.0,0.0,0.0,0.15707963267948966,0.0025584453251212835,-0.01258174143731594,-0.054677922278642654,0.0004363323129985824,0.0,0.0,0.0,0.0004363323129985824,0.0,0.0,0.0,0.0004363323129985824,-0.2641555070877075,-0.010550953447818756,9.800561904907227,0.0004,0.0,0.0,0.0,0.0004,0.0,0.0,0.0,0.0004
2025/05/07 10:30:01.648201200,1746606601,647781404,mti/imu_base_body,0.3685058924206597,0.9294973627175747,0.004861741466519501,-0.014643203960856837,0.017453292519943295,0.0,0.0,0.0,0.017453292519943295,0.0,0.0,0.0,0.15707963267948966,0.004404616076499224,-0.0010779734002426267,-0.05018341541290283,0.0004363323129985824,0.0,0.0,0.0,0.0004363323129985824,0.0,0.0,0.0,0.0004363323129985824,-0.26873648166656494,0.011701175011694431,9.82937240600586,0.0004,0.0,0.0,0.0,0.0004,0.0,0.0,0.0,0.0004
2025/05/07 10:30:01.698057977,1746606601,697731222,mti/imu_base_body,0.36825749929412094,0.929596188922057,0.004892411536371252,-0.014608355985064686,0.017453292519943295,0.0,0.0,0.0,0.017453292519943295,0.0,0.0,0.0,0.15707963267948966,0.005696678068488836,-0.00019867726950906217,-0.057462263852357864,0.0004363323129985824,0.0,0.0,0.0,0.0004363323129985824,0.0,0.0,0.0,0.0004363323129985824,-0.2647283375263214,-0.012272544205188751,9.802711486816406,0.0004,0.0,0.0,0.0,0.0004,0.0,0.0,0.0,0.0004
2025/05/07 10:30:01.748203575,1746606601,747815412,mti/imu_base_body,0.3680102470839405,0.929694600926995,0.004906795305182343,-0.014571561626869744,0.017453292519943295,0.0,0.0,0.0,0.017453292519943295,0.0,0.0,0.0,0.15707963267948966,-0.0009625500533729792,-0.004913527984172106,-0.05184083804488182,0.0004363323129985824,0.0,0.0,0.0,0.0004363323129985824,0.0,0.0,0.0,0.0004363323129985824,-0.27655845880508423,0.009611441753804684,9.803449630737305,0.0004,0.0,0.0,0.0,0.0004,0.0,0.0,0.0,0.0004
2025/05/07 10:30:01.798319303,1746606601,797927387,mti/imu_base_body,0.36773977056227725,0.9298025148515526,0.004919658922093912,-0.014510047505853697,0.017453292519943295,0.0,0.0,0.0,0.017453292519943295,0.0,0.0,0.0,0.15707963267948966,0.003145602298900485,-0.003860637079924345,-0.061227019876241684,0.0004363323129985824,0.0,0.0,0.0,0.0004363323129985824,0.0,0.0,0.0,0.0004363323129985824,-0.25917068123817444,-0.004076681099832058,9.811594009399414,0.0004,0.0,0.0,0.0,0.0004,0.0,0.0,0.0,0.0004
2025/05/07 10:30:01.849391015,1746606601,847975674,mti/imu_base_body,0.3674823327831633,0.9299048908083511,0.00496815860645959,-0.014454983328035378,0.017453292519943295,0.0,0.0,0.0,0.017453292519943295,0.0,0.0,0.0,0.15707963267948966,0.00018923022435046732,-0.004262329079210758,-0.056551482528448105,0.0004363323129985824,0.0,0.0,0.0,0.0004363323129985824,0.0,0.0,0.0,0.0004363323129985824,-0.2755138576030731,-0.0007949550054036081,9.823015213012695,0.0004,0.0,0.0,0.0,0.0004,0.0,0.0,0.0,0.0004
2025/05/07 10:30:01.899617678,1746606601,898085666,mti/imu_base_body,0.36721469293298625,0.9300112412938519,0.004991279051213078,-0.014406508759382366,0.017453292519943295,0.0,0.0,0.0,0.017453292519943295,0.0,0.0,0.0,0.15707963267948966,0.0030685679521411657,-0.005295122973620892,-0.05699767544865608,0.0004363323129985824,0.0,0.0,0.0,0.0004363323129985824,0.0,0.0,0.0,0.0004363323129985824,-0.262399822473526,-0.008441025391221046,9.805716514587402,0.0004,0.0,0.0,0.0,0.0004,0.0,0.0,0.0,0.0004
2025/05/07 10:30:01.948459724,1746606601,947975437,mti/imu_base_body,0.36693880717128113,0.9301201145460183,0.005019420997881461,-0.014397559566305642,0.017453292519943295,0.0,0.0,0.0,0.017453292519943295,0.0,0.0,0.0,0.15707963267948966,0.0017316507874056697,0.005756382830440998,-0.0575028657913208,0.0004363323129985824,0.0,0.0,0.0,0.0004363323129985824,0.0,0.0,0.0,0.0004363323129985824,-0.261231392621994,-0.0137344254180789,9.796331405639648,0.0004,0.0,0.0,0.0,0.0004,0.0,0.0,0.0,0.0004
2025/05/07 10:30:01.998254422,1746606601,997941981,mti/imu_base_body,0.36668071903749,0.9302224290703153,0.00506051045724146,-0.014348309119323534,0.017453292519943295,0.0,0.0,0.0,0.017453292519943295,0.0,0.0,0.0,0.15707963267948966,0.0019890074618160725,-0.0031801334116607904,-0.058211423456668854,0.0004363323129985824,0.0,0.0,0.0,0.0004363323129985824,0.0,0.0,0.0,0.0004363323129985824,-0.26060938835144043,-0.004720485769212246,9.808828353881836,0.0004,0.0,0.0,0.0,0.0004,0.0,0.0,0.0,0.0004
2025/05/07 10:30:02.48130206,1746606602,47756587,mti/imu_base_body,0.36640546834871923,0.9303303068787079,0.005118254161805722,-0.014365108473666288,0.017453292519943295,0.0,0.0,0.0,0.017453292519943295,0.0,0.0,0.0,0.15707963267948966,-0.0013441512128338218,0.012608072720468044,-0.057875052094459534,0.0004363323129985824,0.0,0.0,0.0,0.0004363323129985824,0.0,0.0,0.0,0.0004363323129985824,-0.2516375780105591,-0.004766835365444422,9.817806243896484,0.0004,0.0,0.0,0.0,0.0004,0.0,0.0,0.0,0.0004
2025/05/07 10:30:02.98216551,1746606602,97883490,mti/imu_base_body,0.3661356525076839,0.9304361740144301,0.00515406920373632,-0.014375173696498142,0.017453292519943295,0.0,0.0,0.0,0.017453292519943295,0.0,0.0,0.0,0.15707963267948966,0.008254559710621834,0.007284510415047407,-0.056106068193912506,0.0004363323129985824,0.0,0.0,0.0,0.0004363323129985824,0.0,0.0,0.0,0.0004363323129985824,-0.255015105009079,-0.013903592713177204,9.807486534118652,0.0004,0.0,0.0,0.0,0.0004,0.0,0.0,0.0,0.0004
2025/05/07 10:30:02.148494202,1746606602,147997643,mti/imu_base_body,0.3658726022100826,0.9305397768620578,0.005176256131360652,-0.014358586350915706,0.017453292519943295,0.0,0.0,0.0,0.017453292519943295,0.0,0.0,0.0,0.15707963267948966,0.00569123774766922,0.0010357681894674897,-0.06155259534716606,0.0004363323129985824,0.0,0.0,0.0,0.0004363323129985824,0.0,0.0,0.0,0.0004363323129985824,-0.25414150953292847,-0.02470577321946621,9.79825496673584,0.0004,0.0,0.0,0.0,0.0004,0.0,0.0,0.0,0.0004
2025/05/07 10:30:02.198171846,1746606602,197867574,mti/imu_base_body,0.3655891039961533,0.9306516112869753,0.005180656313873748,-0.014329907480649919,0.017453292519943295,0.0,0.0,0.0,0.017453292519943295,0.0,0.0,0.0,0.15707963267948966,0.0076452456414699554,-0.002615430625155568,-0.0573396161198616,0.0004363323129985824,0.0,0.0,0.0,0.0004363323129985824,0.0,0.0,0.0,0.0004363323129985824,-0.2556343972682953,-0.017168844118714333,9.814937591552734,0.0004,0.0,0.0,0.0,0.0004,0.0,0.0,0.0,0.0004
2025/05/07 10:30:02.248232878,1746606602,247828679,mti/imu_base_body,0.3653683729432262,0.9307385348884278,0.005175376306178774,-0.014315977320869791,0.017453292519943295,0.0,0.0,0.0,0.017453292519943295,0.0,0.0,0.0,0.15707963267948966,0.010263603180646896,0.001975481864064932,-0.04414115473628044,0.0004363323129985824,0.0,0.0,0.0,0.0004363323129985824,0.0,0.0,0.0,0.0004363323129985824,-0.24962571263313293,-0.024201178923249245,9.828852653503418,0.0004,0.0,0.0,0.0,0.0004,0.0,0.0,0.0,0.0004
2025/05/07 10:30:02.298600154,1746606602,297915806,mti/imu_base_body,0.3651059149173051,0.9308414839656285,0.005192994660521527,-0.014312072789078756,0.017453292519943295,0.0,0.0,0.0,0.017453292519943295,0.0,0.0,0.0,0.15707963267948966,0.009490336291491985,0.007378802634775639,-0.06279010325670242,0.0004363323129985824,0.0,0.0,0.0,0.0004363323129985824,0.0,0.0,0.0,0.0004363323129985824,-0.2608889937400818,-0.018601547926664352,9.802818298339844,0.0004,0.0,0.0,0.0,0.0004,0.0,0.0,0.0,0.0004
2025/05/07 10:30:02.348295043,1746606602,347931024,mti/imu_base_body,0.3648233688936801,0.9309527798002,0.005194126763590794,-0.014277686735253307,0.017453292519943295,0.0,0.0,0.0,0.017453292519943295,0.0,0.0,0.0,0.15707963267948966,0.008784551173448563,-0.006828549783676863,-0.05500733479857445,0.0004363323129985824,0.0,0.0,0.0,0.0004363323129985824,0.0,0.0,0.0,0.0004363323129985824,-0.24640418589115143,-0.03022684156894684,9.796212196350098,0.0004,0.0,0.0,0.0,0.0004,0.0,0.0,0.0,0.0004
2025/05/07 10:30:02.398116158,1746606602,397780366,mti/imu_base_body,0.36456510009212534,0.9310543032615195,0.005187718239871383,-0.014256919459991791,0.017453292519943295,0.0,0.0,0.0,0.017453292519943295,0.0,0.0,0.0,0.15707963267948966,0.006785584148019552,0.005087920464575291,-0.05851356312632561,0.0004363323129985824,0.0,0.0,0.0,0.0004363323129985824,0.0,0.0,0.0,0.0004363323129985824,-0.24899691343307495,-0.021068723872303963,9.817692756652832,0.0004,0.0,0.0,0.0,0.0004,0.0,0.0,0.0,0.0004
2025/05/07 10:30:02.448142091,1746606602,447745615,mti/imu_base_body,0.3643001508007408,0.9311580479807742,0.005167499769036273,-0.014261372771527838,0.017453292519943295,0.0,0.0,0.0,0.017453292519943295,0.0,0.0,0.0,0.15707963267948966,0.014881384558975697,0.0017880502855405211,-0.05949941277503967,0.0004363323129985824,0.0,0.0,0.0,0.0004363323129985824,0.0,0.0,0.0,0.0004363323129985824,-0.24448497593402863,-0.015181667171418667,9.826695442199707,0.0004,0.0,0.0,0.0,0.0004,0.0,0.0,0.0,0.0004
2025/05/07 10:30:02.498313594,1746606602,497962803,mti/imu_base_body,0.36402281062265146,0.9312661730094287,0.005220743093755736,-0.014263667000689935,0.017453292519943295,0.0,0.0,0.0,0.017453292519943295,0.0,0.0,0.0,0.15707963267948966,0.0009137634187936783,0.002883211011067033,-0.06172061711549759,0.0004363323129985824,0.0,0.0,0.0,0.0004363323129985824,0.0,0.0,0.0,0.0004363323129985824,-0.2575281858444214,-0.010402214713394642,9.795852661132812,0.0004,0.0,0.0,0.0,0.0004,0.0,0.0,0.0,0.0004
2025/05/07 10:30:02.548395390,1746606602,547974779,mti/imu_base_body,0.36374371698744706,0.931375386056231,0.00525804772779906,-0.014239084761825588,0.017453292519943295,0.0,0.0,0.0,0.017453292519943295,0.0,0.0,0.0,0.15707963267948966,0.002015811624005437,0.0009304571431130171,-0.05465444177389145,0.0004363323129985824,0.0,0.0,0.0,0.0004363323129985824,0.0,0.0,0.0,0.0004363323129985824,-0.2602396607398987,-0.008324447087943554,9.795855522155762,0.0004,0.0,0.0,0.0,0.0004,0.0,0.0,0.0,0.0004
2025/05/07 10:30:02.598782076,1746606602,598174852,mti/imu_base_body,0.3634943505828192,0.9314734643731564,0.005263377375921607,-0.01418940173662437,0.017453292519943295,0.0,0.0,0.0,0.017453292519943295,0.0,0.0,0.0,0.15707963267948966,0.004056612960994244,-0.0026346032973378897,-0.05655589699745178,0.0004363323129985824,0.0,0.0,0.0,0.0004363323129985824,0.0,0.0,0.0,0.0004363323129985824,-0.2561918795108795,-0.0051241167820990086,9.815545082092285,0.0004,0.0,0.0,0.0,0.0004,0.0,0.0,0.0,0.0004
2025/05/07 10:30:02.648728289,1746606602,648164414,mti/imu_base_body,0.36326160504841815,0.9315640273047072,0.005287751721237503,-0.014195386969595773,0.017453292519943295,0.0,0.0,0.0,0.017453292519943295,0.0,0.0,0.0,0.15707963267948966,0.004890908021479845,0.01174516323953867,-0.04715556651353836,0.0004363323129985824,0.0,0.0,0.0,0.0004363323129985824,0.0,0.0,0.0,0.0004363323129985824,-0.23989500105381012,-0.006545912940055132,9.825601577758789,0.0004,0.0,0.0,0.0,0.0004,0.0,0.0,0.0,0.0004
2025/05/07 10:30:02.699926858,1746606602,698091818,mti/imu_base_body,0.36300195269191476,0.9316648006184434,0.0053111356474028594,-0.01421525478448549,0.017453292519943295,0.0,0.0,0.0,0.017453292519943295,0.0,0.0,0.0,0.15707963267948966,0.0058341259136796,0.0071019665338099,-0.05828647315502167,0.0004363323129985824,0.0,0.0,0.0,0.0004363323129985824,0.0,0.0,0.0,0.0004363323129985824,-0.24354194104671478,-4.3846419430337846e-05,9.796921730041504,0.0004,0.0,0.0,0.0,0.0004,0.0,0.0,0.0,0.0004
2025/05/07 10:30:02.748487978,1746606602,747930747,mti/imu_base_body,0.3627496557583125,0.9317632857980471,0.005356068174370014,-0.01418375901388192,0.017453292519943295,0.0,0.0,0.0,0.017453292519943295,0.0,0.0,0.0,0.15707963267948966,0.0019272099016234279,0.0009957975707948208,-0.05278623849153519,0.0004363323129985824,0.0,0.0,0.0,0.0004363323129985824,0.0,0.0,0.0,0.0004363323129985824,-0.27540576457977295,-0.014197655022144318,9.789274215698242,0.0004,0.0,0.0,0.0,0.0004,0.0,0.0,0.0,0.0004
2025/05/07 10:30:02.798027336,1746606602,797767825,mti/imu_base_body,0.36251674972810816,0.9318535580392864,0.0054175392594163875,-0.014184597437475337,0.017453292519943295,0.0,0.0,0.0,0.017453292519943295,0.0,0.0,0.0,0.15707963267948966,0.0031346294563263655,0.005500731058418751,-0.049353692680597305,0.0004363323129985824,0.0,0.0,0.0,0.0004363323129985824,0.0,0.0,0.0,0.0004363323129985824,-0.2780928909778595,-0.011054285801947117,9.815320014953613,0.0004,0.0,0.0,0.0,0.0004,0.0,0.0,0.0,0.0004
2025/05/07 10:30:02.848303910,1746606602,847796440,mti/imu_base_body,0.36223510771011147,0.9319632910409438,0.005429069448315987,-0.014166019176261108,0.017453292519943295,0.0,0.0,0.0,0.017453292519943295,0.0,0.0,0.0,0.15707963267948966,0.0026070261374115944,0.003226339351385832,-0.06203843280673027,0.0004363323129985824,0.0,0.0,0.0,0.0004363323129985824,0.0,0.0,0.0,0.0004363323129985824,-0.25270089507102966,-0.013782807625830173,9.821062088012695,0.0004,0.0,0.0,0.0,0.0004,0.0,0.0,0.0,0.0004
2025/05/07 10:30:02.898419703,1746606602,897977967,mti/imu_base_body,0.3619116133540748,0.9320888946251067,0.005418319539465866,-0.014174570517854847,0.017453292519943295,0.0,0.0,0.0,0.017453292519943295,0.0,0.0,0.0,0.15707963267948966,0.013198026455938816,0.004174061119556427,-0.07268210500478745,0.0004363323129985824,0.0,0.0,0.0,0.0004363323129985824,0.0,0.0,0.0,0.0004363323129985824,-0.2548791468143463,-0.013332666829228401,9.80473804473877,0.0004,0.0,0.0,0.0,0.0004,0.0,0.0,0.0,0.0004
2025/05/07 10:30:02.949306792,1746606602,947964059,mti/imu_base_body,0.3616707035562348,0.9321819137031337,0.0054574465962254366,-0.01419148443788685,0.017453292519943295,0.0,0.0,0.0,0.017453292519943295,0.0,0.0,0.0,0.15707963267948966,0.009097241796553135,0.010436316952109337,-0.047196418046951294,0.0004363323129985824,0.0,0.0,0.0,0.0004363323129985824,0.0,0.0,0.0,0.0004363323129985824,-0.25590917468070984,-0.027274662628769875,9.805583000183105,0.0004,0.0,0.0,0.0,0.0004,0.0,0.0,0.0,0.0004
2025/05/07 10:30:02.999697023,1746606602,997967297,mti/imu_base_body,0.361425324810207,0.9322766738963697,0.005494349297517814,-0.014203873427860659,0.017453292519943295,0.0,0.0,0.0,0.017453292519943295,0.0,0.0,0.0,0.15707963267948966,0.0012578761670738459,0.004505500663071871,-0.05153334140777588,0.0004363323129985824,0.0,0.0,0.0,0.0004363323129985824,0.0,0.0,0.0,0.0004363323129985824,-0.2544334828853607,-0.01853932812809944,9.82995891571045,0.0004,0.0,0.0,0.0,0.0004,0.0,0.0,0.0,0.0004
2025/05/07 10:30:03.49134160,1746606603,47905975,mti/imu_base_body,0.3611642756092821,0.9323774483235778,0.0055360059732951425,-0.014213110817127523,0.017453292519943295,0.0,0.0,0.0,0.017453292519943295,0.0,0.0,0.0,0.15707963267948966,0.00490160658955574,0.010056627914309502,-0.058315638452768326,0.0004363323129985824,0.0,0.0,0.0,0.0004363323129985824,0.0,0.0,0.0,0.0004363323129985824,-0.25687524676322937,0.003542000660672784,9.819999694824219,0.0004,0.0,0.0,0.0,0.0004,0.0,0.0,0.0,0.0004
2025/05/07 10:30:03.98378641,1746606603,97985683,mti/imu_base_body,0.36093346479474064,0.9324670234782415,0.005523727141179558,-0.01420466667550237,0.017453292519943295,0.0,0.0,0.0,0.017453292519943295,0.0,0.0,0.0,0.15707963267948966,0.015519900247454643,0.0044122361578047276,-0.05161944031715393,0.0004363323129985824,0.0,0.0,0.0,0.0004363323129985824,0.0,0.0,0.0,0.0004363323129985824,-0.24396763741970062,-0.018261823803186417,9.800189018249512,0.0004,0.0,0.0,0.0,0.0004,0.0,0.0,0.0,0.0004
2025/05/07 10:30:03.148199901,1746606603,147842871,mti/imu_base_body,0.3606452608621427,0.9325780859022716,0.0055287347672049614,-0.01423174635827301,0.017453292519943295,0.0,0.0,0.0,0.017453292519943295,0.0,0.0,0.0,0.15707963267948966,0.009243972599506378,0.0026437260676175356,-0.059618543833494186,0.0004363323129985824,0.0,0.0,0.0,0.0004363323129985824,0.0,0.0,0.0,0.0004363323129985824,-0.2699475884437561,-0.010717189870774746,9.806568145751953,0.0004,0.0,0.0,0.0,0.0004,0.0,0.0,0.0,0.0004
2025/05/07 10:30:03.198112479,1746606603,197782861,mti/imu_base_body,0.3604103819789725,0.9326690266016822,0.005499824946511585,-0.01423359776021569,0.017453292519943295,0.0,0.0,0.0,0.017453292519943295,0.0,0.0,0.0,0.15707963267948966,0.015290441922843456,0.006430470384657383,-0.051880765706300735,0.0004363323129985824,0.0,0.0,0.0,0.0004363323129985824,0.0,0.0,0.0,0.0004363323129985824,-0.27915775775909424,-0.006822522729635239,9.808505058288574,0.0004,0.0,0.0,0.0,0.0004,0.0,0.0,0.0,0.0004
2025/05/07 10:30:03.248283240,1746606603,247887967,mti/imu_base_body,0.3601620906619875,0.9327651143026261,0.005511407239941721,-0.014217397097590945,0.017453292519943295,0.0,0.0,0.0,0.017453292519943295,0.0,0.0,0.0,0.15707963267948966,0.004699810408055782,-0.0006249627331271768,-0.0545986108481884,0.0004363323129985824,0.0,0.0,0.0,0.0004363323129985824,0.0,0.0,0.0,0.0004363323129985824,-0.2751163840293884,-0.006394741591066122,9.810308456420898,0.0004,0.0,0.0,0.0,0.0004,0.0,0.0,0.0,0.0004
2025/05/07 10:30:03.298271845,1746606603,297911878,mti/imu_base_body,0.3598773124355061,0.9328745746664184,0.005521339747783412,-0.014242989241568693,0.017453292519943295,0.0,0.0,0.0,0.017453292519943295,0.0,0.0,0.0,0.15707963267948966,0.013584811240434647,0.011242440901696682,-0.057998135685920715,0.0004363323129985824,0.0,0.0,0.0,0.0004363323129985824,0.0,0.0,0.0,0.0004363323129985824,-0.2531529366970062,-0.010432610288262367,9.808466911315918,0.0004,0.0,0.0,0.0,0.0004,0.0,0.0,0.0,0.0004
2025/05/07 10:30:03.348229554,1746606603,347832194,mti/imu_base_body,0.3596391319942265,0.9329664408102558,0.005512320320185986,-0.014245328531496904,0.017453292519943295,0.0,0.0,0.0,0.017453292519943295,0.0,0.0,0.0,0.15707963267948966,0.01695319265127182,0.0019218948436900973,-0.0526469387114048,0.0004363323129985824,0.0,0.0,0.0,0.0004363323129985824,0.0,0.0,0.0,0.0004363323129985824,-0.2602554261684418,-0.028965933248400688,9.794561386108398,0.0004,0.0,0.0,0.0,0.0004,0.0,0.0,0.0,0.0004
2025/05/07 10:30:03.398106715,1746606603,397789550,mti/imu_base_body,0.3593916147137017,0.9330611733571721,0.005514129232059524,-0.01428665200902602,0.017453292519943295,0.0,0.0,0.0,0.017453292519943295,0.0,0.0,0.0,0.15707963267948966,0.004626582842320204,0.010249484330415726,-0.05186409130692482,0.0004363323129985824,0.0,0.0,0.0,0.0004363323129985824,0.0,0.0,0.0,0.0004363323129985824,-0.24865004420280457,-0.02394842728972435,9.816499710083008,0.0004,0.0,0.0,0.0,0.0004,0.0,0.0,0.0,0.0004
2025/05/07 10:30:03.448379099,1746606603,447949307,mti/imu_base_body,0.35912468099253414,0.9331636513015433,0.0055262635179254005,-0.01430118187817735,0.017453292519943295,0.0,0.0,0.0,0.017453292519943295,0.0,0.0,0.0,0.15707963267948966,0.010062632150948048,0.011388557963073254,-0.05620378255844116,0.0004363323129985824,0.0,0.0,0.0,0.0004363323129985824,0.0,0.0,0.0,0.0004363323129985824,-0.2547638714313507,-0.014992963522672653,9.814353942871094,0.0004,0.0,0.0,0.0,0.0004,0.0,0.0,0.0,0.0004
2025/05/07 10:30:03.498342239,1746606603,497948836,mti/imu_base_body,0.35883479841699734,0.9332746858041057,0.005564560147653929,-0.0143172606543214,0.017453292519943295,0.0,0.0,0.0,0.017453292519943295,0.0,0.0,0.0,0.15707963267948966,0.007948828861117363,0.005758410785347223,-0.0660477876663208,0.0004363323129985824,0.0,0.0,0.0,0.0004363323129985824,0.0,0.0,0.0,0.0004363323129985824,-0.25340521335601807,-0.013102426193654537,9.815918922424316,0.0004,0.0,0.0,0.0,0.0004,0.0,0.0,0.0,0.0004
2025/05/07 10:30:03.548217323,1746606603,547837104,mti/imu_base_body,0.35859935465640075,0.9333656513341395,0.005568888646723191,-0.014284650112993857,0.017453292519943295,0.0,0.0,0.0,0.017453292519943295,0.0,0.0,0.0,0.15707963267948966,0.007358998991549015,-0.0037599115166813135,-0.05075780674815178,0.0004363323129985824,0.0,0.0,0.0,0.0004363323129985824,0.0,0.0,0.0,0.0004363323129985824,-0.2561163604259491,-0.015275944024324417,9.802480697631836,0.0004,0.0,0.0,0.0,0.0004,0.0,0.0,0.0,0.0004
2025/05/07 10:30:03.598176731,1746606603,597794221,mti/imu_base_body,0.35832787787108944,0.9334696716488302,0.005539097426158031,-0.014311619472652377,0.017453292519943295,0.0,0.0,0.0,0.017453292519943295,0.0,0.0,0.0,0.15707963267948966,0.019874555990099907,0.00846857763826847,-0.05183447524905205,0.0004363323129985824,0.0,0.0,0.0,0.0004363323129985824,0.0,0.0,0.0,0.0004363323129985824,-0.24549216032028198,-0.021504893898963928,9.822265625,0.0004,0.0,0.0,0.0,0.0004,0.0,0.0,0.0,0.0004
2025/05/07 10:30:03.648344189,1746606603,647950831,mti/imu_base_body,0.3580871423483743,0.9335618981564042,0.005524455109268144,-0.014326939349783345,0.017453292519943295,0.0,0.0,0.0,0.017453292519943295,0.0,0.0,0.0,0.15707963267948966,0.011611212976276875,0.006876551080495119,-0.055312082171440125,0.0004363323129985824,0.0,0.0,0.0,0.0004363323129985824,0.0,0.0,0.0,0.0004363323129985824,-0.24549399316310883,-0.020858973264694214,9.81794548034668,0.0004,0.0,0.0,0.0,0.0004,0.0,0.0,0.0,0.0004
2025/05/07 10:30:03.698158903,1746606603,697778069,mti/imu_base_body,0.3578144865966432,0.9336667117846231,0.005530865206791587,-0.014306432711691342,0.017453292519943295,0.0,0.0,0.0,0.017453292519943295,0.0,0.0,0.0,0.15707963267948966,0.00974852591753006,-0.00018285760597791523,-0.06235766410827637,0.0004363323129985824,0.0,0.0,0.0,0.0004363323129985824,0.0,0.0,0.0,0.0004363323129985824,-0.24506375193595886,-0.016384929418563843,9.789748191833496,0.0004,0.0,0.0,0.0,0.0004,0.0,0.0,0.0,0.0004
2025/05/07 10:30:03.748181378,1746606603,747751690,mti/imu_base_body,0.35751778648849575,0.9337807753424008,0.005540171237138016,-0.014275939477821008,0.017453292519943295,0.0,0.0,0.0,0.017453292519943295,0.0,0.0,0.0,0.15707963267948966,0.00848023034632206,-0.0029993874486535788,-0.06191623583436012,0.0004363323129985824,0.0,0.0,0.0,0.0004363323129985824,0.0,0.0,0.0,0.0004363323129985824,-0.25161629915237427,-0.025373216718435287,9.80955696105957,0.0004,0.0,0.0,0.0,0.0004,0.0,0.0,0.0,0.0004
2025/05/07 10:30:03.798224834,1746606603,797774339,mti/imu_base_body,0.3572692200850383,0.9338760022663042,0.00551415269029153,-0.014279737078900803,0.017453292519943295,0.0,0.0,0.0,0.017453292519943295,0.0,0.0,0.0,0.15707963267948966,0.01364857703447342,0.009390211664140224,-0.05522418022155762,0.0004363323129985824,0.0,0.0,0.0,0.0004363323129985824,0.0,0.0,0.0,0.0004363323129985824,-0.2522635757923126,-0.016371285542845726,9.814591407775879,0.0004,0.0,0.0,0.0,0.0004,0.0,0.0,0.0,0.0004
2025/05/07 10:30:03.865782324,1746606603,848657379,mti/imu_base_body,0.3569734720680709,0.9339884861116268,0.005530599640465528,-0.014312949318530346,0.017453292519943295,0.0,0.0,0.0,0.017453292519943295,0.0,0.0,0.0,0.15707963267948966,0.007739006541669369,0.0044393399730324745,-0.06297779828310013,0.0004363323129985824,0.0,0.0,0.0,0.0004363323129985824,0.0,0.0,0.0,0.0004363323129985824,-0.24914908409118652,-0.019304202869534492,9.803309440612793,0.0004,0.0,0.0,0.0,0.0004,0.0,0.0,0.0,0.0004
2025/05/07 10:30:03.898196924,1746606603,897802034,mti/imu_base_body,0.35670665263984214,0.9340902448879875,0.005550037564311719,-0.014316963735831252,0.017453292519943295,0.0,0.0,0.0,0.017453292519943295,0.0,0.0,0.0,0.15707963267948966,0.0036716777831315994,0.006985062267631292,-0.055871568620204926,0.0004363323129985824,0.0,0.0,0.0,0.0004363323129985824,0.0,0.0,0.0,0.0004363323129985824,-0.26864075660705566,-0.012340223416686058,9.792166709899902,0.0004,0.0,0.0,0.0,0.0004,0.0,0.0,0.0,0.0004
2025/05/07 10:30:03.948427053,1746606603,947967368,mti/imu_base_body,0.35644172113858974,0.9341913070263426,0.005592231069124701,-0.014304833443390355,0.017453292519943295,0.0,0.0,0.0,0.017453292519943295,0.0,0.0,0.0,0.15707963267948966,0.00736232241615653,0.006061584688723087,-0.05234556645154953,0.0004363323129985824,0.0,0.0,0.0,0.0004363323129985824,0.0,0.0,0.0,0.0004363323129985824,-0.26511150598526,-0.016379032284021378,9.804526329040527,0.0004,0.0,0.0,0.0,0.0004,0.0,0.0,0.0,0.0004
2025/05/07 10:30:03.998093348,1746606603,997761060,mti/imu_base_body,0.35616788357221213,0.9342951543120386,0.0055912505624896676,-0.014343683553488234,0.017453292519943295,0.0,0.0,0.0,0.017453292519943295,0.0,0.0,0.0,0.15707963267948966,0.010947699658572674,0.01006690226495266,-0.06211952492594719,0.0004363323129985824,0.0,0.0,0.0,0.0004363323129985824,0.0,0.0,0.0,0.0004363323129985824,-0.2653905749320984,-0.01678318716585636,9.812202453613281,0.0004,0.0,0.0,0.0,0.0004,0.0,0.0,0.0,0.0004
2025/05/07 10:30:04.48374350,1746606604,47957449,mti/imu_base_body,0.35589629770608455,0.9343984433476701,0.0056226072880244645,-0.014344359024979166,0.017453292519943295,0.0,0.0,0.0,0.017453292519943295,0.0,0.0,0.0,0.15707963267948966,0.008154979906976223,0.005145295988768339,-0.054060280323028564,0.0004363323129985824,0.0,0.0,0.0,0.0004363323129985824,0.0,0.0,0.0,0.0004363323129985824,-0.24941538274288177,-0.02487882226705551,9.807025909423828,0.0004,0.0,0.0,0.0,0.0004,0.0,0.0,0.0,0.0004
2025/05/07 10:30:04.98141226,1746606604,97787593,mti/imu_base_body,0.355673250254001,0.9344835747888334,0.005607736062213682,-0.014336694175928186,0.017453292519943295,0.0,0.0,0.0,0.017453292519943295,0.0,0.0,0.0,0.15707963267948966,0.013238155283033848,0.00507462490350008,-0.0478389747440815,0.0004363323129985824,0.0,0.0,0.0,0.0004363323129985824,0.0,0.0,0.0,0.0004363323129985824,-0.25133711099624634,-0.027497082948684692,9.803079605102539,0.0004,0.0,0.0,0.0,0.0004,0.0,0.0,0.0,0.0004
