time,header_stamp_secs,header_stamp_nsecs,header_frame_id,orientation_x,orientation_y,orientation_z,orientation_w,orientation_covariance_0,orientation_covariance_1,orientation_covariance_2,orientation_covariance_3,orientation_covariance_4,orientation_covariance_5,orientation_covariance_6,orientation_covariance_7,orientation_covariance_8,angular_velocity_x,angular_velocity_y,angular_velocity_z,angular_velocity_covariance_0,angular_velocity_covariance_1,angular_velocity_covariance_2,angular_velocity_covariance_3,angular_velocity_covariance_4,angular_velocity_covariance_5,angular_velocity_covariance_6,angular_velocity_covariance_7,angular_velocity_covariance_8,linear_acceleration_x,linear_acceleration_y,linear_acceleration_z,linear_acceleration_covariance_0,linear_acceleration_covariance_1,linear_acceleration_covariance_2,linear_acceleration_covariance_3,linear_acceleration_covariance_4,linear_acceleration_covariance_5,linear_acceleration_covariance_6,linear_acceleration_covariance_7,linear_acceleration_covariance_8
2025/05/07 10:35:31.248388986,1746606931,248002106,mti/imu_base_body,0.16426280682290045,0.9863158524873377,0.008514665878900448,-0.011236987666180606,0.017453292519943295,0.0,0.0,0.0,0.017453292519943295,0.0,0.0,0.0,0.15707963267948966,0.017329124733805656,0.02219177968800068,0.003980918787419796,0.0004363323129985824,0.0,0.0,0.0,0.0004363323129985824,0.0,0.0,0.0,0.0004363323129985824,-0.09221333265304565,-0.09591840952634811,9.81008529663086,0.0004,0.0,0.0,0.0,0.0004,0.0,0.0,0.0,0.0004
2025/05/07 10:35:31.299237841,1746606931,298056843,mti/imu_base_body,0.16417565244663024,0.9863295012149984,0.008506766126935641,-0.011318352652096745,0.017453292519943295,0.0,0.0,0.0,0.017453292519943295,0.0,0.0,0.0,0.15707963267948966,0.012918252497911453,0.019220219925045967,0.0026542851701378822,0.0004363323129985824,0.0,0.0,0.0,0.0004363323129985824,0.0,0.0,0.0,0.0004363323129985824,-0.08524607867002487,-0.09173905849456787,9.848852157592773,0.0004,0.0,0.0,0.0,0.0004,0.0,0.0,0.0,0.0004
2025/05/07 10:35:31.349840651,1746606931,348105628,mti/imu_base_body,0.1640586888033087,0.9863487041338963,0.008428057344746661,-0.01139948818660353,0.017453292519943295,0.0,0.0,0.0,0.017453292519943295,0.0,0.0,0.0,0.15707963267948966,0.029211873188614845,0.016760334372520447,-0.003779237624257803,0.0004363323129985824,0.0,0.0,0.0,0.0004363323129985824,0.0,0.0,0.0,0.0004363323129985824,-0.07066453248262405,-0.06342925131320953,9.867328643798828,0.0004,0.0,0.0,0.0,0.0004,0.0,0.0,0.0,0.0004
2025/05/07 10:35:31.429024980,1746606931,402262283,mti/imu_base_body,0.16393189628946192,0.9863691923332879,0.008372163607235585,-0.011491591328098604,0.017453292519943295,0.0,0.0,0.0,0.017453292519943295,0.0,0.0,0.0,0.15707963267948966,0.023479517549276352,0.021694166585803032,-0.006068706512451172,0.0004363323129985824,0.0,0.0,0.0,0.0004363323129985824,0.0,0.0,0.0,0.0004363323129985824,-0.07862412929534912,-0.09551747143268585,9.848722457885742,0.0004,0.0,0.0,0.0,0.0004,0.0,0.0,0.0,0.0004
2025/05/07 10:35:31.451635996,1746606931,450608554,mti/imu_base_body,0.16379469329645385,0.9863918084410703,0.008284449950963,-0.011570072484019969,0.017453292519943295,0.0,0.0,0.0,0.017453292519943295,0.0,0.0,0.0,0.15707963267948966,0.027511633932590485,0.02120519056916237,-0.007583024445921183,0.0004363323129985824,0.0,0.0,0.0,0.0004363323129985824,0.0,0.0,0.0,0.0004363323129985824,-0.08688831329345703,-0.13812947273254395,9.82125186920166,0.0004,0.0,0.0,0.0,0.0004,0.0,0.0,0.0,0.0004
2025/05/07 10:35:31.504138215,1746606931,499324348,mti/imu_base_body,0.16367140204651565,0.9864112782668749,0.008196870852935283,-0.01171638033941226,0.017453292519943295,0.0,0.0,0.0,0.017453292519943295,0.0,0.0,0.0,0.15707963267948966,0.03068925254046917,0.030553195625543594,-0.007976348511874676,0.0004363323129985824,0.0,0.0,0.0,0.0004363323129985824,0.0,0.0,0.0,0.0004363323129985824,-0.0834977775812149,-0.09093444794416428,9.828445434570312,0.0004,0.0,0.0,0.0,0.0004,0.0,0.0,0.0,0.0004
2025/05/07 10:35:31.551398088,1746606931,547997068,mti/imu_base_body,0.16352823700741548,0.9864342012903732,0.00816517533418876,-0.011807291714524229,0.017453292519943295,0.0,0.0,0.0,0.017453292519943295,0.0,0.0,0.0,0.15707963267948966,0.018182367086410522,0.01801593042910099,-0.00760773615911603,0.0004363323129985824,0.0,0.0,0.0,0.0004363323129985824,0.0,0.0,0.0,0.0004363323129985824,-0.06745888292789459,-0.07664123177528381,9.845954895019531,0.0004,0.0,0.0,0.0,0.0004,0.0,0.0,0.0,0.0004
2025/05/07 10:35:31.616436090,1746606931,598299875,mti/imu_base_body,0.1633959364762077,0.9864552725189892,0.00813094071653853,-0.011901725320892169,0.017453292519943295,0.0,0.0,0.0,0.017453292519943295,0.0,0.0,0.0,0.15707963267948966,0.018999801948666573,0.019702713936567307,-0.009369599632918835,0.0004363323129985824,0.0,0.0,0.0,0.0004363323129985824,0.0,0.0,0.0,0.0004363323129985824,-0.0768723115324974,-0.10861038416624069,9.8321533203125,0.0004,0.0,0.0,0.0,0.0004,0.0,0.0,0.0,0.0004
2025/05/07 10:35:31.648745543,1746606931,648395407,mti/imu_base_body,0.1632702574620461,0.9864753990398498,0.008075792791405243,-0.011995486160900562,0.017453292519943295,0.0,0.0,0.0,0.017453292519943295,0.0,0.0,0.0,0.15707963267948966,0.025373904034495354,0.022857120260596275,0.0027457717806100845,0.0004363323129985824,0.0,0.0,0.0,0.0004363323129985824,0.0,0.0,0.0,0.0004363323129985824,-0.07567369937896729,-0.11347344517707825,9.808992385864258,0.0004,0.0,0.0,0.0,0.0004,0.0,0.0,0.0,0.0004
2025/05/07 10:35:31.699169303,1746606931,697983926,mti/imu_base_body,0.1631981026683163,0.9864864884386322,0.008043360669810465,-0.0120868425411095,0.017453292519943295,0.0,0.0,0.0,0.017453292519943295,0.0,0.0,0.0,0.15707963267948966,0.013291318900883198,0.02371230348944664,0.0019030059920623899,0.0004363323129985824,0.0,0.0,0.0,0.0004363323129985824,0.0,0.0,0.0,0.0004363323129985824,-0.05676206201314926,-0.062126073986291885,9.841498374938965,0.0004,0.0,0.0,0.0,0.0004,0.0,0.0,0.0,0.0004
2025/05/07 10:35:31.749472477,1746606931,748130974,mti/imu_base_body,0.16310742850349413,0.9865000108916524,0.008021794659313202,-0.012220723717976436,0.017453292519943295,0.0,0.0,0.0,0.017453292519943295,0.0,0.0,0.0,0.15707963267948966,0.01900477148592472,0.030188005417585373,-0.0014699255116283894,0.0004363323129985824,0.0,0.0,0.0,0.0004363323129985824,0.0,0.0,0.0,0.0004363323129985824,-0.06275420635938644,-0.07783422619104385,9.852668762207031,0.0004,0.0,0.0,0.0,0.0004,0.0,0.0,0.0,0.0004
2025/05/07 10:35:31.973087266,1746606931,798105107,mti/imu_base_body,0.16297157925650568,0.9865218624603445,0.00795552096466721,-0.012312145572341148,0.017453292519943295,0.0,0.0,0.0,0.017453292519943295,0.0,0.0,0.0,0.15707963267948966,0.02445172145962715,0.017420733347535133,-0.004122855141758919,0.0004363323129985824,0.0,0.0,0.0,0.0004363323129985824,0.0,0.0,0.0,0.0004363323129985824,-0.08000507205724716,-0.09072760492563248,9.818962097167969,0.0004,0.0,0.0,0.0,0.0004,0.0,0.0,0.0,0.0004
2025/05/07 10:35:32.10080798,1746606931,848069924,mti/imu_base_body,0.1628457967089011,0.9865415527329798,0.007926366996367062,-0.012417082253217849,0.017453292519943295,0.0,0.0,0.0,0.017453292519943295,0.0,0.0,0.0,0.15707963267948966,0.017798801884055138,0.023807527497410774,-0.005649743601679802,0.0004363323129985824,0.0,0.0,0.0,0.0004363323129985824,0.0,0.0,0.0,0.0004363323129985824,-0.08487178385257721,-0.09613648056983948,9.832404136657715,0.0004,0.0,0.0,0.0,0.0004,0.0,0.0,0.0,0.0004
2025/05/07 10:35:32.35929116,1746606931,898065467,mti/imu_base_body,0.16274569879342776,0.9865569666933665,0.007898647381451813,-0.012521995151185242,0.017453292519943295,0.0,0.0,0.0,0.017453292519943295,0.0,0.0,0.0,0.15707963267948966,0.02102600410580635,0.028182929381728172,-0.0012577089946717024,0.0004363323129985824,0.0,0.0,0.0,0.0004363323129985824,0.0,0.0,0.0,0.0004363323129985824,-0.0872187465429306,-0.10271718353033066,9.826642990112305,0.0004,0.0,0.0,0.0,0.0004,0.0,0.0,0.0,0.0004
2025/05/07 10:35:32.51353623,1746606931,948007610,mti/imu_base_body,0.1626491017903861,0.9865717319129641,0.00785696955900783,-0.012639442487055149,0.017453292519943295,0.0,0.0,0.0,0.017453292519943295,0.0,0.0,0.0,0.15707963267948966,0.01772124506533146,0.021820034831762314,0.0016520950011909008,0.0004363323129985824,0.0,0.0,0.0,0.0004363323129985824,0.0,0.0,0.0,0.0004363323129985824,-0.06368795037269592,-0.09488681703805923,9.821343421936035,0.0004,0.0,0.0,0.0,0.0004,0.0,0.0,0.0,0.0004
2025/05/07 10:35:32.87620965,1746606931,998414586,mti/imu_base_body,0.16254366620219435,0.9865883121897958,0.007816412912350953,-0.012726449513629456,0.017453292519943295,0.0,0.0,0.0,0.017453292519943295,0.0,0.0,0.0,0.15707963267948966,0.025720937177538872,0.025152776390314102,-0.003692561062052846,0.0004363323129985824,0.0,0.0,0.0,0.0004363323129985824,0.0,0.0,0.0,0.0004363323129985824,-0.07890632003545761,-0.09735413640737534,9.84620189666748,0.0004,0.0,0.0,0.0,0.0004,0.0,0.0,0.0,0.0004
2025/05/07 10:35:32.112445805,1746606932,48164344,mti/imu_base_body,0.1624150095852916,0.9866084142284652,0.007771819383848173,-0.012837463085342197,0.017453292519943295,0.0,0.0,0.0,0.017453292519943295,0.0,0.0,0.0,0.15707963267948966,0.018326833844184875,0.02548406645655632,-0.006570953410118818,0.0004363323129985824,0.0,0.0,0.0,0.0004363323129985824,0.0,0.0,0.0,0.0004363323129985824,-0.09688650071620941,-0.10790170729160309,9.801324844360352,0.0004,0.0,0.0,0.0,0.0004,0.0,0.0,0.0,0.0004
2025/05/07 10:35:32.160603630,1746606932,98176213,mti/imu_base_body,0.16228063784514096,0.9866293746992787,0.007738484383136271,-0.012945556014969545,0.017453292519943295,0.0,0.0,0.0,0.017453292519943295,0.0,0.0,0.0,0.15707963267948966,0.016445916146039963,0.02540791966021061,-0.003692351747304201,0.0004363323129985824,0.0,0.0,0.0,0.0004363323129985824,0.0,0.0,0.0,0.0004363323129985824,-0.05969071760773659,-0.08768833428621292,9.78977108001709,0.0004,0.0,0.0,0.0,0.0004,0.0,0.0,0.0,0.0004
2025/05/07 10:35:32.160756434,1746606932,148072150,mti/imu_base_body,0.16221778726099528,0.9866384735712546,0.007700471234040787,-0.013061956511364756,0.017453292519943295,0.0,0.0,0.0,0.017453292519943295,0.0,0.0,0.0,0.15707963267948966,0.022028710693120956,0.02896433137357235,0.0038704441394656897,0.0004363323129985824,0.0,0.0,0.0,0.0004363323129985824,0.0,0.0,0.0,0.0004363323129985824,-0.041901323944330215,-0.08636172115802765,9.851083755493164,0.0004,0.0,0.0,0.0,0.0004,0.0,0.0,0.0,0.0004
2025/05/07 10:35:32.206669043,1746606932,198195645,mti/imu_base_body,0.16212046571510558,0.9866531576577244,0.007643885021816502,-0.013193638699465073,0.017453292519943295,0.0,0.0,0.0,0.017453292519943295,0.0,0.0,0.0,0.15707963267948966,0.02342597208917141,0.019976649433374405,0.0013822094770148396,0.0004363323129985824,0.0,0.0,0.0,0.0004363323129985824,0.0,0.0,0.0,0.0004363323129985824,-0.06681344658136368,-0.1109866201877594,9.822182655334473,0.0004,0.0,0.0,0.0,0.0004,0.0,0.0,0.0,0.0004
2025/05/07 10:35:32.250396193,1746606932,249102210,mti/imu_base_body,0.16202451661804157,0.9866679671983809,0.0076350298077750055,-0.013269696271542349,0.017453292519943295,0.0,0.0,0.0,0.017453292519943295,0.0,0.0,0.0,0.15707963267948966,0.014581331983208656,0.02168945223093033,-0.0036045501474291086,0.0004363323129985824,0.0,0.0,0.0,0.0004363323129985824,0.0,0.0,0.0,0.0004363323129985824,-0.09418591856956482,-0.100258469581604,9.766755104064941,0.0004,0.0,0.0,0.0,0.0004,0.0,0.0,0.0,0.0004
2025/05/07 10:35:32.304960307,1746606932,298223004,mti/imu_base_body,0.1619409606998874,0.9866811432193945,0.00760190008949491,-0.013328840080647664,0.017453292519943295,0.0,0.0,0.0,0.017453292519943295,0.0,0.0,0.0,0.15707963267948966,0.014206905849277973,0.014397455379366875,0.011006993241608143,0.0004363323129985824,0.0,0.0,0.0,0.0004363323129985824,0.0,0.0,0.0,0.0004363323129985824,-0.058776069432497025,-0.07812827080488205,9.854226112365723,0.0004,0.0,0.0,0.0,0.0004,0.0,0.0,0.0,0.0004
2025/05/07 10:35:32.352570856,1746606932,350920844,mti/imu_base_body,0.16185660038765542,0.9866937953979373,0.007585269006281521,-0.013426046635796917,0.017453292519943295,0.0,0.0,0.0,0.017453292519943295,0.0,0.0,0.0,0.15707963267948966,0.01399159710854292,0.023604966700077057,0.004275979474186897,0.0004363323129985824,0.0,0.0,0.0,0.0004363323129985824,0.0,0.0,0.0,0.0004363323129985824,-0.05101592838764191,-0.09124846011400223,9.853490829467773,0.0004,0.0,0.0,0.0,0.0004,0.0,0.0,0.0,0.0004
2025/05/07 10:35:32.406180910,1746606932,404290312,mti/imu_base_body,0.16178894896824442,0.9867039558118731,0.007567173600192129,-0.013504719939948458,0.017453292519943295,0.0,0.0,0.0,0.017453292519943295,0.0,0.0,0.0,0.15707963267948966,0.017220566049218178,0.02061910182237625,0.0033630437683314085,0.0004363323129985824,0.0,0.0,0.0,0.0004363323129985824,0.0,0.0,0.0,0.0004363323129985824,-0.11121063679456711,-0.0872809886932373,9.790420532226562,0.0004,0.0,0.0,0.0,0.0004,0.0,0.0,0.0,0.0004
2025/05/07 10:35:32.451599780,1746606932,448901103,mti/imu_base_body,0.16169476579338937,0.9867182554004803,0.00755887613607217,-0.01359229804016869,0.017453292519943295,0.0,0.0,0.0,0.017453292519943295,0.0,0.0,0.0,0.15707963267948966,0.013600431382656097,0.020561572164297104,-0.000583421962801367,0.0004363323129985824,0.0,0.0,0.0,0.0004363323129985824,0.0,0.0,0.0,0.0004363323129985824,-0.08803702145814896,-0.08538497239351273,9.824604988098145,0.0004,0.0,0.0,0.0,0.0004,0.0,0.0,0.0,0.0004
2025/05/07 10:35:32.556030434,1746606932,504337499,mti/imu_base_body,0.16159161395375038,0.9867337776878482,0.0075333236079282734,-0.013705885783433723,0.017453292519943295,0.0,0.0,0.0,0.017453292519943295,0.0,0.0,0.0,0.15707963267948966,0.019306551665067673,0.01918359287083149,0.00038243376184254885,0.0004363323129985824,0.0,0.0,0.0,0.0004363323129985824,0.0,0.0,0.0,0.0004363323129985824,-0.054113537073135376,-0.09349817037582397,9.840171813964844,0.0004,0.0,0.0,0.0,0.0004,0.0,0.0,0.0,0.0004
2025/05/07 10:35:32.581166592,1746606932,548092093,mti/imu_base_body,0.1614962898672085,0.986749165624796,0.007464585256299113,-0.013759086628358737,0.017453292519943295,0.0,0.0,0.0,0.017453292519943295,0.0,0.0,0.0,0.15707963267948966,0.022269610315561295,0.017632795497775078,-0.0002547001640778035,0.0004363323129985824,0.0,0.0,0.0,0.0004363323129985824,0.0,0.0,0.0,0.0004363323129985824,-0.0767226591706276,-0.10025393962860107,9.81031608581543,0.0004,0.0,0.0,0.0,0.0004,0.0,0.0,0.0,0.0004
2025/05/07 10:35:32.604496086,1746606932,598103100,mti/imu_base_body,0.16140451675842388,0.9867630913872871,0.0074141218971167525,-0.013864135107485263,0.017453292519943295,0.0,0.0,0.0,0.017453292519943295,0.0,0.0,0.0,0.15707963267948966,0.02446862868964672,0.02020364999771118,0.004643105436116457,0.0004363323129985824,0.0,0.0,0.0,0.0004363323129985824,0.0,0.0,0.0,0.0004363323129985824,-0.07037204504013062,-0.10464120656251907,9.827956199645996,0.0004,0.0,0.0,0.0,0.0004,0.0,0.0,0.0,0.0004
2025/05/07 10:35:32.650113502,1746606932,649164395,mti/imu_base_body,0.16132738930284646,0.9867747277400414,0.00736475302362441,-0.01395960483667755,0.017453292519943295,0.0,0.0,0.0,0.017453292519943295,0.0,0.0,0.0,0.15707963267948966,0.020022107288241386,0.0283383596688509,0.0041675930842757225,0.0004363323129985824,0.0,0.0,0.0,0.0004363323129985824,0.0,0.0,0.0,0.0004363323129985824,-0.07000412791967392,-0.10381659865379333,9.834546089172363,0.0004,0.0,0.0,0.0,0.0004,0.0,0.0,0.0,0.0004
2025/05/07 10:35:32.699100753,1746606932,698101840,mti/imu_base_body,0.1612312032741655,0.9867898088283825,0.007288113448300693,-0.01404477431550873,0.017453292519943295,0.0,0.0,0.0,0.017453292519943295,0.0,0.0,0.0,0.15707963267948966,0.030245203524827957,0.017405444756150246,0.00023056112695485353,0.0004363323129985824,0.0,0.0,0.0,0.0004363323129985824,0.0,0.0,0.0,0.0004363323129985824,-0.06697787344455719,-0.10139847546815872,9.78533935546875,0.0004,0.0,0.0,0.0,0.0004,0.0,0.0,0.0,0.0004
2025/05/07 10:35:32.796727865,1746606932,748161242,mti/imu_base_body,0.16115602357961017,0.9868009073368429,0.007248211527790408,-0.014148101386421414,0.017453292519943295,0.0,0.0,0.0,0.017453292519943295,0.0,0.0,0.0,0.15707963267948966,0.014894451014697552,0.021564781665802002,0.005684158764779568,0.0004363323129985824,0.0,0.0,0.0,0.0004363323129985824,0.0,0.0,0.0,0.0004363323129985824,-0.05943821743130684,-0.08239389210939407,9.824459075927734,0.0004,0.0,0.0,0.0,0.0004,0.0,0.0,0.0,0.0004
2025/05/07 10:35:32.816329179,1746606932,798860577,mti/imu_base_body,0.16107698330242848,0.9868127938298469,0.00723755110318103,-0.0142243888427527,0.017453292519943295,0.0,0.0,0.0,0.017453292519943295,0.0,0.0,0.0,0.15707963267948966,0.01347278617322445,0.01803763024508953,0.002713165245950222,0.0004363323129985824,0.0,0.0,0.0,0.0004363323129985824,0.0,0.0,0.0,0.0004363323129985824,-0.061546552926301956,-0.10984168946743011,9.836468696594238,0.0004,0.0,0.0,0.0,0.0004,0.0,0.0,0.0,0.0004
2025/05/07 10:35:32.868819585,1746606932,849094348,mti/imu_base_body,0.16097668692603523,0.9868283974732075,0.007210912496784374,-0.014290659457919033,0.017453292519943295,0.0,0.0,0.0,0.017453292519943295,0.0,0.0,0.0,0.15707963267948966,0.02055935747921467,0.016665680333971977,-0.0013704800512641668,0.0004363323129985824,0.0,0.0,0.0,0.0004363323129985824,0.0,0.0,0.0,0.0004363323129985824,-0.10120069980621338,-0.0746723860502243,9.778536796569824,0.0004,0.0,0.0,0.0,0.0004,0.0,0.0,0.0,0.0004
2025/05/07 10:35:32.898934995,1746606932,898000999,mti/imu_base_body,0.16090333525494055,0.9868395536440739,0.00717204972201694,-0.014365715094846732,0.017453292519943295,0.0,0.0,0.0,0.017453292519943295,0.0,0.0,0.0,0.15707963267948966,0.019987618550658226,0.01764223352074623,0.005283146630972624,0.0004363323129985824,0.0,0.0,0.0,0.0004363323129985824,0.0,0.0,0.0,0.0004363323129985824,-0.07815180718898773,-0.06926693767309189,9.807792663574219,0.0004,0.0,0.0,0.0,0.0004,0.0,0.0,0.0,0.0004
2025/05/07 10:35:32.955426398,1746606932,948259132,mti/imu_base_body,0.16081589139909364,0.9868527797534765,0.007136033306939724,-0.01445396814004839,0.017453292519943295,0.0,0.0,0.0,0.017453292519943295,0.0,0.0,0.0,0.15707963267948966,0.014326323755085468,0.020828355103731155,0.005684433504939079,0.0004363323129985824,0.0,0.0,0.0,0.0004363323129985824,0.0,0.0,0.0,0.0004363323129985824,-0.06434420496225357,-0.08487553894519806,9.849910736083984,0.0004,0.0,0.0,0.0,0.0004,0.0,0.0,0.0,0.0004
2025/05/07 10:35:33.1335642,1746606932,998000225,mti/imu_base_body,0.16074506722178794,0.9868638042373233,0.007086801341394726,-0.014513183553189507,0.017453292519943295,0.0,0.0,0.0,0.017453292519943295,0.0,0.0,0.0,0.15707963267948966,0.021754123270511627,0.017319006845355034,0.0033117448911070824,0.0004363323129985824,0.0,0.0,0.0,0.0004363323129985824,0.0,0.0,0.0,0.0004363323129985824,-0.08854742348194122,-0.09044327586889267,9.805049896240234,0.0004,0.0,0.0,0.0,0.0004,0.0,0.0,0.0,0.0004
2025/05/07 10:35:33.50053805,1746606933,48042547,mti/imu_base_body,0.160632919261665,0.9868807813557371,0.007038889561126768,-0.014623360554657053,0.017453292519943295,0.0,0.0,0.0,0.017453292519943295,0.0,0.0,0.0,0.15707963267948966,0.02268269471824169,0.02346404455602169,0.0013758845161646605,0.0004363323129985824,0.0,0.0,0.0,0.0004363323129985824,0.0,0.0,0.0,0.0004363323129985824,-0.0836058109998703,-0.09539161622524261,9.794475555419922,0.0004,0.0,0.0,0.0,0.0004,0.0,0.0,0.0,0.0004
2025/05/07 10:35:33.147064877,1746606933,99341339,mti/imu_base_body,0.1605413608973557,0.9868947428941411,0.006984509037072571,-0.014712393504898204,0.017453292519943295,0.0,0.0,0.0,0.017453292519943295,0.0,0.0,0.0,0.15707963267948966,0.021167654544115067,0.018102867528796196,0.000996479531750083,0.0004363323129985824,0.0,0.0,0.0,0.0004363323129985824,0.0,0.0,0.0,0.0004363323129985824,-0.07202022522687912,-0.09713833779096603,9.807425498962402,0.0004,0.0,0.0,0.0,0.0004,0.0,0.0,0.0,0.0004
2025/05/07 10:35:33.154984372,1746606933,152236389,mti/imu_base_body,0.16047418286604592,0.9869053544492543,0.006899727032229758,-0.014773346260998663,0.017453292519943295,0.0,0.0,0.0,0.017453292519943295,0.0,0.0,0.0,0.15707963267948966,0.030130891129374504,0.017801295965909958,0.0021292902529239655,0.0004363323129985824,0.0,0.0,0.0,0.0004363323129985824,0.0,0.0,0.0,0.0004363323129985824,-0.06633096933364868,-0.101070836186409,9.79506778717041,0.0004,0.0,0.0,0.0,0.0004,0.0,0.0,0.0,0.0004
2025/05/07 10:35:33.218822215,1746606933,199961923,mti/imu_base_body,0.16034431792481335,0.9869257051996119,0.006841688643251829,-0.014850704427191781,0.017453292519943295,0.0,0.0,0.0,0.017453292519943295,0.0,0.0,0.0,0.15707963267948966,0.01959291100502014,0.01696115918457508,0.0016008380334824324,0.0004363323129985824,0.0,0.0,0.0,0.0004363323129985824,0.0,0.0,0.0,0.0004363323129985824,-0.06548691540956497,-0.09865429252386093,9.843194007873535,0.0004,0.0,0.0,0.0,0.0004,0.0,0.0,0.0,0.0004
2025/05/07 10:35:33.254779115,1746606933,250479446,mti/imu_base_body,0.1602396295432812,0.9869414384260321,0.006804119558624813,-0.014951996469315255,0.017453292519943295,0.0,0.0,0.0,0.017453292519943295,0.0,0.0,0.0,0.15707963267948966,0.02029130607843399,0.023782912641763687,-0.0007421549526043236,0.0004363323129985824,0.0,0.0,0.0,0.0004363323129985824,0.0,0.0,0.0,0.0004363323129985824,-0.08197570592164993,-0.10493836551904678,9.79135513305664,0.0004,0.0,0.0,0.0,0.0004,0.0,0.0,0.0,0.0004
2025/05/07 10:35:33.299758086,1746606933,298943685,mti/imu_base_body,0.16017605217764613,0.986950811435823,0.006833517522022059,-0.015001038405079482,0.017453292519943295,0.0,0.0,0.0,0.017453292519943295,0.0,0.0,0.0,0.15707963267948966,0.001198262209072709,0.010319010354578495,0.006528623402118683,0.0004363323129985824,0.0,0.0,0.0,0.0004363323129985824,0.0,0.0,0.0,0.0004363323129985824,-0.08758023381233215,-0.08358778059482574,9.749224662780762,0.0004,0.0,0.0,0.0,0.0004,0.0,0.0,0.0,0.0004
2025/05/07 10:35:33.349397218,1746606933,348137245,mti/imu_base_body,0.16010664949843206,0.9869618131033913,0.006764361632340489,-0.015049374530517228,0.017453292519943295,0.0,0.0,0.0,0.017453292519943295,0.0,0.0,0.0,0.15707963267948966,0.02325238287448883,0.015025760047137737,0.0061589921824634075,0.0004363323129985824,0.0,0.0,0.0,0.0004363323129985824,0.0,0.0,0.0,0.0004363323129985824,-0.058114536106586456,-0.09375,9.839105606079102,0.0004,0.0,0.0,0.0,0.0004,0.0,0.0,0.0,0.0004
2025/05/07 10:35:33.421096518,1746606933,398168163,mti/imu_base_body,0.16002667422146943,0.9869738394655087,0.006778640218648147,-0.015104760346124704,0.017453292519943295,0.0,0.0,0.0,0.017453292519943295,0.0,0.0,0.0,0.15707963267948966,0.007289563771337271,0.01727611944079399,0.003572290064767003,0.0004363323129985824,0.0,0.0,0.0,0.0004363323129985824,0.0,0.0,0.0,0.0004363323129985824,-0.07552439719438553,-0.10158413648605347,9.839959144592285,0.0004,0.0,0.0,0.0,0.0004,0.0,0.0,0.0,0.0004
2025/05/07 10:35:33.467884797,1746606933,448268822,mti/imu_base_body,0.15997442051790411,0.9869811742255077,0.006742937698417107,-0.015194712751274701,0.017453292519943295,0.0,0.0,0.0,0.017453292519943295,0.0,0.0,0.0,0.15707963267948966,0.023785198107361794,0.020590880885720253,0.008675238117575645,0.0004363323129985824,0.0,0.0,0.0,0.0004363323129985824,0.0,0.0,0.0,0.0004363323129985824,-0.1304832547903061,-0.07670626044273376,9.771963119506836,0.0004,0.0,0.0,0.0,0.0004,0.0,0.0,0.0,0.0004
2025/05/07 10:35:33.498638882,1746606933,498121904,mti/imu_base_body,0.1598752617123741,0.9869972586100416,0.0066827052273689585,-0.015220172124735802,0.017453292519943295,0.0,0.0,0.0,0.017453292519943295,0.0,0.0,0.0,0.15707963267948966,0.02088884450495243,0.003828546032309532,0.00047373180859722197,0.0004363323129985824,0.0,0.0,0.0,0.0004363323129985824,0.0,0.0,0.0,0.0004363323129985824,-0.1007542833685875,-0.06952036917209625,9.806862831115723,0.0004,0.0,0.0,0.0,0.0004,0.0,0.0,0.0,0.0004
2025/05/07 10:35:33.554942810,1746606933,548060087,mti/imu_base_body,0.15982220110945333,0.9870054586122788,0.006639681709145314,-0.015264446563682997,0.017453292519943295,0.0,0.0,0.0,0.017453292519943295,0.0,0.0,0.0,0.15707963267948966,0.01502396259456873,0.01361282542347908,0.013004925101995468,0.0004363323129985824,0.0,0.0,0.0,0.0004363323129985824,0.0,0.0,0.0,0.0004363323129985824,-0.11380590498447418,-0.0670994222164154,9.845399856567383,0.0004,0.0,0.0,0.0,0.0004,0.0,0.0,0.0,0.0004
2025/05/07 10:35:33.606579388,1746606933,606142375,mti/imu_base_body,0.159752615959259,0.9870162538325593,0.006620050748694949,-0.015303309857637434,0.017453292519943295,0.0,0.0,0.0,0.017453292519943295,0.0,0.0,0.0,0.15707963267948966,0.015304123982787132,0.013809292577207088,0.009072883054614067,0.0004363323129985824,0.0,0.0,0.0,0.0004363323129985824,0.0,0.0,0.0,0.0004363323129985824,-0.13109126687049866,-0.0956120416522026,9.822983741760254,0.0004,0.0,0.0,0.0,0.0004,0.0,0.0,0.0,0.0004
2025/05/07 10:35:33.649034714,1746606933,648397213,mti/imu_base_body,0.15966925465838638,0.9870288807401995,0.006624277925989984,-0.015356973775571249,0.017453292519943295,0.0,0.0,0.0,0.017453292519943295,0.0,0.0,0.0,0.15707963267948966,0.01362362690269947,0.01590152084827423,-0.0008446814608760178,0.0004363323129985824,0.0,0.0,0.0,0.0004363323129985824,0.0,0.0,0.0,0.0004363323129985824,-0.13961054384708405,-0.09049016237258911,9.818059921264648,0.0004,0.0,0.0,0.0,0.0004,0.0,0.0,0.0,0.0004
2025/05/07 10:35:33.807996922,1746606933,700390395,mti/imu_base_body,0.15959169683639196,0.9870408358876983,0.006562691043159316,-0.015421078991662923,0.017453292519943295,0.0,0.0,0.0,0.017453292519943295,0.0,0.0,0.0,0.15707963267948966,0.01767665334045887,0.011430157348513603,0.0036806196440011263,0.0004363323129985824,0.0,0.0,0.0,0.0004363323129985824,0.0,0.0,0.0,0.0004363323129985824,-0.14965425431728363,-0.08174227923154831,9.777986526489258,0.0004,0.0,0.0,0.0,0.0004,0.0,0.0,0.0,0.0004
2025/05/07 10:35:33.818376608,1746606933,748447581,mti/imu_base_body,0.15947839253476498,0.9870579992438837,0.00656963998712043,-0.01549155491319364,0.017453292519943295,0.0,0.0,0.0,0.017453292519943295,0.0,0.0,0.0,0.15707963267948966,0.01527798268944025,0.018333084881305695,-0.0009354711510241032,0.0004363323129985824,0.0,0.0,0.0,0.0004363323129985824,0.0,0.0,0.0,0.0004363323129985824,-0.13660460710525513,-0.08433161675930023,9.80508804321289,0.0004,0.0,0.0,0.0,0.0004,0.0,0.0,0.0,0.0004
2025/05/07 10:35:33.818582610,1746606933,798836181,mti/imu_base_body,0.15939947817131422,0.9870701225208314,0.006531052205577238,-0.0155475059900776,0.017453292519943295,0.0,0.0,0.0,0.017453292519943295,0.0,0.0,0.0,0.15707963267948966,0.009685956872999668,0.01323840394616127,0.005502107087522745,0.0004363323129985824,0.0,0.0,0.0,0.0004363323129985824,0.0,0.0,0.0,0.0004363323129985824,-0.1394653171300888,-0.09887350350618362,9.869441032409668,0.0004,0.0,0.0,0.0,0.0004,0.0,0.0,0.0,0.0004
2025/05/07 10:35:33.848570227,1746606933,848282027,mti/imu_base_body,0.15931628976195938,0.9870829266994467,0.006533388250584414,-0.015586227025979784,0.017453292519943295,0.0,0.0,0.0,0.017453292519943295,0.0,0.0,0.0,0.15707963267948966,0.014385262504220009,0.012450968846678734,0.007598572876304388,0.0004363323129985824,0.0,0.0,0.0,0.0004363323129985824,0.0,0.0,0.0,0.0004363323129985824,-0.1436348706483841,-0.10607122629880905,9.807384490966797,0.0004,0.0,0.0,0.0,0.0004,0.0,0.0,0.0,0.0004
2025/05/07 10:35:33.898999857,1746606933,898002261,mti/imu_base_body,0.15925192612477024,0.9870933588552906,0.006473559624257758,-0.015608265602634452,0.017453292519943295,0.0,0.0,0.0,0.017453292519943295,0.0,0.0,0.0,0.15707963267948966,0.021278709173202515,0.009883525781333447,0.0006995250005275011,0.0004363323129985824,0.0,0.0,0.0,0.0004363323129985824,0.0,0.0,0.0,0.0004363323129985824,-0.1360447257757187,-0.09505925327539444,9.77005386352539,0.0004,0.0,0.0,0.0,0.0004,0.0,0.0,0.0,0.0004
2025/05/07 10:35:33.951361152,1746606933,950873785,mti/imu_base_body,0.15919962706893037,0.9871010579177217,0.0064569603012626575,-0.01566166857316446,0.017453292519943295,0.0,0.0,0.0,0.017453292519943295,0.0,0.0,0.0,0.15707963267948966,0.013547278009355068,0.012149402871727943,0.013698810711503029,0.0004363323129985824,0.0,0.0,0.0,0.0004363323129985824,0.0,0.0,0.0,0.0004363323129985824,-0.14676479995250702,-0.08199892938137054,9.866567611694336,0.0004,0.0,0.0,0.0,0.0004,0.0,0.0,0.0,0.0004
2025/05/07 10:35:33.999231219,1746606933,998864968,mti/imu_base_body,0.15911010973094308,0.9871151562399862,0.00644877610558394,-0.015686127293081484,0.017453292519943295,0.0,0.0,0.0,0.017453292519943295,0.0,0.0,0.0,0.15707963267948966,0.010301909409463406,0.010219214484095573,0.00341370259411633,0.0004363323129985824,0.0,0.0,0.0,0.0004363323129985824,0.0,0.0,0.0,0.0004363323129985824,-0.15173977613449097,-0.08677829056978226,9.846769332885742,0.0004,0.0,0.0,0.0,0.0004,0.0,0.0,0.0,0.0004
2025/05/07 10:35:34.65127633,1746606934,48279749,mti/imu_base_body,0.15904173870878213,0.987125165260196,0.0064475514206632145,-0.015750001244306287,0.017453292519943295,0.0,0.0,0.0,0.017453292519943295,0.0,0.0,0.0,0.15707963267948966,0.011551874689757824,0.018805043771862984,0.009242836385965347,0.0004363323129985824,0.0,0.0,0.0,0.0004363323129985824,0.0,0.0,0.0,0.0004363323129985824,-0.19999447464942932,-0.0662461444735527,9.782828330993652,0.0004,0.0,0.0,0.0,0.0004,0.0,0.0,0.0,0.0004
2025/05/07 10:35:34.142217436,1746606934,98938993,mti/imu_base_body,0.15900529978060457,0.9871303355346623,0.006444800371636105,-0.01579493137289289,0.017453292519943295,0.0,0.0,0.0,0.017453292519943295,0.0,0.0,0.0,0.15707963267948966,0.014343365095555782,0.013064661994576454,0.008701222948729992,0.0004363323129985824,0.0,0.0,0.0,0.0004363323129985824,0.0,0.0,0.0,0.0004363323129985824,-0.21885091066360474,-0.07621844112873077,9.797863960266113,0.0004,0.0,0.0,0.0,0.0004,0.0,0.0,0.0,0.0004
2025/05/07 10:35:34.155244592,1746606934,148188446,mti/imu_base_body,0.15892795657103742,0.987142220489653,0.006403183633461447,-0.015847409449743007,0.017453292519943295,0.0,0.0,0.0,0.017453292519943295,0.0,0.0,0.0,0.15707963267948966,0.015483004041016102,0.012733416631817818,-0.0009650662541389465,0.0004363323129985824,0.0,0.0,0.0,0.0004363323129985824,0.0,0.0,0.0,0.0004363323129985824,-0.2278280407190323,-0.07014075666666031,9.85681438446045,0.0004,0.0,0.0,0.0,0.0004,0.0,0.0,0.0,0.0004
2025/05/07 10:35:34.203020692,1746606934,200317540,mti/imu_base_body,0.15881692522287627,0.987159712588222,0.006373973361176011,-0.01588264993888559,0.017453292519943295,0.0,0.0,0.0,0.017453292519943295,0.0,0.0,0.0,0.15707963267948966,0.01572733372449875,0.007906381972134113,0.007306773215532303,0.0004363323129985824,0.0,0.0,0.0,0.0004363323129985824,0.0,0.0,0.0,0.0004363323129985824,-0.26529812812805176,-0.07506299763917923,9.86010456085205,0.0004,0.0,0.0,0.0,0.0004,0.0,0.0,0.0,0.0004
2025/05/07 10:35:34.248261462,1746606934,247927255,mti/imu_base_body,0.1587025345827956,0.9871778745668095,0.006379617362332745,-0.01589496665813664,0.017453292519943295,0.0,0.0,0.0,0.017453292519943295,0.0,0.0,0.0,0.15707963267948966,0.007709156721830368,0.005484095774590969,-0.007609550375491381,0.0004363323129985824,0.0,0.0,0.0,0.0004363323129985824,0.0,0.0,0.0,0.0004363323129985824,-0.2680518925189972,-0.0801355168223381,9.818204879760742,0.0004,0.0,0.0,0.0,0.0004,0.0,0.0,0.0,0.0004
2025/05/07 10:35:34.299087627,1746606934,298571330,mti/imu_base_body,0.158621440288212,0.9871906788265639,0.0063363950600169765,-0.015926469052641033,0.017453292519943295,0.0,0.0,0.0,0.017453292519943295,0.0,0.0,0.0,0.15707963267948966,0.016750045120716095,0.00869001355022192,0.0073244934901595116,0.0004363323129985824,0.0,0.0,0.0,0.0004363323129985824,0.0,0.0,0.0,0.0004363323129985824,-0.3009582459926605,-0.06709710508584976,9.799757957458496,0.0004,0.0,0.0,0.0,0.0004,0.0,0.0,0.0,0.0004
2025/05/07 10:35:34.364315385,1746606934,348064644,mti/imu_base_body,0.15856397375851644,0.9871994239332718,0.006392654175414886,-0.015934164060848844,0.017453292519943295,0.0,0.0,0.0,0.017453292519943295,0.0,0.0,0.0,0.15707963267948966,-0.003268436063081026,0.009528196416795254,0.006694411393254995,0.0004363323129985824,0.0,0.0,0.0,0.0004363323129985824,0.0,0.0,0.0,0.0004363323129985824,-0.3128167688846588,-0.07719186693429947,9.866629600524902,0.0004,0.0,0.0,0.0,0.0004,0.0,0.0,0.0,0.0004
2025/05/07 10:35:34.398696629,1746606934,398027453,mti/imu_base_body,0.15849305360399374,0.9872095943273098,0.006429903671845793,-0.01599453550937118,0.017453292519943295,0.0,0.0,0.0,0.017453292519943295,0.0,0.0,0.0,0.15707963267948966,-0.001991890138015151,0.019965294748544693,0.011733860708773136,0.0004363323129985824,0.0,0.0,0.0,0.0004363323129985824,0.0,0.0,0.0,0.0004363323129985824,-0.31404411792755127,-0.06743945926427841,9.905986785888672,0.0004,0.0,0.0,0.0,0.0004,0.0,0.0,0.0,0.0004
2025/05/07 10:35:34.449122919,1746606934,448442884,mti/imu_base_body,0.1584780327448126,0.9872106165448822,0.006450884596084787,-0.016071646036905446,0.017453292519943295,0.0,0.0,0.0,0.017453292519943295,0.0,0.0,0.0,0.15707963267948966,0.01612124964594841,0.019562263041734695,0.011450531892478466,0.0004363323129985824,0.0,0.0,0.0,0.0004363323129985824,0.0,0.0,0.0,0.0004363323129985824,-0.3341968059539795,-0.05774634703993797,9.776254653930664,0.0004,0.0,0.0,0.0,0.0004,0.0,0.0,0.0,0.0004
2025/05/07 10:35:34.499670040,1746606934,498302502,mti/imu_base_body,0.1583738736817341,0.9872271466246629,0.006451383655801793,-0.016082809185403994,0.017453292519943295,0.0,0.0,0.0,0.017453292519943295,0.0,0.0,0.0,0.15707963267948966,0.0066075618378818035,0.005922378972172737,0.0026161710266023874,0.0004363323129985824,0.0,0.0,0.0,0.0004363323129985824,0.0,0.0,0.0,0.0004363323129985824,-0.3335031270980835,-0.07208298146724701,9.79416561126709,0.0004,0.0,0.0,0.0,0.0004,0.0,0.0,0.0,0.0004
2025/05/07 10:35:34.549559496,1746606934,548370733,mti/imu_base_body,0.15828055575369704,0.9872416590333981,0.006453349722747323,-0.016109829814139623,0.017453292519943295,0.0,0.0,0.0,0.017453292519943295,0.0,0.0,0.0,0.15707963267948966,0.012534857727587223,0.012825796380639076,4.7661531425546855e-05,0.0004363323129985824,0.0,0.0,0.0,0.0004363323129985824,0.0,0.0,0.0,0.0004363323129985824,-0.30283042788505554,-0.08142030239105225,9.889781951904297,0.0004,0.0,0.0,0.0,0.0004,0.0,0.0,0.0,0.0004
2025/05/07 10:35:34.599272584,1746606934,598066000,mti/imu_base_body,0.15821893581081015,0.98725087014081,0.006481619544253911,-0.016139280194348297,0.017453292519943295,0.0,0.0,0.0,0.017453292519943295,0.0,0.0,0.0,0.15707963267948966,0.0016348733333870769,0.010410234332084656,0.007093862164765596,0.0004363323129985824,0.0,0.0,0.0,0.0004363323129985824,0.0,0.0,0.0,0.0004363323129985824,-0.320306658744812,-0.06317833065986633,9.865798950195312,0.0004,0.0,0.0,0.0,0.0004,0.0,0.0,0.0,0.0004
2025/05/07 10:35:34.648801567,1746606934,648062662,mti/imu_base_body,0.15812986107799598,0.9872637661815311,0.006506501246138887,-0.016213218744181558,0.017453292519943295,0.0,0.0,0.0,0.017453292519943295,0.0,0.0,0.0,0.15707963267948966,0.006903322413563728,0.02026117965579033,0.004009634722024202,0.0004363323129985824,0.0,0.0,0.0,0.0004363323129985824,0.0,0.0,0.0,0.0004363323129985824,-0.32261794805526733,-0.0640738382935524,9.797246932983398,0.0004,0.0,0.0,0.0,0.0004,0.0,0.0,0.0,0.0004
2025/05/07 10:35:34.698767238,1746606934,698236076,mti/imu_base_body,0.15808477160330142,0.9872694820968151,0.006517786063518925,-0.01630009730795487,0.017453292519943295,0.0,0.0,0.0,0.017453292519943295,0.0,0.0,0.0,0.15707963267948966,0.007208468392491341,0.01882852055132389,0.007410526275634766,0.0004363323129985824,0.0,0.0,0.0,0.0004363323129985824,0.0,0.0,0.0,0.0004363323129985824,-0.32289189100265503,-0.06473392248153687,9.796038627624512,0.0004,0.0,0.0,0.0,0.0004,0.0,0.0,0.0,0.0004
2025/05/07 10:35:34.748913969,1746606934,748434828,mti/imu_base_body,0.15800160266798174,0.9872823137169708,0.0065179118202944595,-0.016329219256182793,0.017453292519943295,0.0,0.0,0.0,0.017453292519943295,0.0,0.0,0.0,0.15707963267948966,0.009678023867309093,0.013355929404497147,0.005421989597380161,0.0004363323129985824,0.0,0.0,0.0,0.0004363323129985824,0.0,0.0,0.0,0.0004363323129985824,-0.299118310213089,-0.07295921444892883,9.854973793029785,0.0004,0.0,0.0,0.0,0.0004,0.0,0.0,0.0,0.0004
2025/05/07 10:35:34.798525549,1746606934,798060469,mti/imu_base_body,0.15790537861953075,0.9872968593298659,0.006560177545059171,-0.01636358857289277,0.017453292519943295,0.0,0.0,0.0,0.017453292519943295,0.0,0.0,0.0,0.15707963267948966,0.0017731228144839406,0.012439876794815063,0.0031870065722614527,0.0004363323129985824,0.0,0.0,0.0,0.0004363323129985824,0.0,0.0,0.0,0.0004363323129985824,-0.284564346075058,-0.0841992124915123,9.849908828735352,0.0004,0.0,0.0,0.0,0.0004,0.0,0.0,0.0,0.0004
2025/05/07 10:35:34.852637319,1746606934,852069171,mti/imu_base_body,0.15784671665814054,0.987304933029157,0.006591488110276583,-0.01642971518404009,0.017453292519943295,0.0,0.0,0.0,0.017453292519943295,0.0,0.0,0.0,0.15707963267948966,0.00452360138297081,0.018389485776424408,0.008630252443253994,0.0004363323129985824,0.0,0.0,0.0,0.0004363323129985824,0.0,0.0,0.0,0.0004363323129985824,-0.31381022930145264,-0.06738971918821335,9.802513122558594,0.0004,0.0,0.0,0.0,0.0004,0.0,0.0,0.0,0.0004
2025/05/07 10:35:34.898862160,1746606934,898179795,mti/imu_base_body,0.15782474990512196,0.9873078411430265,0.006601287140684099,-0.016462021229739145,0.017453292519943295,0.0,0.0,0.0,0.017453292519943295,0.0,0.0,0.0,0.15707963267948966,0.010515180416405201,0.010986827313899994,0.013770739547908306,0.0004363323129985824,0.0,0.0,0.0,0.0004363323129985824,0.0,0.0,0.0,0.0004363323129985824,-0.32396912574768066,-0.054774392396211624,9.777105331420898,0.0004,0.0,0.0,0.0,0.0004,0.0,0.0,0.0,0.0004
2025/05/07 10:35:34.950629403,1746606934,947999595,mti/imu_base_body,0.15775651079481778,0.9873184866594111,0.006570263487134451,-0.01649002244159197,0.017453292519943295,0.0,0.0,0.0,0.017453292519943295,0.0,0.0,0.0,0.15707963267948966,0.013769754208624363,0.0077085671946406364,0.007799937389791012,0.0004363323129985824,0.0,0.0,0.0,0.0004363323129985824,0.0,0.0,0.0,0.0004363323129985824,-0.2975771427154541,-0.05965148285031319,9.867575645446777,0.0004,0.0,0.0,0.0,0.0004,0.0,0.0,0.0,0.0004
2025/05/07 10:35:34.998805009,1746606934,998018128,mti/imu_base_body,0.15769718069020927,0.9873278667901544,0.006556067724155009,-0.01650153441225537,0.017453292519943295,0.0,0.0,0.0,0.017453292519943295,0.0,0.0,0.0,0.15707963267948966,0.0109921395778656,0.004764711018651724,0.0073012299835681915,0.0004363323129985824,0.0,0.0,0.0,0.0004363323129985824,0.0,0.0,0.0,0.0004363323129985824,-0.28618699312210083,-0.09029515087604523,9.855206489562988,0.0004,0.0,0.0,0.0,0.0004,0.0,0.0,0.0,0.0004
2025/05/07 10:35:35.50550513,1746606935,48919042,mti/imu_base_body,0.15762141352162506,0.9873390548733055,0.006572702352349997,-0.01654932944623516,0.017453292519943295,0.0,0.0,0.0,0.017453292519943295,0.0,0.0,0.0,0.15707963267948966,0.009455000050365925,0.01831320859491825,0.004547053948044777,0.0004363323129985824,0.0,0.0,0.0,0.0004363323129985824,0.0,0.0,0.0,0.0004363323129985824,-0.31032952666282654,-0.06849075108766556,9.78403091430664,0.0004,0.0,0.0,0.0,0.0004,0.0,0.0,0.0,0.0004
2025/05/07 10:35:35.99796597,1746606935,99237021,mti/imu_base_body,0.15753771592174376,0.9873508684556631,0.006551959039605011,-0.01664939802969441,0.017453292519943295,0.0,0.0,0.0,0.017453292519943295,0.0,0.0,0.0,0.15707963267948966,0.017114689573645592,0.021821264177560806,0.003815828589722514,0.0004363323129985824,0.0,0.0,0.0,0.0004363323129985824,0.0,0.0,0.0,0.0004363323129985824,-0.2946315109729767,-0.07406091690063477,9.803327560424805,0.0004,0.0,0.0,0.0,0.0004,0.0,0.0,0.0,0.0004
2025/05/07 10:35:35.148603386,1746606935,148109793,mti/imu_base_body,0.15746565299640541,0.9873617401272625,0.0065304668538144605,-0.016694767502155525,0.017453292519943295,0.0,0.0,0.0,0.017453292519943295,0.0,0.0,0.0,0.15707963267948966,0.012494225054979324,0.014441563747823238,0.0013870283728465438,0.0004363323129985824,0.0,0.0,0.0,0.0004363323129985824,0.0,0.0,0.0,0.0004363323129985824,-0.2891067862510681,-0.06943008303642273,9.854598045349121,0.0004,0.0,0.0,0.0,0.0004,0.0,0.0,0.0,0.0004
2025/05/07 10:35:35.200714712,1746606935,198121113,mti/imu_base_body,0.15741038899916576,0.9873693022949035,0.006541523145155218,-0.016764211754447842,0.017453292519943295,0.0,0.0,0.0,0.017453292519943295,0.0,0.0,0.0,0.15707963267948966,0.006943099666386843,0.012713570147752762,0.01628299616277218,0.0004363323129985824,0.0,0.0,0.0,0.0004363323129985824,0.0,0.0,0.0,0.0004363323129985824,-0.3002683222293854,-0.05852566659450531,9.844404220581055,0.0004,0.0,0.0,0.0,0.0004,0.0,0.0,0.0,0.0004
2025/05/07 10:35:35.250337146,1746606935,248099902,mti/imu_base_body,0.15736574132221798,0.9873757989259109,0.0065209139643432916,-0.01680871305595364,0.017453292519943295,0.0,0.0,0.0,0.017453292519943295,0.0,0.0,0.0,0.15707963267948966,0.013452602550387383,0.015981651842594147,0.007474580314010382,0.0004363323129985824,0.0,0.0,0.0,0.0004363323129985824,0.0,0.0,0.0,0.0004363323129985824,-0.31549468636512756,-0.06411845237016678,9.781394004821777,0.0004,0.0,0.0,0.0,0.0004,0.0,0.0,0.0,0.0004
2025/05/07 10:35:35.299850379,1746606935,298235494,mti/imu_base_body,0.15729282956778357,0.9873870285186628,0.006547856628247422,-0.016821036032942285,0.017453292519943295,0.0,0.0,0.0,0.017453292519943295,0.0,0.0,0.0,0.15707963267948966,0.004487426485866308,0.004729034379124641,0.006129101384431124,0.0004363323129985824,0.0,0.0,0.0,0.0004363323129985824,0.0,0.0,0.0,0.0004363323129985824,-0.2956720292568207,-0.06459319591522217,9.794955253601074,0.0004,0.0,0.0,0.0,0.0004,0.0,0.0,0.0,0.0004
2025/05/07 10:35:35.352384695,1746606935,351654966,mti/imu_base_body,0.15724059885467212,0.9873945525804741,0.006568313376758624,-0.01685968165813954,0.017453292519943295,0.0,0.0,0.0,0.017453292519943295,0.0,0.0,0.0,0.15707963267948966,0.009111705236136913,0.011388016864657402,0.006213756278157234,0.0004363323129985824,0.0,0.0,0.0,0.0004363323129985824,0.0,0.0,0.0,0.0004363323129985824,-0.27632859349250793,-0.06926995515823364,9.856377601623535,0.0004,0.0,0.0,0.0,0.0004,0.0,0.0,0.0,0.0004
2025/05/07 10:35:35.398541607,1746606935,398306942,mti/imu_base_body,0.1571557682258355,0.9874079233499164,0.006566136542474191,-0.01686841041883905,0.017453292519943295,0.0,0.0,0.0,0.017453292519943295,0.0,0.0,0.0,0.15707963267948966,0.00827079452574253,0.012408596463501453,0.005231120623648167,0.0004363323129985824,0.0,0.0,0.0,0.0004363323129985824,0.0,0.0,0.0,0.0004363323129985824,-0.288446843624115,-0.07393161952495575,9.844155311584473,0.0004,0.0,0.0,0.0,0.0004,0.0,0.0,0.0,0.0004
2025/05/07 10:35:35.448535977,1746606935,448135127,mti/imu_base_body,0.15708404690980077,0.9874182313689461,0.006567421577178434,-0.016932440476483797,0.017453292519943295,0.0,0.0,0.0,0.017453292519943295,0.0,0.0,0.0,0.15707963267948966,0.008450865745544434,0.014887364581227303,0.004990729037672281,0.0004363323129985824,0.0,0.0,0.0,0.0004363323129985824,0.0,0.0,0.0,0.0004363323129985824,-0.29299861192703247,-0.08698102086782455,9.774409294128418,0.0004,0.0,0.0,0.0,0.0004,0.0,0.0,0.0,0.0004
2025/05/07 10:35:35.501259531,1746606935,500052037,mti/imu_base_body,0.1569980677072208,0.9874306452296985,0.006554969985008136,-0.017010583939296317,0.017453292519943295,0.0,0.0,0.0,0.017453292519943295,0.0,0.0,0.0,0.15707963267948966,0.016430582851171494,0.020162994042038918,0.0016153808683156967,0.0004363323129985824,0.0,0.0,0.0,0.0004363323129985824,0.0,0.0,0.0,0.0004363323129985824,-0.2957444489002228,-0.0712713822722435,9.789652824401855,0.0004,0.0,0.0,0.0,0.0004,0.0,0.0,0.0,0.0004
2025/05/07 10:35:35.548929698,1746606935,548014318,mti/imu_base_body,0.15688386417784472,0.9874481870875431,0.006555987307556191,-0.017045527524101725,0.017453292519943295,0.0,0.0,0.0,0.017453292519943295,0.0,0.0,0.0,0.15707963267948966,0.010768451727926731,0.011372646316885948,-0.0060906121507287025,0.0004363323129985824,0.0,0.0,0.0,0.0004363323129985824,0.0,0.0,0.0,0.0004363323129985824,-0.28516772389411926,-0.06334169954061508,9.838869094848633,0.0004,0.0,0.0,0.0,0.0004,0.0,0.0,0.0,0.0004
2025/05/07 10:35:35.600252641,1746606935,599260035,mti/imu_base_body,0.15678061977940266,0.9874637359638059,0.006535266155825665,-0.01710256455219305,0.017453292519943295,0.0,0.0,0.0,0.017453292519943295,0.0,0.0,0.0,0.15707963267948966,0.012127108871936798,0.010278685949742794,0.0029135812073946,0.0004363323129985824,0.0,0.0,0.0,0.0004363323129985824,0.0,0.0,0.0,0.0004363323129985824,-0.27441373467445374,-0.06610091775655746,9.839935302734375,0.0004,0.0,0.0,0.0,0.0004,0.0,0.0,0.0,0.0004
2025/05/07 10:35:35.649453188,1746606935,648377299,mti/imu_base_body,0.1566993588745108,0.9874764321431951,0.006535007236213342,-0.017114338155052162,0.017453292519943295,0.0,0.0,0.0,0.017453292519943295,0.0,0.0,0.0,0.15707963267948966,0.01096491701900959,0.008065979927778244,0.0033441095147281885,0.0004363323129985824,0.0,0.0,0.0,0.0004363323129985824,0.0,0.0,0.0,0.0004363323129985824,-0.29831239581108093,-0.07429727911949158,9.774901390075684,0.0004,0.0,0.0,0.0,0.0004,0.0,0.0,0.0,0.0004
2025/05/07 10:35:35.698539717,1746606935,698081356,mti/imu_base_body,0.15657516478623495,0.9874960362074385,0.006551937675697987,-0.017113397075220936,0.017453292519943295,0.0,0.0,0.0,0.017453292519943295,0.0,0.0,0.0,0.15707963267948966,0.0029090687166899443,0.005609200336039066,-0.008733547292649746,0.0004363323129985824,0.0,0.0,0.0,0.0004363323129985824,0.0,0.0,0.0,0.0004363323129985824,-0.28372398018836975,-0.07444733381271362,9.795541763305664,0.0004,0.0,0.0,0.0,0.0004,0.0,0.0,0.0,0.0004
2025/05/07 10:35:35.751428377,1746606935,748013875,mti/imu_base_body,0.15648335195730545,0.9875106028837088,0.006585685229029214,-0.017099663813189028,0.017453292519943295,0.0,0.0,0.0,0.017453292519943295,0.0,0.0,0.0,0.15707963267948966,0.0003427496994845569,0.0037334260996431112,0.005133083555847406,0.0004363323129985824,0.0,0.0,0.0,0.0004363323129985824,0.0,0.0,0.0,0.0004363323129985824,-0.2751859426498413,-0.06753306090831757,9.845465660095215,0.0004,0.0,0.0,0.0,0.0004,0.0,0.0,0.0,0.0004
2025/05/07 10:35:35.799169344,1746606935,798029020,mti/imu_base_body,0.156425076399426,0.9875188823340657,0.006599802262292198,-0.01714920164934841,0.017453292519943295,0.0,0.0,0.0,0.017453292519943295,0.0,0.0,0.0,0.15707963267948966,0.010423815809190273,0.013702118769288063,0.009302488528192043,0.0004363323129985824,0.0,0.0,0.0,0.0004363323129985824,0.0,0.0,0.0,0.0004363323129985824,-0.279293030500412,-0.05244706571102142,9.826010704040527,0.0004,0.0,0.0,0.0,0.0004,0.0,0.0,0.0,0.0004
2025/05/07 10:35:35.848917325,1746606935,848394322,mti/imu_base_body,0.15635579703661573,0.9875294762742269,0.006616585636127737,-0.01716446961358064,0.017453292519943295,0.0,0.0,0.0,0.017453292519943295,0.0,0.0,0.0,0.15707963267948966,0.002457588678225875,0.010938172228634357,0.006795661523938179,0.0004363323129985824,0.0,0.0,0.0,0.0004363323129985824,0.0,0.0,0.0,0.0004363323129985824,-0.3007151782512665,-0.06648475676774979,9.776352882385254,0.0004,0.0,0.0,0.0,0.0004,0.0,0.0,0.0,0.0004
2025/05/07 10:35:35.898961168,1746606935,898531349,mti/imu_base_body,0.15627376313636226,0.9875415941504024,0.006658031945505859,-0.017198296098585614,0.017453292519943295,0.0,0.0,0.0,0.017453292519943295,0.0,0.0,0.0,0.15707963267948966,0.0030318249482661486,0.008793588727712631,0.0033758932258933783,0.0004363323129985824,0.0,0.0,0.0,0.0004363323129985824,0.0,0.0,0.0,0.0004363323129985824,-0.2785643935203552,-0.07776883244514465,9.784965515136719,0.0004,0.0,0.0,0.0,0.0004,0.0,0.0,0.0,0.0004
2025/05/07 10:35:35.948775872,1746606935,948379330,mti/imu_base_body,0.15625265700213486,0.9875444113749466,0.006675210422446849,-0.017221623259709343,0.017453292519943295,0.0,0.0,0.0,0.017453292519943295,0.0,0.0,0.0,0.15707963267948966,0.005555407144129276,0.012061811052262783,0.013643874786794186,0.0004363323129985824,0.0,0.0,0.0,0.0004363323129985824,0.0,0.0,0.0,0.0004363323129985824,-0.2668570876121521,-0.07308999449014664,9.832599639892578,0.0004,0.0,0.0,0.0,0.0004,0.0,0.0,0.0,0.0004
2025/05/07 10:35:35.999570771,1746606935,998089420,mti/imu_base_body,0.1562017220971043,0.9875512284869208,0.006711585818613773,-0.017278534187583967,0.017453292519943295,0.0,0.0,0.0,0.017453292519943295,0.0,0.0,0.0,0.15707963267948966,0.0007647215388715267,0.014238161034882069,0.007740212604403496,0.0004363323129985824,0.0,0.0,0.0,0.0004363323129985824,0.0,0.0,0.0,0.0004363323129985824,-0.29182863235473633,-0.05991663038730621,9.831785202026367,0.0004,0.0,0.0,0.0,0.0004,0.0,0.0,0.0,0.0004
2025/05/07 10:35:36.52987699,1746606936,52612766,mti/imu_base_body,0.15613513257884504,0.9875612176959708,0.006739868908808964,-0.017298434742190057,0.017453292519943295,0.0,0.0,0.0,0.017453292519943295,0.0,0.0,0.0,0.15707963267948966,0.0064112055115401745,0.01263763103634119,0.005063874647021294,0.0004363323129985824,0.0,0.0,0.0,0.0004363323129985824,0.0,0.0,0.0,0.0004363323129985824,-0.2902253568172455,-0.062066830694675446,9.770208358764648,0.0004,0.0,0.0,0.0,0.0004,0.0,0.0,0.0,0.0004
2025/05/07 10:35:36.101600359,1746606936,98774469,mti/imu_base_body,0.1560807182472289,0.9875695523797866,0.006734509132411629,-0.01731574400834469,0.017453292519943295,0.0,0.0,0.0,0.017453292519943295,0.0,0.0,0.0,0.15707963267948966,0.008318682201206684,0.009193094447255135,0.01596587710082531,0.0004363323129985824,0.0,0.0,0.0,0.0004363323129985824,0.0,0.0,0.0,0.0004363323129985824,-0.2753834128379822,-0.0654829815030098,9.778368949890137,0.0004,0.0,0.0,0.0,0.0004,0.0,0.0,0.0,0.0004
2025/05/07 10:35:36.154015849,1746606936,153474366,mti/imu_base_body,0.1560421550752042,0.9875752047857522,0.006752647871693648,-0.017333853541155384,0.017453292519943295,0.0,0.0,0.0,0.017453292519943295,0.0,0.0,0.0,0.15707963267948966,0.00661234837025404,0.004660922568291426,0.011905181221663952,0.0004363323129985824,0.0,0.0,0.0,0.0004363323129985824,0.0,0.0,0.0,0.0004363323129985824,-0.2649487555027008,-0.06838604062795639,9.827335357666016,0.0004,0.0,0.0,0.0,0.0004,0.0,0.0,0.0,0.0004
2025/05/07 10:35:36.199738058,1746606936,198726186,mti/imu_base_body,0.1560200143250286,0.9875777874935983,0.006809215322462468,-0.017363852278790195,0.017453292519943295,0.0,0.0,0.0,0.017453292519943295,0.0,0.0,0.0,0.15707963267948966,-0.0012831947533413768,0.012016331776976585,0.012543301098048687,0.0004363323129985824,0.0,0.0,0.0,0.0004363323129985824,0.0,0.0,0.0,0.0004363323129985824,-0.271420955657959,-0.06410004198551178,9.818324089050293,0.0004,0.0,0.0,0.0,0.0004,0.0,0.0,0.0,0.0004
2025/05/07 10:35:36.249078241,1746606936,248156447,mti/imu_base_body,0.15596755244838212,0.9875853455619648,0.006859955805358605,-0.017385304738894783,0.017453292519943295,0.0,0.0,0.0,0.017453292519943295,0.0,0.0,0.0,0.15707963267948966,0.00290545541793108,0.011374352499842644,0.002885800087824464,0.0004363323129985824,0.0,0.0,0.0,0.0004363323129985824,0.0,0.0,0.0,0.0004363323129985824,-0.2852017879486084,-0.06058419868350029,9.761919021606445,0.0004,0.0,0.0,0.0,0.0004,0.0,0.0,0.0,0.0004
2025/05/07 10:35:36.299110432,1746606936,298137087,mti/imu_base_body,0.15589136169473672,0.9875965383229653,0.006852718887043927,-0.01743562689756925,0.017453292519943295,0.0,0.0,0.0,0.017453292519943295,0.0,0.0,0.0,0.15707963267948966,0.005854405462741852,0.01150051411241293,0.007890196517109871,0.0004363323129985824,0.0,0.0,0.0,0.0004363323129985824,0.0,0.0,0.0,0.0004363323129985824,-0.28177011013031006,-0.06683971732854843,9.785806655883789,0.0004,0.0,0.0,0.0,0.0004,0.0,0.0,0.0,0.0004
2025/05/07 10:35:36.348541306,1746606936,348103544,mti/imu_base_body,0.1558215764366896,0.9876074393102056,0.006887366621753142,-0.017428319395198805,0.017453292519943295,0.0,0.0,0.0,0.017453292519943295,0.0,0.0,0.0,0.15707963267948966,0.004957219120115042,0.005219494923949242,0.004243900068104267,0.0004363323129985824,0.0,0.0,0.0,0.0004363323129985824,0.0,0.0,0.0,0.0004363323129985824,-0.2705307602882385,-0.05594613775610924,9.823972702026367,0.0004,0.0,0.0,0.0,0.0004,0.0,0.0,0.0,0.0004
2025/05/07 10:35:36.403433371,1746606936,402888378,mti/imu_base_body,0.15575881713900802,0.9876171090383228,0.006889371162453139,-0.017440567170493963,0.017453292519943295,0.0,0.0,0.0,0.017453292519943295,0.0,0.0,0.0,0.15707963267948966,0.007945437915623188,0.012090634554624557,0.008198988623917103,0.0004363323129985824,0.0,0.0,0.0,0.0004363323129985824,0.0,0.0,0.0,0.0004363323129985824,-0.27714982628822327,-0.06815376877784729,9.807415962219238,0.0004,0.0,0.0,0.0,0.0004,0.0,0.0,0.0,0.0004
2025/05/07 10:35:36.451619862,1746606936,450849492,mti/imu_base_body,0.15569713980871913,0.9876258658571785,0.006947596263935131,-0.017472282375115895,0.017453292519943295,0.0,0.0,0.0,0.017453292519943295,0.0,0.0,0.0,0.15707963267948966,-0.0024806547444313765,0.00980303529649973,0.007662307471036911,0.0004363323129985824,0.0,0.0,0.0,0.0004363323129985824,0.0,0.0,0.0,0.0004363323129985824,-0.27485188841819763,-0.07935512065887451,9.762157440185547,0.0004,0.0,0.0,0.0,0.0004,0.0,0.0,0.0,0.0004
2025/05/07 10:35:36.498732187,1746606936,498312421,mti/imu_base_body,0.15562890482180997,0.9876358711586428,0.007034639592182901,-0.01747981208366845,0.017453292519943295,0.0,0.0,0.0,0.017453292519943295,0.0,0.0,0.0,0.15707963267948966,-0.01018429733812809,0.005355351138859987,0.005563242360949516,0.0004363323129985824,0.0,0.0,0.0,0.0004363323129985824,0.0,0.0,0.0,0.0004363323129985824,-0.2695944309234619,-0.07809644192457199,9.796716690063477,0.0004,0.0,0.0,0.0,0.0004,0.0,0.0,0.0,0.0004
2025/05/07 10:35:36.553050624,1746606936,550759921,mti/imu_base_body,0.15559095990379057,0.9876419583404785,0.007066099205806654,-0.0174609725850306,0.017453292519943295,0.0,0.0,0.0,0.017453292519943295,0.0,0.0,0.0,0.15707963267948966,0.005620766431093216,0.0023151475470513105,0.010982892476022243,0.0004363323129985824,0.0,0.0,0.0,0.0004363323129985824,0.0,0.0,0.0,0.0004363323129985824,-0.2624550461769104,-0.06285566836595535,9.828654289245605,0.0004,0.0,0.0,0.0,0.0004,0.0,0.0,0.0,0.0004
2025/05/07 10:35:36.600066666,1746606936,598786790,mti/imu_base_body,0.15549356949033694,0.9876571739901827,0.007075586267410508,-0.017464037100620028,0.017453292519943295,0.0,0.0,0.0,0.017453292519943295,0.0,0.0,0.0,0.15707963267948966,0.00657545356079936,0.0074063194915652275,-0.002453880151733756,0.0004363323129985824,0.0,0.0,0.0,0.0004363323129985824,0.0,0.0,0.0,0.0004363323129985824,-0.25132665038108826,-0.06610371172428131,9.814589500427246,0.0004,0.0,0.0,0.0,0.0004,0.0,0.0,0.0,0.0004
2025/05/07 10:35:36.648292470,1746606936,647971676,mti/imu_base_body,0.15541894070625278,0.9876679378049604,0.007115198028076792,-0.017503469909256587,0.017453292519943295,0.0,0.0,0.0,0.017453292519943295,0.0,0.0,0.0,0.15707963267948966,0.0020856147166341543,0.01250388938933611,0.0032224678434431553,0.0004363323129985824,0.0,0.0,0.0,0.0004363323129985824,0.0,0.0,0.0,0.0004363323129985824,-0.2708718180656433,-0.08053342998027802,9.769349098205566,0.0004,0.0,0.0,0.0,0.0004,0.0,0.0,0.0,0.0004
2025/05/07 10:35:36.699276547,1746606936,698014314,mti/imu_base_body,0.15531467952002737,0.9876845786549846,0.0071359881327861295,-0.017481449770698557,0.017453292519943295,0.0,0.0,0.0,0.017453292519943295,0.0,0.0,0.0,0.15707963267948966,0.0008254945278167725,-0.0016704226145520806,0.0011138643603771925,0.0004363323129985824,0.0,0.0,0.0,0.0004363323129985824,0.0,0.0,0.0,0.0004363323129985824,-0.28759780526161194,-0.06327340751886368,9.778389930725098,0.0004,0.0,0.0,0.0,0.0004,0.0,0.0,0.0,0.0004
2025/05/07 10:35:36.749059907,1746606936,747970235,mti/imu_base_body,0.1552839467821403,0.9876889865970377,0.007172332469137219,-0.01749054812263127,0.017453292519943295,0.0,0.0,0.0,0.017453292519943295,0.0,0.0,0.0,0.15707963267948966,0.0030178334563970566,0.009548953734338284,0.014351273886859417,0.0004363323129985824,0.0,0.0,0.0,0.0004363323129985824,0.0,0.0,0.0,0.0004363323129985824,-0.26453495025634766,-0.07715696841478348,9.828405380249023,0.0004,0.0,0.0,0.0,0.0004,0.0,0.0,0.0,0.0004
2025/05/07 10:35:36.799382869,1746606936,798011770,mti/imu_base_body,0.15525200128821248,0.9876936087578446,0.007152272668907916,-0.017521310184457895,0.017453292519943295,0.0,0.0,0.0,0.017453292519943295,0.0,0.0,0.0,0.15707963267948966,0.012350596487522125,0.0071418373845517635,0.013110937550663948,0.0004363323129985824,0.0,0.0,0.0,0.0004363323129985824,0.0,0.0,0.0,0.0004363323129985824,-0.2728402614593506,-0.06180904433131218,9.81942081451416,0.0004,0.0,0.0,0.0,0.0004,0.0,0.0,0.0,0.0004
2025/05/07 10:35:36.848525344,1746606936,848030271,mti/imu_base_body,0.15519234184221742,0.9877027725943783,0.007191262950010086,-0.017517299451970503,0.017453292519943295,0.0,0.0,0.0,0.017453292519943295,0.0,0.0,0.0,0.15707963267948966,0.0034431740641593933,0.004048997536301613,0.005855498369783163,0.0004363323129985824,0.0,0.0,0.0,0.0004363323129985824,0.0,0.0,0.0,0.0004363323129985824,-0.2785320580005646,-0.07392653077840805,9.761322021484375,0.0004,0.0,0.0,0.0,0.0004,0.0,0.0,0.0,0.0004
2025/05/07 10:35:36.899230895,1746606936,897966459,mti/imu_base_body,0.1551411401670294,0.9877112185705147,0.007215744815833803,-0.017484517847962847,0.017453292519943295,0.0,0.0,0.0,0.017453292519943295,0.0,0.0,0.0,0.15707963267948966,0.0047708009369671345,-7.35543726477772e-05,0.009781165979802608,0.0004363323129985824,0.0,0.0,0.0,0.0004363323129985824,0.0,0.0,0.0,0.0004363323129985824,-0.2627931535243988,-0.07625801116228104,9.783514022827148,0.0004,0.0,0.0,0.0,0.0004,0.0,0.0,0.0,0.0004
2025/05/07 10:35:36.948491084,1746606936,947955892,mti/imu_base_body,0.1550588361362868,0.9877239676295813,0.007212921707975235,-0.017495567054896983,0.017453292519943295,0.0,0.0,0.0,0.017453292519943295,0.0,0.0,0.0,0.15707963267948966,0.006799796596169472,0.009933843277394772,0.0006860996945761144,0.0004363323129985824,0.0,0.0,0.0,0.0004363323129985824,0.0,0.0,0.0,0.0004363323129985824,-0.2637186050415039,-0.0755143091082573,9.82155990600586,0.0004,0.0,0.0,0.0,0.0004,0.0,0.0,0.0,0.0004
2025/05/07 10:35:36.999474888,1746606936,998925786,mti/imu_base_body,0.15501854600667653,0.9877300278240658,0.007261847302383969,-0.017490228769315344,0.017453292519943295,0.0,0.0,0.0,0.017453292519943295,0.0,0.0,0.0,0.15707963267948966,-0.005167987197637558,0.002405202714726329,0.008795395493507385,0.0004363323129985824,0.0,0.0,0.0,0.0004363323129985824,0.0,0.0,0.0,0.0004363323129985824,-0.26593077182769775,-0.07110758125782013,9.804166793823242,0.0004,0.0,0.0,0.0,0.0004,0.0,0.0,0.0,0.0004
2025/05/07 10:35:37.49833709,1746606937,49158565,mti/imu_base_body,0.15495449954854112,0.9877395753807393,0.007310315021782581,-0.017498388229209686,0.017453292519943295,0.0,0.0,0.0,0.017453292519943295,0.0,0.0,0.0,0.15707963267948966,0.005886999890208244,0.008515991270542145,0.012952514924108982,0.0004363323129985824,0.0,0.0,0.0,0.0004363323129985824,0.0,0.0,0.0,0.0004363323129985824,-0.27512073516845703,-0.07545886933803558,9.77452564239502,0.0004,0.0,0.0,0.0,0.0004,0.0,0.0,0.0,0.0004
2025/05/07 10:35:37.105095375,1746606937,103877499,mti/imu_base_body,0.1549251750248119,0.9877434523334387,0.007378300146354146,-0.017510659693492202,0.017453292519943295,0.0,0.0,0.0,0.017453292519943295,0.0,0.0,0.0,0.15707963267948966,-0.0058728670701384544,0.006402315106242895,0.00941610150039196,0.0004363323129985824,0.0,0.0,0.0,0.0004363323129985824,0.0,0.0,0.0,0.0004363323129985824,-0.26803311705589294,-0.09380579739809036,9.776906967163086,0.0004,0.0,0.0,0.0,0.0004,0.0,0.0,0.0,0.0004
2025/05/07 10:35:37.150182358,1746606937,148033613,mti/imu_base_body,0.15489131921445126,0.987748547926514,0.007430210644138187,-0.017500779149910255,0.017453292519943295,0.0,0.0,0.0,0.017453292519943295,0.0,0.0,0.0,0.15707963267948966,-0.004224326461553574,0.005209196824580431,0.010642376728355885,0.0004363323129985824,0.0,0.0,0.0,0.0004363323129985824,0.0,0.0,0.0,0.0004363323129985824,-0.266676127910614,-0.06437920778989792,9.831171989440918,0.0004,0.0,0.0,0.0,0.0004,0.0,0.0,0.0,0.0004
2025/05/07 10:35:37.199188994,1746606937,197963676,mti/imu_base_body,0.1548776956138037,0.9877500104882583,0.007460713811479784,-0.01752580757701434,0.017453292519943295,0.0,0.0,0.0,0.017453292519943295,0.0,0.0,0.0,0.15707963267948966,0.006235278677195311,0.006018601357936859,0.021547937765717506,0.0004363323129985824,0.0,0.0,0.0,0.0004363323129985824,0.0,0.0,0.0,0.0004363323129985824,-0.26907917857170105,-0.076671302318573,9.802958488464355,0.0004,0.0,0.0,0.0,0.0004,0.0,0.0,0.0,0.0004
2025/05/07 10:35:37.249099066,1746606937,248641195,mti/imu_base_body,0.15482173098692698,0.9877595507327278,0.00747202248621008,-0.01747771239198354,0.017453292519943295,0.0,0.0,0.0,0.017453292519943295,0.0,0.0,0.0,0.15707963267948966,0.00488428957760334,-0.00043201836524531245,0.010371566750109196,0.0004363323129985824,0.0,0.0,0.0,0.0004363323129985824,0.0,0.0,0.0,0.0004363323129985824,-0.2766932249069214,-0.06981655955314636,9.759528160095215,0.0004,0.0,0.0,0.0,0.0004,0.0,0.0,0.0,0.0004
2025/05/07 10:35:37.299995974,1746606937,299289468,mti/imu_base_body,0.15479873094544888,0.9877633583868088,0.0074976427510868434,-0.01745525935837659,0.017453292519943295,0.0,0.0,0.0,0.017453292519943295,0.0,0.0,0.0,0.15707963267948966,0.00043184918467886746,0.0006929815281182528,0.010861438699066639,0.0004363323129985824,0.0,0.0,0.0,0.0004363323129985824,0.0,0.0,0.0,0.0004363323129985824,-0.2685757279396057,-0.07676852494478226,9.788931846618652,0.0004,0.0,0.0,0.0,0.0004,0.0,0.0,0.0,0.0004
2025/05/07 10:35:37.348157968,1746606937,347741340,mti/imu_base_body,0.15472974388962357,0.9877743432634329,0.007517952707635612,-0.017436557384732338,0.017453292519943295,0.0,0.0,0.0,0.017453292519943295,0.0,0.0,0.0,0.15707963267948966,0.0069413636811077595,0.0001579204690642655,0.005963468924164772,0.0004363323129985824,0.0,0.0,0.0,0.0004363323129985824,0.0,0.0,0.0,0.0004363323129985824,-0.26374995708465576,-0.07715307921171188,9.817607879638672,0.0004,0.0,0.0,0.0,0.0004,0.0,0.0,0.0,0.0004
2025/05/07 10:35:37.398496757,1746606937,398009141,mti/imu_base_body,0.1547228814119299,0.9877754780139256,0.007527408650051229,-0.017429088357275878,0.017453292519943295,0.0,0.0,0.0,0.017453292519943295,0.0,0.0,0.0,0.15707963267948966,0.006834139581769705,0.006874050945043564,0.016836469992995262,0.0004363323129985824,0.0,0.0,0.0,0.0004363323129985824,0.0,0.0,0.0,0.0004363323129985824,-0.27004972100257874,-0.0803176686167717,9.806329727172852,0.0004,0.0,0.0,0.0,0.0004,0.0,0.0,0.0,0.0004
2025/05/07 10:35:37.449548979,1746606937,448090291,mti/imu_base_body,0.1546947907500255,0.9877791657435209,0.007550414196960327,-0.017459458276072544,0.017453292519943295,0.0,0.0,0.0,0.017453292519943295,0.0,0.0,0.0,0.15707963267948966,0.005517142824828625,0.007022315636277199,0.01255600992590189,0.0004363323129985824,0.0,0.0,0.0,0.0004363323129985824,0.0,0.0,0.0,0.0004363323129985824,-0.2793802320957184,-0.07586704194545746,9.763847351074219,0.0004,0.0,0.0,0.0,0.0004,0.0,0.0,0.0,0.0004
2025/05/07 10:35:37.506214643,1746606937,504196961,mti/imu_base_body,0.15461954464021,0.9877908569106418,0.007537764124965271,-0.017470018059244065,0.017453292519943295,0.0,0.0,0.0,0.017453292519943295,0.0,0.0,0.0,0.15707963267948966,0.011081378906965256,0.006193505134433508,0.004929210990667343,0.0004363323129985824,0.0,0.0,0.0,0.0004363323129985824,0.0,0.0,0.0,0.0004363323129985824,-0.27740782499313354,-0.08276870101690292,9.786280632019043,0.0004,0.0,0.0,0.0,0.0004,0.0,0.0,0.0,0.0004
2025/05/07 10:35:37.548428748,1746606937,547961986,mti/imu_base_body,0.1546023146790294,0.9877938465071128,0.007562404877024178,-0.017442795964092376,0.017453292519943295,0.0,0.0,0.0,0.017453292519943295,0.0,0.0,0.0,0.15707963267948966,0.00015848493785597384,0.004529336933046579,0.011015285737812519,0.0004363323129985824,0.0,0.0,0.0,0.0004363323129985824,0.0,0.0,0.0,0.0004363323129985824,-0.2727685272693634,-0.072476826608181,9.815094947814941,0.0004,0.0,0.0,0.0,0.0004,0.0,0.0,0.0,0.0004
2025/05/07 10:35:37.598510433,1746606937,598049667,mti/imu_base_body,0.15450940958655568,0.9878084063148332,0.007569364021811476,-0.017438448648562064,0.017453292519943295,0.0,0.0,0.0,0.017453292519943295,0.0,0.0,0.0,0.15707963267948966,0.005153879523277283,-0.0034272277262061834,0.005921855568885803,0.0004363323129985824,0.0,0.0,0.0,0.0004363323129985824,0.0,0.0,0.0,0.0004363323129985824,-0.2798203229904175,-0.06134484335780144,9.789786338806152,0.0004,0.0,0.0,0.0,0.0004,0.0,0.0,0.0,0.0004
2025/05/07 10:35:37.649469174,1746606937,647932503,mti/imu_base_body,0.15450053457953128,0.9878100682440486,0.0076165752354283725,-0.01740234673858545,0.017453292519943295,0.0,0.0,0.0,0.017453292519943295,0.0,0.0,0.0,0.15707963267948966,0.004139428026974201,0.004283160902559757,0.01722465641796589,0.0004363323129985824,0.0,0.0,0.0,0.0004363323129985824,0.0,0.0,0.0,0.0004363323129985824,-0.281292200088501,-0.07784708589315414,9.767333030700684,0.0004,0.0,0.0,0.0,0.0004,0.0,0.0,0.0,0.0004
2025/05/07 10:35:37.698805117,1746606937,698294830,mti/imu_base_body,0.1544686353427253,0.9878152585636781,0.007615413498949879,-0.017391409412974533,0.017453292519943295,0.0,0.0,0.0,0.017453292519943295,0.0,0.0,0.0,0.15707963267948966,0.006712638307362795,0.00151890330016613,0.013767550699412823,0.0004363323129985824,0.0,0.0,0.0,0.0004363323129985824,0.0,0.0,0.0,0.0004363323129985824,-0.2711550295352936,-0.07763144373893738,9.7920503616333,0.0004,0.0,0.0,0.0,0.0004,0.0,0.0,0.0,0.0004
2025/05/07 10:35:37.750047129,1746606937,747952119,mti/imu_base_body,0.15440795034059712,0.9878249883181875,0.007614824812972247,-0.01737791037081589,0.017453292519943295,0.0,0.0,0.0,0.017453292519943295,0.0,0.0,0.0,0.15707963267948966,0.0049651083536446095,0.000733501510694623,-0.0003845488536171615,0.0004363323129985824,0.0,0.0,0.0,0.0004363323129985824,0.0,0.0,0.0,0.0004363323129985824,-0.26660361886024475,-0.07500124722719193,9.81857681274414,0.0004,0.0,0.0,0.0,0.0004,0.0,0.0,0.0,0.0004
2025/05/07 10:35:37.799679178,1746606937,798009878,mti/imu_base_body,0.15431575087349014,0.9878392117926643,0.007673244275088939,-0.01736266107177547,0.017453292519943295,0.0,0.0,0.0,0.017453292519943295,0.0,0.0,0.0,0.15707963267948966,0.00044363204506225884,0.002393425442278385,0.0055015296675264835,0.0004363323129985824,0.0,0.0,0.0,0.0004363323129985824,0.0,0.0,0.0,0.0004363323129985824,-0.27531272172927856,-0.07596907019615173,9.802375793457031,0.0004,0.0,0.0,0.0,0.0004,0.0,0.0,0.0,0.0004
2025/05/07 10:35:37.850212655,1746606937,848101944,mti/imu_base_body,0.1542353156401633,0.9878524839438769,0.007666654109977459,-0.017325120203029353,0.017453292519943295,0.0,0.0,0.0,0.017453292519943295,0.0,0.0,0.0,0.15707963267948966,0.014056676998734474,-9.42282895266544e-06,0.0011128346668556333,0.0004363323129985824,0.0,0.0,0.0,0.0004363323129985824,0.0,0.0,0.0,0.0004363323129985824,-0.25876519083976746,-0.08143278956413269,9.771280288696289,0.0004,0.0,0.0,0.0,0.0004,0.0,0.0,0.0,0.0004
2025/05/07 10:35:37.899627390,1746606937,899060048,mti/imu_base_body,0.1541530773316594,0.9878654375280994,0.007652426574883358,-0.017324735325890663,0.017453292519943295,0.0,0.0,0.0,0.017453292519943295,0.0,0.0,0.0,0.15707963267948966,0.006444244645535946,-0.0022214383352547884,0.00048186321510002017,0.0004363323129985824,0.0,0.0,0.0,0.0004363323129985824,0.0,0.0,0.0,0.0004363323129985824,-0.2824903130531311,-0.0828031450510025,9.79062271118164,0.0004,0.0,0.0,0.0,0.0004,0.0,0.0,0.0,0.0004
2025/05/07 10:35:37.950836421,1746606937,948044600,mti/imu_base_body,0.15405532901398677,0.9878811886976611,0.007686145178272327,-0.01728108191019429,0.017453292519943295,0.0,0.0,0.0,0.017453292519943295,0.0,0.0,0.0,0.15707963267948966,-5.5168300605146214e-05,-0.0005237610312178731,0.0045876940712332726,0.0004363323129985824,0.0,0.0,0.0,0.0004363323129985824,0.0,0.0,0.0,0.0004363323129985824,-0.2716348171234131,-0.07938318699598312,9.82768726348877,0.0004,0.0,0.0,0.0,0.0004,0.0,0.0,0.0,0.0004
2025/05/07 10:35:37.999954781,1746606937,998886462,mti/imu_base_body,0.1539997484193708,0.9878898321846851,0.007722287868152134,-0.017266245190150614,0.017453292519943295,0.0,0.0,0.0,0.017453292519943295,0.0,0.0,0.0,0.15707963267948966,0.0015872819349169731,-0.0002819619548972696,0.011012639850378036,0.0004363323129985824,0.0,0.0,0.0,0.0004363323129985824,0.0,0.0,0.0,0.0004363323129985824,-0.2740864157676697,-0.0594305582344532,9.796831130981445,0.0004,0.0,0.0,0.0,0.0004,0.0,0.0,0.0,0.0004
2025/05/07 10:35:38.54453650,1746606938,53873492,mti/imu_base_body,0.1539484266867202,0.9878985576162893,0.007741410168948974,-0.017216049167408095,0.017453292519943295,0.0,0.0,0.0,0.017453292519943295,0.0,0.0,0.0,0.15707963267948966,0.0021488075144588947,-0.0025852746330201626,0.009120634756982327,0.0004363323129985824,0.0,0.0,0.0,0.0004363323129985824,0.0,0.0,0.0,0.0004363323129985824,-0.2867630124092102,-0.0780569314956665,9.76984691619873,0.0004,0.0,0.0,0.0,0.0004,0.0,0.0,0.0,0.0004
2025/05/07 10:35:38.99029276,1746606938,98096070,mti/imu_base_body,0.15393581131170708,0.9879004368451367,0.007772013085055419,-0.01720722783019716,0.017453292519943295,0.0,0.0,0.0,0.017453292519943295,0.0,0.0,0.0,0.15707963267948966,0.0039086779579520226,0.005489493254572153,0.01392887532711029,0.0004363323129985824,0.0,0.0,0.0,0.0004363323129985824,0.0,0.0,0.0,0.0004363323129985824,-0.2712773084640503,-0.07910811901092529,9.789265632629395,0.0004,0.0,0.0,0.0,0.0004,0.0,0.0,0.0,0.0004
2025/05/07 10:35:38.149784094,1746606938,148478228,mti/imu_base_body,0.1538660032151768,0.9879114230378372,0.007795586843805415,-0.01719017485959227,0.017453292519943295,0.0,0.0,0.0,0.017453292519943295,0.0,0.0,0.0,0.15707963267948966,-0.0004324816109146923,-0.00010544811084400862,-0.0016462176572531462,0.0004363323129985824,0.0,0.0,0.0,0.0004363323129985824,0.0,0.0,0.0,0.0004363323129985824,-0.27672410011291504,-0.07775461673736572,9.821810722351074,0.0004,0.0,0.0,0.0,0.0004,0.0,0.0,0.0,0.0004
2025/05/07 10:35:38.199139203,1746606938,198270343,mti/imu_base_body,0.1537387620533716,0.9879313908312903,0.007847608332927086,-0.017157362731551884,0.017453292519943295,0.0,0.0,0.0,0.017453292519943295,0.0,0.0,0.0,0.15707963267948966,-0.0020187110640108585,-0.0011612075613811612,-0.0052079735323786736,0.0004363323129985824,0.0,0.0,0.0,0.0004363323129985824,0.0,0.0,0.0,0.0004363323129985824,-0.2793426513671875,-0.05893990024924278,9.80116081237793,0.0004,0.0,0.0,0.0,0.0004,0.0,0.0,0.0,0.0004
2025/05/07 10:35:38.248482834,1746606938,248125288,mti/imu_base_body,0.15369275103616442,0.9879385137678908,0.007912702744827894,-0.017129519208037597,0.017453292519943295,0.0,0.0,0.0,0.017453292519943295,0.0,0.0,0.0,0.15707963267948966,-0.0050248270854353905,0.001582401804625988,0.014068051241338253,0.0004363323129985824,0.0,0.0,0.0,0.0004363323129985824,0.0,0.0,0.0,0.0004363323129985824,-0.27264249324798584,-0.08041923493146896,9.777853965759277,0.0004,0.0,0.0,0.0,0.0004,0.0,0.0,0.0,0.0004
2025/05/07 10:35:38.298476010,1746606938,297987923,mti/imu_base_body,0.15363808997175837,0.9879468630304666,0.007938259569787252,-0.017126504987669454,0.017453292519943295,0.0,0.0,0.0,0.017453292519943295,0.0,0.0,0.0,0.15707963267948966,0.006099190562963486,0.0022695742081850767,0.00919264554977417,0.0004363323129985824,0.0,0.0,0.0,0.0004363323129985824,0.0,0.0,0.0,0.0004363323129985824,-0.2789742052555084,-0.07930888235569,9.79274845123291,0.0004,0.0,0.0,0.0,0.0004,0.0,0.0,0.0,0.0004
2025/05/07 10:35:38.348740946,1746606938,348085458,mti/imu_base_body,0.15361855288406379,0.9879506624627882,0.007940914756584372,-0.017081294505177605,0.017453292519943295,0.0,0.0,0.0,0.017453292519943295,0.0,0.0,0.0,0.15707963267948966,0.005433977115899324,-0.0012834747321903706,0.010541528463363647,0.0004363323129985824,0.0,0.0,0.0,0.0004363323129985824,0.0,0.0,0.0,0.0004363323129985824,-0.28699424862861633,-0.06543609499931335,9.817733764648438,0.0004,0.0,0.0,0.0,0.0004,0.0,0.0,0.0,0.0004
2025/05/07 10:35:38.401516862,1746606938,398158649,mti/imu_base_body,0.15353270313597972,0.9879643408471301,0.00797267742196595,-0.017047190295771727,0.017453292519943295,0.0,0.0,0.0,0.017453292519943295,0.0,0.0,0.0,0.15707963267948966,0.0016722965519875288,-0.0014222642639651895,0.005658748559653759,0.0004363323129985824,0.0,0.0,0.0,0.0004363323129985824,0.0,0.0,0.0,0.0004363323129985824,-0.28376081585884094,-0.07615432143211365,9.795771598815918,0.0004,0.0,0.0,0.0,0.0004,0.0,0.0,0.0,0.0004
2025/05/07 10:35:38.449383718,1746606938,447957455,mti/imu_base_body,0.15348449155277671,0.9879721148440972,0.007979458604736093,-0.01702760651538678,0.017453292519943295,0.0,0.0,0.0,0.017453292519943295,0.0,0.0,0.0,0.15707963267948966,0.0056261904537677765,-0.003571899142116308,0.010484213940799236,0.0004363323129985824,0.0,0.0,0.0,0.0004363323129985824,0.0,0.0,0.0,0.0004363323129985824,-0.27687087655067444,-0.09065142273902893,9.77823257446289,0.0004,0.0,0.0,0.0,0.0004,0.0,0.0,0.0,0.0004
2025/05/07 10:35:38.499654018,1746606938,498964082,mti/imu_base_body,0.15346377441674985,0.9879760843330755,0.008039895718944153,-0.016955435838608673,0.017453292519943295,0.0,0.0,0.0,0.017453292519943295,0.0,0.0,0.0,0.15707963267948966,-0.003636188106611371,-0.005191790871322155,0.013383452780544758,0.0004363323129985824,0.0,0.0,0.0,0.0004363323129985824,0.0,0.0,0.0,0.0004363323129985824,-0.2899129390716553,-0.06858383119106293,9.802743911743164,0.0004,0.0,0.0,0.0,0.0004,0.0,0.0,0.0,0.0004
2025/05/07 10:35:38.548537547,1746606938,548123427,mti/imu_base_body,0.153383402221547,0.9879891415273852,0.00810030641893163,-0.016892992122265697,0.017453292519943295,0.0,0.0,0.0,0.017453292519943295,0.0,0.0,0.0,0.15707963267948966,-0.0023491638712584972,-0.008361360989511013,-0.0029524557758122683,0.0004363323129985824,0.0,0.0,0.0,0.0004363323129985824,0.0,0.0,0.0,0.0004363323129985824,-0.2735329866409302,-0.08100900799036026,9.843769073486328,0.0004,0.0,0.0,0.0,0.0004,0.0,0.0,0.0,0.0004
2025/05/07 10:35:38.600762873,1746606938,598085795,mti/imu_base_body,0.15331260344537573,0.988001199171558,0.008117242328002244,-0.01682220072857174,0.017453292519943295,0.0,0.0,0.0,0.017453292519943295,0.0,0.0,0.0,0.15707963267948966,0.0029851871076971292,-0.006195079535245895,0.009949191473424435,0.0004363323129985824,0.0,0.0,0.0,0.0004363323129985824,0.0,0.0,0.0,0.0004363323129985824,-0.262079119682312,-0.07802771031856537,9.806312561035156,0.0004,0.0,0.0,0.0,0.0004,0.0,0.0,0.0,0.0004
2025/05/07 10:35:38.650842245,1746606938,650407543,mti/imu_base_body,0.15328717197820718,0.9880057933739221,0.008149435486469826,-0.016768478396745064,0.017453292519943295,0.0,0.0,0.0,0.017453292519943295,0.0,0.0,0.0,0.15707963267948966,-0.001181520987302065,-0.004954013042151928,0.012220033444464207,0.0004363323129985824,0.0,0.0,0.0,0.0004363323129985824,0.0,0.0,0.0,0.0004363323129985824,-0.28637027740478516,-0.07706879824399948,9.784369468688965,0.0004,0.0,0.0,0.0,0.0004,0.0,0.0,0.0,0.0004
2025/05/07 10:35:38.698713166,1746606938,698131309,mti/imu_base_body,0.15327579749185422,0.988008010782838,0.008169175571314427,-0.016732157740731994,0.017453292519943295,0.0,0.0,0.0,0.017453292519943295,0.0,0.0,0.0,0.15707963267948966,0.001223455648869276,-0.004713747184723616,0.01465499959886074,0.0004363323129985824,0.0,0.0,0.0,0.0004363323129985824,0.0,0.0,0.0,0.0004363323129985824,-0.2754126787185669,-0.0713832899928093,9.807035446166992,0.0004,0.0,0.0,0.0,0.0004,0.0,0.0,0.0,0.0004
2025/05/07 10:35:38.748733431,1746606938,748100503,mti/imu_base_body,0.15320260323426238,0.9880203483852903,0.008220498121601439,-0.01664863206054016,0.017453292519943295,0.0,0.0,0.0,0.017453292519943295,0.0,0.0,0.0,0.15707963267948966,-0.004204878117889166,-0.010750891640782356,0.006590496748685837,0.0004363323129985824,0.0,0.0,0.0,0.0004363323129985824,0.0,0.0,0.0,0.0004363323129985824,-0.2710285782814026,-0.06979171186685562,9.81965446472168,0.0004,0.0,0.0,0.0,0.0004,0.0,0.0,0.0,0.0004
2025/05/07 10:35:38.800145155,1746606938,799589322,mti/imu_base_body,0.15318553901698323,0.98802424886101,0.008211767825510096,-0.0165783342918778,0.017453292519943295,0.0,0.0,0.0,0.017453292519943295,0.0,0.0,0.0,0.15707963267948966,0.011711792089045048,-0.008372113108634949,0.011301943100988865,0.0004363323129985824,0.0,0.0,0.0,0.0004363323129985824,0.0,0.0,0.0,0.0004363323129985824,-0.2645842134952545,-0.08763454854488373,9.80847454071045,0.0004,0.0,0.0,0.0,0.0004,0.0,0.0,0.0,0.0004
2025/05/07 10:35:38.849563014,1746606938,849070601,mti/imu_base_body,0.1530871191260475,0.988039905472166,0.00822567960680972,-0.01654742720929904,0.017453292519943295,0.0,0.0,0.0,0.017453292519943295,0.0,0.0,0.0,0.15707963267948966,0.004528447519987822,0.0024959638249129057,0.001420075073838234,0.0004363323129985824,0.0,0.0,0.0,0.0004363323129985824,0.0,0.0,0.0,0.0004363323129985824,-0.27723491191864014,-0.08496563136577606,9.781466484069824,0.0004,0.0,0.0,0.0,0.0004,0.0,0.0,0.0,0.0004
2025/05/07 10:35:38.898777471,1746606938,898258871,mti/imu_base_body,0.1530322342386059,0.9880490327764788,0.00824388759873541,-0.016500982718148885,0.017453292519943295,0.0,0.0,0.0,0.017453292519943295,0.0,0.0,0.0,0.15707963267948966,0.003350526560097933,-0.008266453631222248,0.007452019490301609,0.0004363323129985824,0.0,0.0,0.0,0.0004363323129985824,0.0,0.0,0.0,0.0004363323129985824,-0.26376253366470337,-0.07564684003591537,9.791790962219238,0.0004,0.0,0.0,0.0,0.0004,0.0,0.0,0.0,0.0004
2025/05/07 10:35:38.948624500,1746606938,948096495,mti/imu_base_body,0.15300122243201209,0.9880553472984479,0.008215625954063593,-0.016424375161210793,0.017453292519943295,0.0,0.0,0.0,0.017453292519943295,0.0,0.0,0.0,0.15707963267948966,0.010827131569385529,-0.013270835392177105,0.013949149288237095,0.0004363323129985824,0.0,0.0,0.0,0.0004363323129985824,0.0,0.0,0.0,0.0004363323129985824,-0.2681819796562195,-0.07611693441867828,9.831415176391602,0.0004,0.0,0.0,0.0,0.0004,0.0,0.0,0.0,0.0004
2025/05/07 10:35:38.998773309,1746606938,998081183,mti/imu_base_body,0.152973527297592,0.9880602735284689,0.008247918296489506,-0.016369717919200694,0.017453292519943295,0.0,0.0,0.0,0.017453292519943295,0.0,0.0,0.0,0.15707963267948966,0.004254090134054422,-0.006692663766443729,0.008638192899525166,0.0004363323129985824,0.0,0.0,0.0,0.0004363323129985824,0.0,0.0,0.0,0.0004363323129985824,-0.2742827534675598,-0.07525339722633362,9.822525978088379,0.0004,0.0,0.0,0.0,0.0004,0.0,0.0,0.0,0.0004
2025/05/07 10:35:39.49988915,1746606939,49306220,mti/imu_base_body,0.15289745812343364,0.9880725583255243,0.008294223406037252,-0.01631541116664937,0.017453292519943295,0.0,0.0,0.0,0.017453292519943295,0.0,0.0,0.0,0.15707963267948966,-0.008373841643333435,0.00012318551307544112,0.010113277472555637,0.0004363323129985824,0.0,0.0,0.0,0.0004363323129985824,0.0,0.0,0.0,0.0004363323129985824,-0.2843407094478607,-0.08120977133512497,9.795397758483887,0.0004,0.0,0.0,0.0,0.0004,0.0,0.0,0.0,0.0004
2025/05/07 10:35:39.98568521,1746606939,97990238,mti/imu_base_body,0.15287159088917868,0.9880770167447479,0.00830986093957043,-0.016279800090161563,0.017453292519943295,0.0,0.0,0.0,0.017453292519943295,0.0,0.0,0.0,0.15707963267948966,0.007806498557329178,-0.004799834918230772,0.00761274341493845,0.0004363323129985824,0.0,0.0,0.0,0.0004363323129985824,0.0,0.0,0.0,0.0004363323129985824,-0.29126861691474915,-0.08058083057403564,9.8031005859375,0.0004,0.0,0.0,0.0,0.0004,0.0,0.0,0.0,0.0004
2025/05/07 10:35:39.148529264,1746606939,148001945,mti/imu_base_body,0.1528040764026805,0.9880887322679808,0.008297845126960992,-0.0162085522495744,0.017453292519943295,0.0,0.0,0.0,0.017453292519943295,0.0,0.0,0.0,0.15707963267948966,0.00739363394677639,-0.007085408549755812,0.006694011855870485,0.0004363323129985824,0.0,0.0,0.0,0.0004363323129985824,0.0,0.0,0.0,0.0004363323129985824,-0.27823495864868164,-0.06761046499013901,9.811013221740723,0.0004,0.0,0.0,0.0,0.0004,0.0,0.0,0.0,0.0004
2025/05/07 10:35:39.199735666,1746606939,198305808,mti/imu_base_body,0.15278570527109658,0.9880918844454973,0.008313354864246418,-0.016181603402029808,0.017453292519943295,0.0,0.0,0.0,0.017453292519943295,0.0,0.0,0.0,0.15707963267948966,0.007110862992703915,-0.002103969221934676,0.016444530338048935,0.0004363323129985824,0.0,0.0,0.0,0.0004363323129985824,0.0,0.0,0.0,0.0004363323129985824,-0.27116498351097107,-0.07669199258089066,9.812557220458984,0.0004,0.0,0.0,0.0,0.0004,0.0,0.0,0.0,0.0004
2025/05/07 10:35:39.248421691,1746606939,247957831,mti/imu_base_body,0.15273441644215524,0.9881012964495731,0.008260005282803202,-0.016118259877393907,0.017453292519943295,0.0,0.0,0.0,0.017453292519943295,0.0,0.0,0.0,0.15707963267948966,0.017583580687642097,-0.009844302199780941,0.00939791090786457,0.0004363323129985824,0.0,0.0,0.0,0.0004363323129985824,0.0,0.0,0.0,0.0004363323129985824,-0.2877503037452698,-0.05684632807970047,9.794825553894043,0.0004,0.0,0.0,0.0,0.0004,0.0,0.0,0.0,0.0004
2025/05/07 10:35:39.299163385,1746606939,298008950,mti/imu_base_body,0.15271393772983294,0.9881051931018214,0.008247694352278827,-0.01607968053575182,0.017453292519943295,0.0,0.0,0.0,0.017453292519943295,0.0,0.0,0.0,0.15707963267948966,0.0064987908117473125,-0.0036460673436522484,0.010384189896285534,0.0004363323129985824,0.0,0.0,0.0,0.0004363323129985824,0.0,0.0,0.0,0.0004363323129985824,-0.27939271926879883,-0.06537486612796783,9.812691688537598,0.0004,0.0,0.0,0.0,0.0004,0.0,0.0,0.0,0.0004
2025/05/07 10:35:39.349267755,1746606939,348309573,mti/imu_base_body,0.15265275013746382,0.9881147975708781,0.008258950109012361,-0.01606469545395782,0.017453292519943295,0.0,0.0,0.0,0.017453292519943295,0.0,0.0,0.0,0.15707963267948966,0.013703819364309311,0.002508025849238038,0.011847282759845257,0.0004363323129985824,0.0,0.0,0.0,0.0004363323129985824,0.0,0.0,0.0,0.0004363323129985824,-0.28277692198753357,-0.07668132334947586,9.838489532470703,0.0004,0.0,0.0,0.0,0.0004,0.0,0.0,0.0,0.0004
2025/05/07 10:35:39.399049214,1746606939,398232571,mti/imu_base_body,0.1526045604967431,0.9881230254539585,0.008261906026646518,-0.01601485535740408,0.017453292519943295,0.0,0.0,0.0,0.017453292519943295,0.0,0.0,0.0,0.15707963267948966,0.0005483160493895411,-0.007437198888510466,0.006110149435698986,0.0004363323129985824,0.0,0.0,0.0,0.0004363323129985824,0.0,0.0,0.0,0.0004363323129985824,-0.27357354760169983,-0.07464992254972458,9.826006889343262,0.0004,0.0,0.0,0.0,0.0004,0.0,0.0,0.0,0.0004
2025/05/07 10:35:39.448325765,1746606939,448107528,mti/imu_base_body,0.1525560734285512,0.9881309283638631,0.008266113199690388,-0.01598700232696781,0.017453292519943295,0.0,0.0,0.0,0.017453292519943295,0.0,0.0,0.0,0.15707963267948966,0.0067179640755057335,-0.002206110395491123,0.00883620698004961,0.0004363323129985824,0.0,0.0,0.0,0.0004363323129985824,0.0,0.0,0.0,0.0004363323129985824,-0.28379160165786743,-0.07985074818134308,9.793604850769043,0.0004,0.0,0.0,0.0,0.0004,0.0,0.0,0.0,0.0004
2025/05/07 10:35:39.499362331,1746606939,498088809,mti/imu_base_body,0.15248628403461023,0.988142856949948,0.008256122323754894,-0.01592054912011669,0.017453292519943295,0.0,0.0,0.0,0.017453292519943295,0.0,0.0,0.0,0.15707963267948966,0.012530866079032421,-0.007286503911018372,0.0050805662758648396,0.0004363323129985824,0.0,0.0,0.0,0.0004363323129985824,0.0,0.0,0.0,0.0004363323129985824,-0.2718879282474518,-0.08201150596141815,9.8267240524292,0.0004,0.0,0.0,0.0,0.0004,0.0,0.0,0.0,0.0004
2025/05/07 10:35:39.548529732,1746606939,548029004,mti/imu_base_body,0.15245565536222994,0.988148487323618,0.008247248637490563,-0.015868933109372384,0.017453292519943295,0.0,0.0,0.0,0.017453292519943295,0.0,0.0,0.0,0.15707963267948966,0.009648134931921959,-0.006896415259689093,0.012060537002980709,0.0004363323129985824,0.0,0.0,0.0,0.0004363323129985824,0.0,0.0,0.0,0.0004363323129985824,-0.2724711298942566,-0.06691210716962814,9.837892532348633,0.0004,0.0,0.0,0.0,0.0004,0.0,0.0,0.0,0.0004
2025/05/07 10:35:39.598574894,1746606939,598058878,mti/imu_base_body,0.15241509503166384,0.9881555450666146,0.00823399996346448,-0.015825890344371776,0.017453292519943295,0.0,0.0,0.0,0.017453292519943295,0.0,0.0,0.0,0.15707963267948966,0.008995970711112022,-0.002896292367950082,0.013522345572710037,0.0004363323129985824,0.0,0.0,0.0,0.0004363323129985824,0.0,0.0,0.0,0.0004363323129985824,-0.2896449863910675,-0.0805506706237793,9.816783905029297,0.0004,0.0,0.0,0.0,0.0004,0.0,0.0,0.0,0.0004
2025/05/07 10:35:39.649118740,1746606939,648336387,mti/imu_base_body,0.1523716025459217,0.9881625779422858,0.008229655634091528,-0.01580781642694691,0.017453292519943295,0.0,0.0,0.0,0.017453292519943295,0.0,0.0,0.0,0.15707963267948966,0.0064484840258955956,0.004753202199935913,0.005622887518256903,0.0004363323129985824,0.0,0.0,0.0,0.0004363323129985824,0.0,0.0,0.0,0.0004363323129985824,-0.28536272048950195,-0.08244188129901886,9.801401138305664,0.0004,0.0,0.0,0.0,0.0004,0.0,0.0,0.0,0.0004
2025/05/07 10:35:39.698891737,1746606939,698097090,mti/imu_base_body,0.15236261427097997,0.9881648462155395,0.008220861504835739,-0.015757154325898907,0.017453292519943295,0.0,0.0,0.0,0.017453292519943295,0.0,0.0,0.0,0.15707963267948966,0.008171102032065392,-0.010378428734838963,0.01934591308236122,0.0004363323129985824,0.0,0.0,0.0,0.0004363323129985824,0.0,0.0,0.0,0.0004363323129985824,-0.27543705701828003,-0.07856590300798416,9.816784858703613,0.0004,0.0,0.0,0.0,0.0004,0.0,0.0,0.0,0.0004
2025/05/07 10:35:39.749065370,1746606939,748028459,mti/imu_base_body,0.15230788598550504,0.9881741200200723,0.008239741616058109,-0.015694682133843795,0.017453292519943295,0.0,0.0,0.0,0.017453292519943295,0.0,0.0,0.0,0.15707963267948966,0.005656139459460974,-0.0066213542595505714,0.004540321417152882,0.0004363323129985824,0.0,0.0,0.0,0.0004363323129985824,0.0,0.0,0.0,0.0004363323129985824,-0.27988505363464355,-0.07736378163099289,9.836816787719727,0.0004,0.0,0.0,0.0,0.0004,0.0,0.0,0.0,0.0004
2025/05/07 10:35:39.803632753,1746606939,798428771,mti/imu_base_body,0.15220013474047805,0.9881910012263129,0.008244111544303264,-0.015674779269980385,0.017453292519943295,0.0,0.0,0.0,0.017453292519943295,0.0,0.0,0.0,0.15707963267948966,0.0063821012154221535,0.003993623424321413,-0.0013586687855422497,0.0004363323129985824,0.0,0.0,0.0,0.0004363323129985824,0.0,0.0,0.0,0.0004363323129985824,-0.28757578134536743,-0.07134286314249039,9.80752944946289,0.0004,0.0,0.0,0.0,0.0004,0.0,0.0,0.0,0.0004
2025/05/07 10:35:39.849474742,1746606939,848293311,mti/imu_base_body,0.1521486220366528,0.9881989879409432,0.0082267923861754,-0.015680463382120598,0.017453292519943295,0.0,0.0,0.0,0.017453292519943295,0.0,0.0,0.0,0.15707963267948966,0.013611371628940105,0.00025589982396923006,0.0033727698028087616,0.0004363323129985824,0.0,0.0,0.0,0.0004363323129985824,0.0,0.0,0.0,0.0004363323129985824,-0.26209399104118347,-0.07298628985881805,9.806777000427246,0.0004,0.0,0.0,0.0,0.0004,0.0,0.0,0.0,0.0004
2025/05/07 10:35:39.899693023,1746606939,898021039,mti/imu_base_body,0.15208181659650488,0.9882098890346175,0.008204820153315865,-0.01565302530336191,0.017453292519943295,0.0,0.0,0.0,0.017453292519943295,0.0,0.0,0.0,0.15707963267948966,0.00886208564043045,0.0003201749350409955,0.005114816129207611,0.0004363323129985824,0.0,0.0,0.0,0.0004363323129985824,0.0,0.0,0.0,0.0004363323129985824,-0.2758483588695526,-0.08225469291210175,9.818201065063477,0.0004,0.0,0.0,0.0,0.0004,0.0,0.0,0.0,0.0004
2025/05/07 10:35:39.955208688,1746606939,948033500,mti/imu_base_body,0.15200336725480457,0.988222467463345,0.00819939106045288,-0.01562373611197899,0.017453292519943295,0.0,0.0,0.0,0.017453292519943295,0.0,0.0,0.0,0.15707963267948966,0.013639358803629875,-0.005726718809455633,0.009272060357034206,0.0004363323129985824,0.0,0.0,0.0,0.0004363323129985824,0.0,0.0,0.0,0.0004363323129985824,-0.26595956087112427,-0.09927040338516235,9.828038215637207,0.0004,0.0,0.0,0.0,0.0004,0.0,0.0,0.0,0.0004
2025/05/07 10:35:39.999449395,1746606939,998347627,mti/imu_base_body,0.1519385622771472,0.9882331892380727,0.008175376366157625,-0.015588463772048684,0.017453292519943295,0.0,0.0,0.0,0.017453292519943295,0.0,0.0,0.0,0.15707963267948966,0.010671847499907017,0.0008383512031286955,0.0030717935878783464,0.0004363323129985824,0.0,0.0,0.0,0.0004363323129985824,0.0,0.0,0.0,0.0004363323129985824,-0.2714671492576599,-0.06878174841403961,9.818439483642578,0.0004,0.0,0.0,0.0,0.0004,0.0,0.0,0.0,0.0004
2025/05/07 10:35:40.48629071,1746606940,48132390,mti/imu_base_body,0.15189579293980676,0.9882403347597408,0.008172016089294425,-0.01555400251313648,0.017453292519943295,0.0,0.0,0.0,0.017453292519943295,0.0,0.0,0.0,0.15707963267948966,0.0064493874087929726,-0.003461388871073723,0.009906223975121975,0.0004363323129985824,0.0,0.0,0.0,0.0004363323129985824,0.0,0.0,0.0,0.0004363323129985824,-0.264668732881546,-0.08301347494125366,9.810517311096191,0.0004,0.0,0.0,0.0,0.0004,0.0,0.0,0.0,0.0004
2025/05/07 10:35:40.99788026,1746606940,99396429,mti/imu_base_body,0.1518912868162165,0.9882417955486689,0.008185036462032433,-0.015498248229138624,0.017453292519943295,0.0,0.0,0.0,0.017453292519943295,0.0,0.0,0.0,0.15707963267948966,0.004788680467754602,-0.00896434485912323,0.017924590036273003,0.0004363323129985824,0.0,0.0,0.0,0.0004363323129985824,0.0,0.0,0.0,0.0004363323129985824,-0.26810580492019653,-0.07012511789798737,9.807519912719727,0.0004,0.0,0.0,0.0,0.0004,0.0,0.0,0.0,0.0004
2025/05/07 10:35:40.148598157,1746606940,148120611,mti/imu_base_body,0.15181013101693536,0.988255268864318,0.008168013192667335,-0.01544316169117483,0.017453292519943295,0.0,0.0,0.0,0.017453292519943295,0.0,0.0,0.0,0.15707963267948966,0.013185439631342888,-0.0041750050149858,0.006261488888412714,0.0004363323129985824,0.0,0.0,0.0,0.0004363323129985824,0.0,0.0,0.0,0.0004363323129985824,-0.2759515047073364,-0.06446956843137741,9.83753776550293,0.0004,0.0,0.0,0.0,0.0004,0.0,0.0,0.0,0.0004
2025/05/07 10:35:40.198483293,1746606940,198071721,mti/imu_base_body,0.15180765417951464,0.9882562047913639,0.008132668130896052,-0.015426261146355624,0.017453292519943295,0.0,0.0,0.0,0.017453292519943295,0.0,0.0,0.0,0.15707963267948966,0.015798313543200493,-0.001016414724290371,0.012665878050029278,0.0004363323129985824,0.0,0.0,0.0,0.0004363323129985824,0.0,0.0,0.0,0.0004363323129985824,-0.27546659111976624,-0.07292276620864868,9.8054838180542,0.0004,0.0,0.0,0.0,0.0004,0.0,0.0,0.0,0.0004
2025/05/07 10:35:40.248631338,1746606940,248124982,mti/imu_base_body,0.15176861590843094,0.9882627523361797,0.008102393756162573,-0.015406842167620487,0.017453292519943295,0.0,0.0,0.0,0.017453292519943295,0.0,0.0,0.0,0.15707963267948966,0.017203442752361298,0.0003383497823961079,0.008249972946941853,0.0004363323129985824,0.0,0.0,0.0,0.0004363323129985824,0.0,0.0,0.0,0.0004363323129985824,-0.28527358174324036,-0.08332531899213791,9.80453109741211,0.0004,0.0,0.0,0.0,0.0004,0.0,0.0,0.0,0.0004
2025/05/07 10:35:40.308210138,1746606940,307623072,mti/imu_base_body,0.15169786842365346,0.9882744978686713,0.008077259759826502,-0.015363315166914521,0.017453292519943295,0.0,0.0,0.0,0.017453292519943295,0.0,0.0,0.0,0.15707963267948966,0.007379712071269751,-0.007136920467019081,0.007989286445081234,0.0004363323129985824,0.0,0.0,0.0,0.0004363323129985824,0.0,0.0,0.0,0.0004363323129985824,-0.2710593640804291,-0.08169765770435333,9.814359664916992,0.0004,0.0,0.0,0.0,0.0004,0.0,0.0,0.0,0.0004
2025/05/07 10:35:40.350653319,1746606940,349473406,mti/imu_base_body,0.1516889226021323,0.9882763949456104,0.008087593476909165,-0.015324124277242692,0.017453292519943295,0.0,0.0,0.0,0.017453292519943295,0.0,0.0,0.0,0.15707963267948966,0.003335813758894801,-0.0023717964068055153,0.013816405087709427,0.0004363323129985824,0.0,0.0,0.0,0.0004363323129985824,0.0,0.0,0.0,0.0004363323129985824,-0.27968189120292664,-0.07448755949735641,9.828409194946289,0.0004,0.0,0.0,0.0,0.0004,0.0,0.0,0.0,0.0004
2025/05/07 10:35:40.401250603,1746606940,400479681,mti/imu_base_body,0.1516646132882447,0.9882809584744208,0.008049004209753057,-0.015290707120299656,0.017453292519943295,0.0,0.0,0.0,0.017453292519943295,0.0,0.0,0.0,0.15707963267948966,0.01682344637811184,-0.0029027657583355904,0.015326191671192646,0.0004363323129985824,0.0,0.0,0.0,0.0004363323129985824,0.0,0.0,0.0,0.0004363323129985824,-0.2634716331958771,-0.09000516682863235,9.810150146484375,0.0004,0.0,0.0,0.0,0.0004,0.0,0.0,0.0,0.0004
2025/05/07 10:35:40.448703033,1746606940,448120764,mti/imu_base_body,0.15164311135093572,0.9882847655018321,0.008038226406311237,-0.015263550472852484,0.017453292519943295,0.0,0.0,0.0,0.017453292519943295,0.0,0.0,0.0,0.15707963267948966,0.012087656185030937,0.002288644202053547,0.0152530362829566,0.0004363323129985824,0.0,0.0,0.0,0.0004363323129985824,0.0,0.0,0.0,0.0004363323129985824,-0.2660154700279236,-0.08598450571298599,9.814352035522461,0.0004,0.0,0.0,0.0,0.0004,0.0,0.0,0.0,0.0004
2025/05/07 10:35:40.498777647,1746606940,498188943,mti/imu_base_body,0.15162836063124402,0.9882876685291748,0.008013209701049493,-0.015235253714199395,0.017453292519943295,0.0,0.0,0.0,0.017453292519943295,0.0,0.0,0.0,0.15707963267948966,0.010464753024280071,-0.008159488439559937,0.014530113898217678,0.0004363323129985824,0.0,0.0,0.0,0.0004363323129985824,0.0,0.0,0.0,0.0004363323129985824,-0.2760300636291504,-0.07764993607997894,9.81113052368164,0.0004,0.0,0.0,0.0,0.0004,0.0,0.0,0.0,0.0004
2025/05/07 10:35:40.550042350,1746606940,549653687,mti/imu_base_body,0.1516225056659966,0.9882897829996304,0.007943007069272548,-0.015193065286687051,0.017453292519943295,0.0,0.0,0.0,0.017453292519943295,0.0,0.0,0.0,0.15707963267948966,0.02639133669435978,-0.004437376745045185,0.02120889723300934,0.0004363323129985824,0.0,0.0,0.0,0.0004363323129985824,0.0,0.0,0.0,0.0004363323129985824,-0.2820952832698822,-0.0833892896771431,9.819059371948242,0.0004,0.0,0.0,0.0,0.0004,0.0,0.0,0.0,0.0004
2025/05/07 10:35:40.599467627,1746606940,598814375,mti/imu_base_body,0.15159978867177787,0.9882937586451099,0.007903853378951166,-0.015181561169966004,0.017453292519943295,0.0,0.0,0.0,0.017453292519943295,0.0,0.0,0.0,0.15707963267948966,0.01752358488738537,-2.996986950165592e-05,0.009842907078564167,0.0004363323129985824,0.0,0.0,0.0,0.0004363323129985824,0.0,0.0,0.0,0.0004363323129985824,-0.2870204746723175,-0.08777908235788345,9.819648742675781,0.0004,0.0,0.0,0.0,0.0004,0.0,0.0,0.0,0.0004
2025/05/07 10:35:40.648578265,1746606940,647984073,mti/imu_base_body,0.1515429496722086,0.988303622105302,0.007824204837986995,-0.015148160180031784,0.017453292519943295,0.0,0.0,0.0,0.017453292519943295,0.0,0.0,0.0,0.15707963267948966,0.021137285977602005,-0.002672913484275341,0.004654062446206808,0.0004363323129985824,0.0,0.0,0.0,0.0004363323129985824,0.0,0.0,0.0,0.0004363323129985824,-0.2865624725818634,-0.07072921097278595,9.82409954071045,0.0004,0.0,0.0,0.0,0.0004,0.0,0.0,0.0,0.0004
2025/05/07 10:35:40.699255389,1746606940,698856678,mti/imu_base_body,0.15152914656811445,0.9883062774089278,0.0077523554180235245,-0.01514994257147213,0.017453292519943295,0.0,0.0,0.0,0.017453292519943295,0.0,0.0,0.0,0.15707963267948966,0.019084211438894272,0.00501819746568799,0.017353929579257965,0.0004363323129985824,0.0,0.0,0.0,0.0004363323129985824,0.0,0.0,0.0,0.0004363323129985824,-0.2793957591056824,-0.08740876615047455,9.82193374633789,0.0004,0.0,0.0,0.0,0.0004,0.0,0.0,0.0,0.0004
2025/05/07 10:35:40.756162207,1746606940,755532381,mti/imu_base_body,0.1514879027949862,0.9883127464691372,0.007739895686817328,-0.015146764940562014,0.017453292519943295,0.0,0.0,0.0,0.017453292519943295,0.0,0.0,0.0,0.15707963267948966,0.01499794889241457,-0.0009819474071264267,0.007328925654292107,0.0004363323129985824,0.0,0.0,0.0,0.0004363323129985824,0.0,0.0,0.0,0.0004363323129985824,-0.28238344192504883,-0.08049231767654419,9.83225154876709,0.0004,0.0,0.0,0.0,0.0004,0.0,0.0,0.0,0.0004
2025/05/07 10:35:40.799458900,1746606940,798213574,mti/imu_base_body,0.1514787681236326,0.9883153956466336,0.007686718237956514,-0.015092246297855067,0.017453292519943295,0.0,0.0,0.0,0.017453292519943295,0.0,0.0,0.0,0.15707963267948966,0.01444261521100998,-0.009878587909042835,0.016588494181632996,0.0004363323129985824,0.0,0.0,0.0,0.0004363323129985824,0.0,0.0,0.0,0.0004363323129985824,-0.26549237966537476,-0.09147617220878601,9.818558692932129,0.0004,0.0,0.0,0.0,0.0004,0.0,0.0,0.0,0.0004
2025/05/07 10:35:40.850268494,1746606940,848274371,mti/imu_base_body,0.15140578170764213,0.9883273981063139,0.007664729763537307,-0.015049761976631897,0.017453292519943295,0.0,0.0,0.0,0.017453292519943295,0.0,0.0,0.0,0.15707963267948966,0.012176502496004105,-0.0013365063350647688,0.004534750711172819,0.0004363323129985824,0.0,0.0,0.0,0.0004363323129985824,0.0,0.0,0.0,0.0004363323129985824,-0.2790526747703552,-0.08177061378955841,9.799482345581055,0.0004,0.0,0.0,0.0,0.0004,0.0,0.0,0.0,0.0004
2025/05/07 10:35:40.906518122,1746606940,899822403,mti/imu_base_body,0.15136480829819016,0.9883335704056404,0.007652189252340066,-0.015062948507417802,0.017453292519943295,0.0,0.0,0.0,0.017453292519943295,0.0,0.0,0.0,0.15707963267948966,0.008495626039803028,0.008039064705371857,0.008033190853893757,0.0004363323129985824,0.0,0.0,0.0,0.0004363323129985824,0.0,0.0,0.0,0.0004363323129985824,-0.27732962369918823,-0.08533443510532379,9.813752174377441,0.0004,0.0,0.0,0.0,0.0004,0.0,0.0,0.0,0.0004
2025/05/07 10:35:40.948485361,1746606940,947931659,mti/imu_base_body,0.15131371719531211,0.9883421619335326,0.007624924192603841,-0.01502632570340625,0.017453292519943295,0.0,0.0,0.0,0.017453292519943295,0.0,0.0,0.0,0.15707963267948966,0.015805458649992943,-0.006903116591274738,0.008519377559423447,0.0004363323129985824,0.0,0.0,0.0,0.0004363323129985824,0.0,0.0,0.0,0.0004363323129985824,-0.2736974358558655,-0.09059283882379532,9.80992603302002,0.0004,0.0,0.0,0.0,0.0004,0.0,0.0,0.0,0.0004
2025/05/07 10:35:40.999044341,1746606940,998455426,mti/imu_base_body,0.15125331452887597,0.98835221967238,0.00759534203278632,-0.014987844812156204,0.017453292519943295,0.0,0.0,0.0,0.017453292519943295,0.0,0.0,0.0,0.15707963267948966,0.013860303908586502,-0.004576080944389105,0.007941970601677895,0.0004363323129985824,0.0,0.0,0.0,0.0004363323129985824,0.0,0.0,0.0,0.0004363323129985824,-0.2638484835624695,-0.08098815381526947,9.809189796447754,0.0004,0.0,0.0,0.0,0.0004,0.0,0.0,0.0,0.0004
2025/05/07 10:35:41.48672021,1746606941,48148913,mti/imu_base_body,0.15117880021992158,0.9883647675300044,0.007573028797957869,-0.01492333422028945,0.017453292519943295,0.0,0.0,0.0,0.017453292519943295,0.0,0.0,0.0,0.15707963267948966,0.011092283762991428,-0.004705448169261217,0.005311406217515469,0.0004363323129985824,0.0,0.0,0.0,0.0004363323129985824,0.0,0.0,0.0,0.0004363323129985824,-0.2562968134880066,-0.07769470661878586,9.80738639831543,0.0004,0.0,0.0,0.0,0.0004,0.0,0.0,0.0,0.0004
2025/05/07 10:35:41.102343027,1746606941,97963173,mti/imu_base_body,0.15116938343634995,0.9883674396095643,0.007522048899962856,-0.014867434595602145,0.017453292519943295,0.0,0.0,0.0,0.017453292519943295,0.0,0.0,0.0,0.15707963267948966,0.0178318303078413,-0.011423755437135696,0.012595468200743198,0.0004363323129985824,0.0,0.0,0.0,0.0004363323129985824,0.0,0.0,0.0,0.0004363323129985824,-0.2523670792579651,-0.07469101995229721,9.825873374938965,0.0004,0.0,0.0,0.0,0.0004,0.0,0.0,0.0,0.0004
2025/05/07 10:35:41.148488617,1746606941,148012159,mti/imu_base_body,0.15111654808865493,0.9883760950092058,0.007465314002611231,-0.014857752015858042,0.017453292519943295,0.0,0.0,0.0,0.017453292519943295,0.0,0.0,0.0,0.15707963267948966,0.016837310045957565,-0.0007574961637146771,0.00799959059804678,0.0004363323129985824,0.0,0.0,0.0,0.0004363323129985824,0.0,0.0,0.0,0.0004363323129985824,-0.24021007120609283,-0.06995506584644318,9.832799911499023,0.0004,0.0,0.0,0.0,0.0004,0.0,0.0,0.0,0.0004
2025/05/07 10:35:41.199157101,1746606941,198094307,mti/imu_base_body,0.15102571988581587,0.988390501685593,0.007432844147606799,-0.014839169065364966,0.017453292519943295,0.0,0.0,0.0,0.017453292519943295,0.0,0.0,0.0,0.15707963267948966,0.018325380980968475,0.00039121872396208346,0.0012415016535669565,0.0004363323129985824,0.0,0.0,0.0,0.0004363323129985824,0.0,0.0,0.0,0.0004363323129985824,-0.25733885169029236,-0.05428225174546242,9.805813789367676,0.0004,0.0,0.0,0.0,0.0004,0.0,0.0,0.0,0.0004
2025/05/07 10:35:41.249224811,1746606941,248042678,mti/imu_base_body,0.15099334710494527,0.9883964369099026,0.007398922587328752,-0.014790151398853606,0.017453292519943295,0.0,0.0,0.0,0.017453292519943295,0.0,0.0,0.0,0.15707963267948966,0.013406231068074703,-0.004881353583186865,0.011906696483492851,0.0004363323129985824,0.0,0.0,0.0,0.0004363323129985824,0.0,0.0,0.0,0.0004363323129985824,-0.24546919763088226,-0.03138456121087074,9.799812316894531,0.0004,0.0,0.0,0.0,0.0004,0.0,0.0,0.0,0.0004
2025/05/07 10:35:41.301997134,1746606941,301369963,mti/imu_base_body,0.15095118023594262,0.9884036754950829,0.007374053718910207,-0.014749196077655118,0.017453292519943295,0.0,0.0,0.0,0.017453292519943295,0.0,0.0,0.0,0.15707963267948966,0.010297009721398354,-0.0011259299935773015,0.011539170518517494,0.0004363323129985824,0.0,0.0,0.0,0.0004363323129985824,0.0,0.0,0.0,0.0004363323129985824,-0.23506921529769897,-0.045974601060152054,9.823803901672363,0.0004,0.0,0.0,0.0,0.0004,0.0,0.0,0.0,0.0004
2025/05/07 10:35:41.350775748,1746606941,348726709,mti/imu_base_body,0.15090529628900012,0.9884105880922811,0.0073543273936955925,-0.014765323145339902,0.017453292519943295,0.0,0.0,0.0,0.017453292519943295,0.0,0.0,0.0,0.15707963267948966,0.013327563181519508,0.002988504944369197,0.004282351117581129,0.0004363323129985824,0.0,0.0,0.0,0.0004363323129985824,0.0,0.0,0.0,0.0004363323129985824,-0.24126267433166504,-0.0384020134806633,9.836649894714355,0.0004,0.0,0.0,0.0,0.0004,0.0,0.0,0.0,0.0004
2025/05/07 10:35:41.398668336,1746606941,398184648,mti/imu_base_body,0.15087294520966,0.9884162270250474,0.00729894602677619,-0.014745912797481275,0.017453292519943295,0.0,0.0,0.0,0.017453292519943295,0.0,0.0,0.0,0.15707963267948966,0.019110655412077904,7.421396730933338e-05,0.012052600271999836,0.0004363323129985824,0.0,0.0,0.0,0.0004363323129985824,0.0,0.0,0.0,0.0004363323129985824,-0.23693247139453888,-0.03559345379471779,9.805917739868164,0.0004,0.0,0.0,0.0,0.0004,0.0,0.0,0.0,0.0004
2025/05/07 10:35:41.448582669,1746606941,448013609,mti/imu_base_body,0.1508568494797775,0.9884199796155562,0.00723112318634769,-0.014692369423722887,0.017453292519943295,0.0,0.0,0.0,0.017453292519943295,0.0,0.0,0.0,0.15707963267948966,0.02234341762959957,-0.010475295595824718,0.015498427674174309,0.0004363323129985824,0.0,0.0,0.0,0.0004363323129985824,0.0,0.0,0.0,0.0004363323129985824,-0.2530197501182556,-0.016136320307850838,9.804744720458984,0.0004,0.0,0.0,0.0,0.0004,0.0,0.0,0.0,0.0004
2025/05/07 10:35:41.499423773,1746606941,498623390,mti/imu_base_body,0.1508246363808623,0.9884257615270597,0.007171497673850264,-0.014663309017632372,0.017453292519943295,0.0,0.0,0.0,0.017453292519943295,0.0,0.0,0.0,0.15707963267948966,0.022947058081626892,-0.0023594514932483435,0.012016233056783676,0.0004363323129985824,0.0,0.0,0.0,0.0004363323129985824,0.0,0.0,0.0,0.0004363323129985824,-0.24288709461688995,0.009237870573997498,9.8325777053833,0.0004,0.0,0.0,0.0,0.0004,0.0,0.0,0.0,0.0004
2025/05/07 10:35:41.548994942,1746606941,548521372,mti/imu_base_body,0.1508162994753406,0.9884283441738195,0.007089230409567403,-0.014614891671365801,0.017453292519943295,0.0,0.0,0.0,0.017453292519943295,0.0,0.0,0.0,0.15707963267948966,0.013791657984256744,-0.005128928925842047,0.01644430123269558,0.0004363323129985824,0.0,0.0,0.0,0.0004363323129985824,0.0,0.0,0.0,0.0004363323129985824,-0.24442914128303528,0.017849719151854515,9.843027114868164,0.0004,0.0,0.0,0.0,0.0004,0.0,0.0,0.0,0.0004
2025/05/07 10:35:41.598590191,1746606941,597998672,mti/imu_base_body,0.15079459598856576,0.98843226067558,0.007067953981174165,-0.014584234739179386,0.017453292519943295,0.0,0.0,0.0,0.017453292519943295,0.0,0.0,0.0,0.15707963267948966,0.01953062042593956,-0.007215061690658331,0.014699950814247131,0.0004363323129985824,0.0,0.0,0.0,0.0004363323129985824,0.0,0.0,0.0,0.0004363323129985824,-0.243896484375,0.014432121999561787,9.806897163391113,0.0004,0.0,0.0,0.0,0.0004,0.0,0.0,0.0,0.0004
2025/05/07 10:35:41.648998913,1746606941,648482326,mti/imu_base_body,0.15079122898848796,0.9884339114387984,0.006987305184318681,-0.014545980345096868,0.017453292519943295,0.0,0.0,0.0,0.017453292519943295,0.0,0.0,0.0,0.15707963267948966,0.02187955379486084,-0.004645191133022308,0.012593970634043217,0.0004363323129985824,0.0,0.0,0.0,0.0004363323129985824,0.0,0.0,0.0,0.0004363323129985824,-0.26497259736061096,0.05652124434709549,9.798511505126953,0.0004,0.0,0.0,0.0,0.0004,0.0,0.0,0.0,0.0004
2025/05/07 10:35:41.699040205,1746606941,697965966,mti/imu_base_body,0.15077478035443703,0.9884371052370413,0.006938296797740188,-0.014522900441566634,0.017453292519943295,0.0,0.0,0.0,0.017453292519943295,0.0,0.0,0.0,0.15707963267948966,0.019876351580023766,0.0027747568674385548,0.014810201711952686,0.0004363323129985824,0.0,0.0,0.0,0.0004363323129985824,0.0,0.0,0.0,0.0004363323129985824,-0.28094449639320374,0.082980215549469,9.807897567749023,0.0004,0.0,0.0,0.0,0.0004,0.0,0.0,0.0,0.0004
2025/05/07 10:35:41.754177294,1746606941,752505647,mti/imu_base_body,0.15074374953371672,0.9884427360488006,0.006863904420934605,-0.014497115057057834,0.017453292519943295,0.0,0.0,0.0,0.017453292519943295,0.0,0.0,0.0,0.15707963267948966,0.02140074595808983,-0.002194333588704467,0.014675195328891277,0.0004363323129985824,0.0,0.0,0.0,0.0004363323129985824,0.0,0.0,0.0,0.0004363323129985824,-0.26136156916618347,0.06340374797582626,9.833559036254883,0.0004,0.0,0.0,0.0,0.0004,0.0,0.0,0.0,0.0004
2025/05/07 10:35:41.799004363,1746606941,798493614,mti/imu_base_body,0.15072863310516776,0.9884456633986611,0.0068021952884711745,-0.014483777472935822,0.017453292519943295,0.0,0.0,0.0,0.017453292519943295,0.0,0.0,0.0,0.15707963267948966,0.015557031147181988,-0.0003206217661499977,0.013416768051683903,0.0004363323129985824,0.0,0.0,0.0,0.0004363323129985824,0.0,0.0,0.0,0.0004363323129985824,-0.28404468297958374,0.05010027810931206,9.815343856811523,0.0004,0.0,0.0,0.0,0.0004,0.0,0.0,0.0,0.0004
2025/05/07 10:35:41.849344200,1746606941,848807079,mti/imu_base_body,0.15065003155326095,0.9884573117611978,0.006763644137836616,-0.014524597646893716,0.017453292519943295,0.0,0.0,0.0,0.017453292519943295,0.0,0.0,0.0,0.15707963267948966,0.02063610777258873,0.010833412408828735,0.003076741239055991,0.0004363323129985824,0.0,0.0,0.0,0.0004363323129985824,0.0,0.0,0.0,0.0004363323129985824,-0.31653398275375366,0.08269110321998596,9.802871704101562,0.0004,0.0,0.0,0.0,0.0004,0.0,0.0,0.0,0.0004
2025/05/07 10:35:41.898799637,1746606941,898222577,mti/imu_base_body,0.15064674071413459,0.9884578136848046,0.006723387770503121,-0.014543250480962045,0.017453292519943295,0.0,0.0,0.0,0.017453292519943295,0.0,0.0,0.0,0.15707963267948966,0.019630180671811104,0.0022801365703344345,0.015616449527442455,0.0004363323129985824,0.0,0.0,0.0,0.0004363323129985824,0.0,0.0,0.0,0.0004363323129985824,-0.3124021589756012,0.09659908711910248,9.812361717224121,0.0004,0.0,0.0,0.0,0.0004,0.0,0.0,0.0,0.0004
2025/05/07 10:35:41.951071890,1746606941,950522302,mti/imu_base_body,0.1506668698157675,0.9884553050658654,0.006673637490922222,-0.014528137860899536,0.017453292519943295,0.0,0.0,0.0,0.017453292519943295,0.0,0.0,0.0,0.15707963267948966,0.01326795481145382,0.001042866031639278,0.023688791319727898,0.0004363323129985824,0.0,0.0,0.0,0.0004363323129985824,0.0,0.0,0.0,0.0004363323129985824,-0.2972894012928009,0.06697521358728409,9.857962608337402,0.0004,0.0,0.0,0.0,0.0004,0.0,0.0,0.0,0.0004
2025/05/07 10:35:41.999078013,1746606941,998597792,mti/imu_base_body,0.1506526065814594,0.9884577850919775,0.00661194298330934,-0.014535523081735714,0.017453292519943295,0.0,0.0,0.0,0.017453292519943295,0.0,0.0,0.0,0.15707963267948966,0.023128051310777664,0.006875211838632822,0.015881292521953583,0.0004363323129985824,0.0,0.0,0.0,0.0004363323129985824,0.0,0.0,0.0,0.0004363323129985824,-0.3234747350215912,0.05711638182401657,9.816570281982422,0.0004,0.0,0.0,0.0,0.0004,0.0,0.0,0.0,0.0004
2025/05/07 10:35:42.48240035,1746606942,47851671,mti/imu_base_body,0.15058898545475047,0.9884680230789602,0.006553707740233557,-0.014524934593195132,0.017453292519943295,0.0,0.0,0.0,0.017453292519943295,0.0,0.0,0.0,0.15707963267948966,0.026903344318270683,-0.0007790420786477625,0.006472834385931492,0.0004363323129985824,0.0,0.0,0.0,0.0004363323129985824,0.0,0.0,0.0,0.0004363323129985824,-0.335705041885376,0.05880683287978172,9.798476219177246,0.0004,0.0,0.0,0.0,0.0004,0.0,0.0,0.0,0.0004
2025/05/07 10:35:42.98651520,1746606942,98288007,mti/imu_base_body,0.15055687263317113,0.9884733298642887,0.0064283891515296895,-0.014552665145622605,0.017453292519943295,0.0,0.0,0.0,0.017453292519943295,0.0,0.0,0.0,0.15707963267948966,0.030679158866405487,0.006720855366438627,0.010288162156939507,0.0004363323129985824,0.0,0.0,0.0,0.0004363323129985824,0.0,0.0,0.0,0.0004363323129985824,-0.3003917336463928,0.0558738112449646,9.85495662689209,0.0004,0.0,0.0,0.0,0.0004,0.0,0.0,0.0,0.0004
2025/05/07 10:35:42.148421853,1746606942,147974127,mti/imu_base_body,0.15053560190849402,0.9884767858603456,0.006360294927765929,-0.01456787636135494,0.017453292519943295,0.0,0.0,0.0,0.017453292519943295,0.0,0.0,0.0,0.15707963267948966,0.022649401798844337,0.003761117812246084,0.011318305507302284,0.0004363323129985824,0.0,0.0,0.0,0.0004363323129985824,0.0,0.0,0.0,0.0004363323129985824,-0.3011586666107178,0.04252061992883682,9.81859302520752,0.0004,0.0,0.0,0.0,0.0004,0.0,0.0,0.0,0.0004
2025/05/07 10:35:42.200979667,1746606942,198180926,mti/imu_base_body,0.15049721951181289,0.9884827781443746,0.0062833436251260285,-0.014591224214608171,0.017453292519943295,0.0,0.0,0.0,0.017453292519943295,0.0,0.0,0.0,0.15707963267948966,0.019530585035681725,0.006939793936908245,0.014080650173127651,0.0004363323129985824,0.0,0.0,0.0,0.0004363323129985824,0.0,0.0,0.0,0.0004363323129985824,-0.31113678216934204,0.054776210337877274,9.8291597366333,0.0004,0.0,0.0,0.0,0.0004,0.0,0.0,0.0,0.0004
2025/05/07 10:35:42.251371769,1746606942,250822969,mti/imu_base_body,0.15047947886979496,0.9884862823101841,0.00620344115383047,-0.014570979428880079,0.017453292519943295,0.0,0.0,0.0,0.017453292519943295,0.0,0.0,0.0,0.15707963267948966,0.02713555283844471,-0.0012252676533535123,0.01166989840567112,0.0004363323129985824,0.0,0.0,0.0,0.0004363323129985824,0.0,0.0,0.0,0.0004363323129985824,-0.30278435349464417,0.04120229184627533,9.806963920593262,0.0004,0.0,0.0,0.0,0.0004,0.0,0.0,0.0,0.0004
2025/05/07 10:35:42.298466667,1746606942,297948970,mti/imu_base_body,0.15044023865069966,0.9884926390242367,0.0061389133151874805,-0.014572265881770363,0.017453292519943295,0.0,0.0,0.0,0.017453292519943295,0.0,0.0,0.0,0.15707963267948966,0.022616229951381683,0.005741010885685682,0.01015915721654892,0.0004363323129985824,0.0,0.0,0.0,0.0004363323129985824,0.0,0.0,0.0,0.0004363323129985824,-0.2876664400100708,0.031226085498929024,9.817488670349121,0.0004,0.0,0.0,0.0,0.0004,0.0,0.0,0.0,0.0004
2025/05/07 10:35:42.348574565,1746606942,348082060,mti/imu_base_body,0.15041816530076613,0.988496626506796,0.006042249698152429,-0.014570042924449363,0.017453292519943295,0.0,0.0,0.0,0.017453292519943295,0.0,0.0,0.0,0.15707963267948966,0.02548878639936447,-0.0032122645061463118,0.013788619078695774,0.0004363323129985824,0.0,0.0,0.0,0.0004363323129985824,0.0,0.0,0.0,0.0004363323129985824,-0.2907698452472687,0.0369720458984375,9.81054401397705,0.0004,0.0,0.0,0.0,0.0004,0.0,0.0,0.0,0.0004
2025/05/07 10:35:42.398821967,1746606942,398314047,mti/imu_base_body,0.15039303387076253,0.988500811338996,0.005970765947655964,-0.014575023131800261,0.017453292519943295,0.0,0.0,0.0,0.017453292519943295,0.0,0.0,0.0,0.15707963267948966,0.02789679914712906,0.0031503865029662848,0.008600907400250435,0.0004363323129985824,0.0,0.0,0.0,0.0004363323129985824,0.0,0.0,0.0,0.0004363323129985824,-0.2856196165084839,0.0380500890314579,9.806208610534668,0.0004,0.0,0.0,0.0,0.0004,0.0,0.0,0.0,0.0004
2025/05/07 10:35:42.449079134,1746606942,448523205,mti/imu_base_body,0.15035314164805064,0.9885075637043224,0.005870104531305181,-0.014569528774054014,0.017453292519943295,0.0,0.0,0.0,0.017453292519943295,0.0,0.0,0.0,0.15707963267948966,0.027776336297392845,0.0005171525408513844,0.008671069517731667,0.0004363323129985824,0.0,0.0,0.0,0.0004363323129985824,0.0,0.0,0.0,0.0004363323129985824,-0.2846275568008423,0.03206653147935867,9.821100234985352,0.0004,0.0,0.0,0.0,0.0004,0.0,0.0,0.0,0.0004
2025/05/07 10:35:42.498701989,1746606942,498103625,mti/imu_base_body,0.15033886388592305,0.9885102716243945,0.005784329618763519,-0.014567444162128086,0.017453292519943295,0.0,0.0,0.0,0.017453292519943295,0.0,0.0,0.0,0.15707963267948966,0.025483397766947746,0.003545141313225031,0.01766028068959713,0.0004363323129985824,0.0,0.0,0.0,0.0004363323129985824,0.0,0.0,0.0,0.0004363323129985824,-0.26566216349601746,0.02339683473110199,9.84088134765625,0.0004,0.0,0.0,0.0,0.0004,0.0,0.0,0.0,0.0004
2025/05/07 10:35:42.548939313,1746606942,548364878,mti/imu_base_body,0.15032330119341897,0.988512399854148,0.005660638444683108,-0.014632075222067092,0.017453292519943295,0.0,0.0,0.0,0.017453292519943295,0.0,0.0,0.0,0.15707963267948966,0.03491435572504997,0.014412989839911461,0.014359747990965843,0.0004363323129985824,0.0,0.0,0.0,0.0004363323129985824,0.0,0.0,0.0,0.0004363323129985824,-0.2949482202529907,0.043331705033779144,9.793841361999512,0.0004,0.0,0.0,0.0,0.0004,0.0,0.0,0.0,0.0004
2025/05/07 10:35:42.598671416,1746606942,598062000,mti/imu_base_body,0.15027385790062303,0.9885199584734923,0.005536611625700597,-0.014676691143935296,0.017453292519943295,0.0,0.0,0.0,0.017453292519943295,0.0,0.0,0.0,0.15707963267948966,0.03254411742091179,0.010117409750819206,0.007991681806743145,0.0004363323129985824,0.0,0.0,0.0,0.0004363323129985824,0.0,0.0,0.0,0.0004363323129985824,-0.29924869537353516,0.03561282530426979,9.77429485321045,0.0004,0.0,0.0,0.0,0.0004,0.0,0.0,0.0,0.0004
2025/05/07 10:35:42.648813541,1746606942,648186396,mti/imu_base_body,0.15022263655134183,0.988527900502833,0.005438269915672922,-0.014702877791399768,0.017453292519943295,0.0,0.0,0.0,0.017453292519943295,0.0,0.0,0.0,0.15707963267948966,0.02846730500459671,0.002363345120102167,0.002808695426210761,0.0004363323129985824,0.0,0.0,0.0,0.0004363323129985824,0.0,0.0,0.0,0.0004363323129985824,-0.26019081473350525,0.00045908536412753165,9.8403959274292,0.0004,0.0,0.0,0.0,0.0004,0.0,0.0,0.0,0.0004
2025/05/07 10:35:42.698791787,1746606942,698222423,mti/imu_base_body,0.15015516258876122,0.9885383791389715,0.005374311220344491,-0.014711114714542907,0.017453292519943295,0.0,0.0,0.0,0.017453292519943295,0.0,0.0,0.0,0.15707963267948966,0.02160734310746193,0.001957409782335162,0.00982745923101902,0.0004363323129985824,0.0,0.0,0.0,0.0004363323129985824,0.0,0.0,0.0,0.0004363323129985824,-0.2712442874908447,0.0265975184738636,9.842565536499023,0.0004,0.0,0.0,0.0,0.0004,0.0,0.0,0.0,0.0004
2025/05/07 10:35:42.760475230,1746606942,751979638,mti/imu_base_body,0.15011752659746858,0.9885443839416503,0.005268692234511943,-0.014729903863205246,0.017453292519943295,0.0,0.0,0.0,0.017453292519943295,0.0,0.0,0.0,0.15707963267948966,0.03312486782670021,0.00693710520863533,0.006702878512442112,0.0004363323129985824,0.0,0.0,0.0,0.0004363323129985824,0.0,0.0,0.0,0.0004363323129985824,-0.30820149183273315,0.04185539111495018,9.794349670410156,0.0004,0.0,0.0,0.0,0.0004,0.0,0.0,0.0,0.0004
2025/05/07 10:35:42.799928731,1746606942,799309676,mti/imu_base_body,0.15010134836248268,0.9885471116491555,0.005133511037448734,-0.014759415107148248,0.017453292519943295,0.0,0.0,0.0,0.017453292519943295,0.0,0.0,0.0,0.15707963267948966,0.03967081382870674,0.006307119503617287,0.01810443587601185,0.0004363323129985824,0.0,0.0,0.0,0.0004363323129985824,0.0,0.0,0.0,0.0004363323129985824,-0.2886674106121063,0.01922590099275112,9.795166969299316,0.0004,0.0,0.0,0.0,0.0004,0.0,0.0,0.0,0.0004
2025/05/07 10:35:42.848942949,1746606942,848414566,mti/imu_base_body,0.15008592376731583,0.9885501503373639,0.00500567761943698,-0.014756657699385122,0.017453292519943295,0.0,0.0,0.0,0.017453292519943295,0.0,0.0,0.0,0.15707963267948966,0.03037523664534092,-0.00011963239376200363,0.012745367363095284,0.0004363323129985824,0.0,0.0,0.0,0.0004363323129985824,0.0,0.0,0.0,0.0004363323129985824,-0.2403945028781891,-0.010740234516561031,9.872182846069336,0.0004,0.0,0.0,0.0,0.0004,0.0,0.0,0.0,0.0004
2025/05/07 10:35:42.898841526,1746606942,898286913,mti/imu_base_body,0.15007474776743734,0.9885523113696402,0.004912071386955443,-0.014757009282756795,0.017453292519943295,0.0,0.0,0.0,0.017453292519943295,0.0,0.0,0.0,0.15707963267948966,0.03088810294866562,0.0005890733445994556,0.01465633139014244,0.0004363323129985824,0.0,0.0,0.0,0.0004363323129985824,0.0,0.0,0.0,0.0004363323129985824,-0.2804526686668396,-0.00514949532225728,9.844131469726562,0.0004,0.0,0.0,0.0,0.0004,0.0,0.0,0.0,0.0004
2025/05/07 10:35:42.948587781,1746606942,948127178,mti/imu_base_body,0.15001949387110247,0.9885606449381098,0.004746163058645961,-0.014814745169160367,0.017453292519943295,0.0,0.0,0.0,0.017453292519943295,0.0,0.0,0.0,0.15707963267948966,0.03920995816588402,0.01039961539208889,0.00683444831520319,0.0004363323129985824,0.0,0.0,0.0,0.0004363323129985824,0.0,0.0,0.0,0.0004363323129985824,-0.34571027755737305,0.06432965397834778,9.741689682006836,0.0004,0.0,0.0,0.0,0.0004,0.0,0.0,0.0,0.0004
2025/05/07 10:35:43.176394,1746606942,999681667,mti/imu_base_body,0.14997221128034932,0.9885681468149591,0.004642115690079853,-0.014825845960335697,0.017453292519943295,0.0,0.0,0.0,0.017453292519943295,0.0,0.0,0.0,0.15707963267948966,0.0283373910933733,0.006619897671043873,0.0023862391244620085,0.0004363323129985824,0.0,0.0,0.0,0.0004363323129985824,0.0,0.0,0.0,0.0004363323129985824,-0.27606311440467834,0.028945889323949814,9.785099983215332,0.0004,0.0,0.0,0.0,0.0004,0.0,0.0,0.0,0.0004
2025/05/07 10:35:43.48563715,1746606943,48015249,mti/imu_base_body,0.1498897598178413,0.9885811940667861,0.0045168029229740265,-0.01482838934585181,0.017453292519943295,0.0,0.0,0.0,0.017453292519943295,0.0,0.0,0.0,0.15707963267948966,0.03176933154463768,0.0007540587685070932,0.005309312604367733,0.0004363323129985824,0.0,0.0,0.0,0.0004363323129985824,0.0,0.0,0.0,0.0004363323129985824,-0.2355431169271469,-0.004207438789308071,9.858041763305664,0.0004,0.0,0.0,0.0,0.0004,0.0,0.0,0.0,0.0004
2025/05/07 10:35:43.98756458,1746606943,98245272,mti/imu_base_body,0.14987618548674603,0.9885834431028744,0.004432228358016693,-0.014841172412943363,0.017453292519943295,0.0,0.0,0.0,0.017453292519943295,0.0,0.0,0.0,0.15707963267948966,0.024639656767249107,-9.141811460722238e-05,0.014907649718225002,0.0004363323129985824,0.0,0.0,0.0,0.0004363323129985824,0.0,0.0,0.0,0.0004363323129985824,-0.28214818239212036,0.011130454018712044,9.844636917114258,0.0004,0.0,0.0,0.0,0.0004,0.0,0.0,0.0,0.0004
2025/05/07 10:35:43.151419166,1746606943,150137277,mti/imu_base_body,0.149838462837166,0.9885896544874291,0.004314535474557007,-0.014843007736276708,0.017453292519943295,0.0,0.0,0.0,0.017453292519943295,0.0,0.0,0.0,0.15707963267948966,0.033971257507801056,0.004308540839701891,0.015533923171460629,0.0004363323129985824,0.0,0.0,0.0,0.0004363323129985824,0.0,0.0,0.0,0.0004363323129985824,-0.3087588846683502,0.027898162603378296,9.745047569274902,0.0004,0.0,0.0,0.0,0.0004,0.0,0.0,0.0,0.0004
2025/05/07 10:35:43.198666142,1746606943,198126361,mti/imu_base_body,0.1498505736842134,0.9885878634391637,0.0042157782478197126,-0.014868390668353399,0.017453292519943295,0.0,0.0,0.0,0.017453292519943295,0.0,0.0,0.0,0.15707963267948966,0.02970281057059765,0.006398740224540234,0.012738234363496304,0.0004363323129985824,0.0,0.0,0.0,0.0004363323129985824,0.0,0.0,0.0,0.0004363323129985824,-0.29827892780303955,0.032080866396427155,9.784996032714844,0.0004,0.0,0.0,0.0,0.0004,0.0,0.0,0.0,0.0004
