time,header_stamp_secs,header_stamp_nsecs,header_frame_id,orientation_x,orientation_y,orientation_z,orientation_w,orientation_covariance_0,orientation_covariance_1,orientation_covariance_2,orientation_covariance_3,orientation_covariance_4,orientation_covariance_5,orientation_covariance_6,orientation_covariance_7,orientation_covariance_8,angular_velocity_x,angular_velocity_y,angular_velocity_z,angular_velocity_covariance_0,angular_velocity_covariance_1,angular_velocity_covariance_2,angular_velocity_covariance_3,angular_velocity_covariance_4,angular_velocity_covariance_5,angular_velocity_covariance_6,angular_velocity_covariance_7,angular_velocity_covariance_8,linear_acceleration_x,linear_acceleration_y,linear_acceleration_z,linear_acceleration_covariance_0,linear_acceleration_covariance_1,linear_acceleration_covariance_2,linear_acceleration_covariance_3,linear_acceleration_covariance_4,linear_acceleration_covariance_5,linear_acceleration_covariance_6,linear_acceleration_covariance_7,linear_acceleration_covariance_8
2025/05/21 13:29:49.728011676,1747826988,784201021,mA1/imu,0.38376546588339866,0.9234301610223251,0.0005820415434929352,0.000682742427536392,0.0,0.0,0.0,0.0,0.0,0.0,0.0,0.0,0.0,-0.0010102686385071566,-2.543876865369168e-05,-6.361794797221917e-05,0.0,0.0,0.0,0.0,0.0,0.0,0.0,0.0,0.0,0.007894373195559369,0.5506753824917755,9.810435804547202,0.0,0.0,0.0,0.0,0.0,0.0,0.0,0.0,0.0
2025/05/21 13:29:49.729501969,1747826988,836068942,mA1/imu,0.38376400092067253,0.9234307714917123,0.0005794758369680168,0.0006826912431636672,0.0,0.0,0.0,0.0,0.0,0.0,0.0,0.0,0.0,0.0005723958189694846,-3.446801127681104e-05,-6.352157307079918e-05,0.0,0.0,0.0,0.0,0.0,0.0,0.0,0.0,0.0,0.007471264458742022,0.031115351102983052,9.809176708532606,0.0,0.0,0.0,0.0,0.0,0.0,0.0,0.0,0.0
2025/05/21 13:29:49.738800255,1747826988,875769506,mA1/imu,0.3837625309594852,0.9234313774550644,0.0005840233342122784,0.0006854777585360603,0.0,0.0,0.0,0.0,0.0,0.0,0.0,0.0,0.0,0.0006985008891467476,-4.050612365854586e-05,-6.346516747430781e-05,0.0,0.0,0.0,0.0,0.0,0.0,0.0,0.0,0.0,0.008215498791497189,0.0357553189570768,9.811318586110772,0.0,0.0,0.0,0.0,0.0,0.0,0.0,0.0,0.0
2025/05/21 13:29:49.749284256,1747826988,926741009,mA1/imu,0.383761061046254,0.9234319831975528,0.0005888739810593256,0.0006882295562895439,0.0,0.0,0.0,0.0,0.0,0.0,0.0,0.0,0.0,0.0008668502072373637,-3.243542439804522e-05,-6.347605905935548e-05,0.0,0.0,0.0,0.0,0.0,0.0,0.0,0.0,0.0,0.007719929017798388,-0.5804116295039382,9.810455824534333,0.0,0.0,0.0,0.0,0.0,0.0,0.0,0.0,0.0
2025/05/21 13:29:49.759585762,1747826988,977999232,mA1/imu,0.38375959121921627,0.9234325885860789,0.0005941329032278577,0.0006910069224001884,0.0,0.0,0.0,0.0,0.0,0.0,0.0,0.0,0.0,-0.0007038229592950778,-2.108117520544628e-05,-6.353448122909694e-05,0.0,0.0,0.0,0.0,0.0,0.0,0.0,0.0,0.0,0.008262158612010038,-0.06109032566958765,9.808961414866321,0.0,0.0,0.0,0.0,0.0,0.0,0.0,0.0,0.0
2025/05/21 13:29:49.769876412,1747826989,28975293,mA1/imu,0.38375812750944077,0.9234331988663915,0.0005917171849903352,0.0006904148059487872,0.0,0.0,0.0,0.0,0.0,0.0,0.0,0.0,0.0,-0.0008071189735764113,-7.426186830165872e-06,-6.352718394823952e-05,0.0,0.0,0.0,0.0,0.0,0.0,0.0,0.0,0.0,0.008257401403510353,-0.06990964907927348,9.809285826827924,0.0,0.0,0.0,0.0,0.0,0.0,0.0,0.0,0.0
2025/05/21 13:29:50.731272772,1747826989,775842573,mA1/imu,0.3837360697940953,0.9234423902731715,0.0005700679751646971,0.0006749874488889326,0.0,0.0,0.0,0.0,0.0,0.0,0.0,0.0,0.0,0.0007925411979925277,-1.3237337141542723e-05,-6.392907075000091e-05,0.0,0.0,0.0,0.0,0.0,0.0,0.0,0.0,0.0,0.008257625367134877,0.035737337943515204,9.811341675156601,0.0,0.0,0.0,0.0,0.0,0.0,0.0,0.0,0.0
2025/05/21 13:29:50.732539366,1747826989,827047060,mA1/imu,0.38373459026023804,0.9234430018977473,0.0005733932748487403,0.0006765382743484311,0.0,0.0,0.0,0.0,0.0,0.0,0.0,0.0,0.0,0.0009278999672516075,-1.6124602151565274e-05,-6.394519229260554e-05,0.0,0.0,0.0,0.0,0.0,0.0,0.0,0.0,0.0,0.007767203518060551,-0.5804561899335354,9.810510299855903,0.0,0.0,0.0,0.0,0.0,0.0,0.0,0.0,0.0
2025/05/21 13:29:50.742153024,1747826989,876795060,mA1/imu,0.38373311017318157,0.923443612587544,0.000577804886286342,0.0006787264516375305,0.0,0.0,0.0,0.0,0.0,0.0,0.0,0.0,0.0,-0.0006778102732552701,-1.7340424149277542e-05,-6.400138732927278e-05,0.0,0.0,0.0,0.0,0.0,0.0,0.0,0.0,0.0,0.008309180371605305,-0.0611376539938751,9.809027045893131,0.0,0.0,0.0,0.0,0.0,0.0,0.0,0.0,0.0
2025/05/21 13:29:50.752866190,1747826989,928094501,mA1/imu,0.3837316358867551,0.9234442272076313,0.0005752574717924267,0.0006781853853188998,0.0,0.0,0.0,0.0,0.0,0.0,0.0,0.0,0.0,-0.0008174414584967034,-1.6238343900188762e-05,-6.397970356499156e-05,0.0,0.0,0.0,0.0,0.0,0.0,0.0,0.0,0.0,0.00829739218679984,-0.06995682307066475,9.809333068065607,0.0,0.0,0.0,0.0,0.0,0.0,0.0,0.0,0.0
2025/05/21 13:29:50.763330969,1747826989,977718294,mA1/imu,0.38373016282260614,0.9234448418027799,0.0005720775317339202,0.0006775066588493987,0.0,0.0,0.0,0.0,0.0,0.0,0.0,0.0,0.0,-0.0009582172543903018,-1.3041116459401782e-05,-6.394709738962786e-05,0.0,0.0,0.0,0.0,0.0,0.0,0.0,0.0,0.0,0.007890843006621788,0.5515237915757629,9.81037801276869,0.0,0.0,0.0,0.0,0.0,0.0,0.0,0.0,0.0
2025/05/21 13:29:50.773533004,1747826990,29808394,mA1/imu,0.38372869066862436,0.9234454560130779,0.000568824082967817,0.0006768793868639122,0.0,0.0,0.0,0.0,0.0,0.0,0.0,0.0,0.0,0.0005962868758875025,-2.474550457613447e-05,-6.384675612701564e-05,0.0,0.0,0.0,0.0,0.0,0.0,0.0,0.0,0.0,0.00747274943478406,0.031464424673790625,9.809163090826527,0.0,0.0,0.0,0.0,0.0,0.0,0.0,0.0,0.0
2025/05/21 13:29:51.731944697,1747826990,779072653,mA1/imu,0.38370660116890754,0.9234546122862177,0.00059297604461531,0.0006867649718710989,0.0,0.0,0.0,0.0,0.0,0.0,0.0,0.0,0.0,-0.0005921687921690363,2.0711648067161274e-05,-6.389939670502077e-05,0.0,0.0,0.0,0.0,0.0,0.0,0.0,0.0,0.0,0.00830526145600141,-0.06112187410770558,9.809073529460358,0.0,0.0,0.0,0.0,0.0,0.0,0.0,0.0,0.0
2025/05/21 13:29:51.734319072,1747826990,830037488,mA1/imu,0.38370512946570423,0.923455228543949,0.0005884043217088491,0.0006843076093933123,0.0,0.0,0.0,0.0,0.0,0.0,0.0,0.0,0.0,-0.0007025745401254137,2.4183074204483008e-05,-6.393971402667654e-05,0.0,0.0,0.0,0.0,0.0,0.0,0.0,0.0,0.0,0.008306622077460236,-0.06996305233831768,9.809383146591436,0.0,0.0,0.0,0.0,0.0,0.0,0.0,0.0,0.0
2025/05/21 13:29:51.742081878,1747826990,879839381,mA1/imu,0.38369881365013825,0.9234578553119868,0.0005820163300705414,0.0006863840425164379,0.0,0.0,0.0,0.0,0.0,0.0,0.0,0.0,0.0,-0.0008949524272582615,-0.0003332823929820845,-0.00046986512889886004,0.0,0.0,0.0,0.0,0.0,0.0,0.0,0.0,0.0,0.020744095194956576,0.5412070157299995,9.810235470438665,0.0,0.0,0.0,0.0,0.0,0.0,0.0,0.0,0.0
2025/05/21 13:29:51.752493589,1747826990,930862098,mA1/imu,0.38368637636791414,0.9234630203774797,0.0005764030654376494,0.0006945102360095146,0.0,0.0,0.0,0.0,0.0,0.0,0.0,0.0,0.0,0.0005128244868651129,-0.00039196481512173125,-0.0005819532254558314,0.0,0.0,0.0,0.0,0.0,0.0,0.0,0.0,0.0,0.008102842832623858,0.02044717635129355,9.809053406202132,0.0,0.0,0.0,0.0,0.0,0.0,0.0,0.0,0.0
2025/05/21 13:29:51.762893294,1747826990,980729518,mA1/imu,0.3836724683530627,0.9234687902576194,0.0005785185637876041,0.0007041052963320056,0.0,0.0,0.0,0.0,0.0,0.0,0.0,0.0,0.0,0.0007082436057824487,-0.000252540526051626,-0.0005992865142692408,0.0,0.0,0.0,0.0,0.0,0.0,0.0,0.0,0.0,0.003268265639234694,0.03189767056530646,9.811393406259322,0.0,0.0,0.0,0.0,0.0,0.0,0.0,0.0,0.0
2025/05/21 13:29:52.277362037,1747826991,335300983,mA1/imu,0.38360494743866663,0.923496882014601,0.0005908335614069298,0.0006357087308597578,0.0,0.0,0.0,0.0,0.0,0.0,0.0,0.0,0.0,0.0001527112081734278,0.0006383628438542265,-0.0003125269338662941,0.0,0.0,0.0,0.0,0.0,0.0,0.0,0.0,0.0,0.006823312307344595,-0.01235548639196415,9.811812679401577,0.0,0.0,0.0,0.0,0.0,0.0,0.0,0.0,0.0
2025/05/21 13:29:52.286615252,1747826991,384454810,mA1/imu,0.3835978417978948,0.9234998369583043,0.0005990428143564471,0.0006229395552761726,0.0,0.0,0.0,0.0,0.0,0.0,0.0,0.0,0.0,-0.0010845586330841298,0.0005667508827092441,-0.00030392142481080325,0.0,0.0,0.0,0.0,0.0,0.0,0.0,0.0,0.0,0.0072213423455648245,0.41468339800721826,9.810067578651935,0.0,0.0,0.0,0.0,0.0,0.0,0.0,0.0,0.0
2025/05/21 13:29:52.291763827,1747826991,436036603,mA1/imu,0.38359091974831977,0.9235027230878398,0.0005967393473756202,0.0006088005700921057,0.0,0.0,0.0,0.0,0.0,0.0,0.0,0.0,0.0,-0.0003163090745371747,0.0004402837326923985,-0.00029663133569586396,0.0,0.0,0.0,0.0,0.0,0.0,0.0,0.0,0.0,0.007531375698103835,0.05767994987958811,9.8092694812938,0.0,0.0,0.0,0.0,0.0,0.0,0.0,0.0,0.0
2025/05/21 13:29:52.301198377,1747826991,475376743,mA1/imu,0.3835841622225101,0.9235055345886198,0.0005983588407284636,0.0006000357823930422,0.0,0.0,0.0,0.0,0.0,0.0,0.0,0.0,0.0,-0.000358338728903118,0.00029756285960161864,-0.000289981641137883,0.0,0.0,0.0,0.0,0.0,0.0,0.0,0.0,0.0,0.007351633042309141,0.5848715910807539,9.810554852740257,0.0,0.0,0.0,0.0,0.0,0.0,0.0,0.0,0.0
2025/05/21 13:29:52.301614194,1747826991,526452560,mA1/imu,0.3835775719167656,0.9235082753668897,0.0005982732810683114,0.0005947439721871722,0.0,0.0,0.0,0.0,0.0,0.0,0.0,0.0,0.0,0.0013414539606435758,0.0001260186059132888,-0.0002824036524641796,0.0,0.0,0.0,0.0,0.0,0.0,0.0,0.0,0.0,0.007078027612429226,-0.5540866512716395,9.808178488616358,0.0,0.0,0.0,0.0,0.0,0.0,0.0,0.0,0.0
2025/05/21 13:29:52.311724272,1747826991,576361887,mA1/imu,0.3835721460743454,0.9235105278114987,0.0006013659201960186,0.0005934107161817972,0.0,0.0,0.0,0.0,0.0,0.0,0.0,0.0,0.0,0.00034044540743963095,8.2422938442469e-05,-0.00018739533296457904,0.0,0.0,0.0,0.0,0.0,0.0,0.0,0.0,0.0,0.0030630502961678232,0.004393924560117906,9.811159160991679,0.0,0.0,0.0,0.0,0.0,0.0,0.0,0.0,0.0
2025/05/21 13:29:52.322131592,1747826991,627743841,mA1/imu,0.38356786613475397,0.9235123026618863,0.0006038237952530223,0.0005952291965104397,0.0,0.0,0.0,0.0,0.0,0.0,0.0,0.0,0.0,-0.00014888355235948025,-0.00011236133297459452,-0.00018415727909727804,0.0,0.0,0.0,0.0,0.0,0.0,0.0,0.0,0.0,0.008534140469363601,-0.39507687250062556,9.810776699372154,0.0,0.0,0.0,0.0,0.0,0.0,0.0,0.0,0.0
2025/05/21 13:29:53.276430441,1747826992,326817577,mA1/imu,0.3835159794349907,0.923533772959561,0.0005643613845387864,0.0007383883298538209,0.0,0.0,0.0,0.0,0.0,0.0,0.0,0.0,0.0,-4.3685255885186256e-05,0.00024303357581853102,-0.00014105889318873874,0.0,0.0,0.0,0.0,0.0,0.0,0.0,0.0,0.0,0.007248337733885945,-0.015593230952697072,9.809188979191159,0.0,0.0,0.0,0.0,0.0,0.0,0.0,0.0,0.0
2025/05/21 13:29:53.281824787,1747826992,376723099,mA1/imu,0.3835115820894491,0.9235356012435768,0.0005687207736249614,0.0007322537773785807,0.0,0.0,0.0,0.0,0.0,0.0,0.0,0.0,0.0,-0.00020279208590384158,0.000309719150668346,-0.00023729065435824044,0.0,0.0,0.0,0.0,0.0,0.0,0.0,0.0,0.0,0.009990423008922404,0.5763246526088502,9.810145393024245,0.0,0.0,0.0,0.0,0.0,0.0,0.0,0.0,0.0
2025/05/21 13:29:53.291676388,1747826992,428469173,mA1/imu,0.3835045587942678,0.923538521687044,0.000572199604397825,0.0007245217290868255,0.0,0.0,0.0,0.0,0.0,0.0,0.0,0.0,0.0,0.0012638390516355367,0.0003582772417522838,-0.0003484687413886683,0.0,0.0,0.0,0.0,0.0,0.0,0.0,0.0,0.0,0.007854568286177857,-0.35435029802705154,9.80846596273491,0.0,0.0,0.0,0.0,0.0,0.0,0.0,0.0,0.0
2025/05/21 13:29:53.299179334,1747826992,478194280,mA1/imu,0.3834949713092999,0.9235425009410613,0.0005834619173666785,0.0007179889971864486,0.0,0.0,0.0,0.0,0.0,0.0,0.0,0.0,0.0,-0.00022463405466657683,0.00043429816899836663,-0.00046517595475944145,0.0,0.0,0.0,0.0,0.0,0.0,0.0,0.0,0.0,0.00909969529528824,-0.03119506450150636,9.8116990090762,0.0,0.0,0.0,0.0,0.0,0.0,0.0,0.0,0.0
2025/05/21 13:29:53.309414186,1747826992,529293652,mA1/imu,0.3834828902999747,0.9235475220093924,0.0005896125942273633,0.0007069614395790306,0.0,0.0,0.0,0.0,0.0,0.0,0.0,0.0,0.0,-5.2749843195508464e-05,0.000573532255859154,-0.0005434159708767578,0.0,0.0,0.0,0.0,0.0,0.0,0.0,0.0,0.0,0.0013016534725374378,-0.29764954759276874,9.81098453775957,0.0,0.0,0.0,0.0,0.0,0.0,0.0,0.0,0.0
2025/05/21 13:29:53.320273070,1747826992,578952015,mA1/imu,0.3834705474689071,0.9235526540092115,0.0005976512706681193,0.0006908758189433247,0.0,0.0,0.0,0.0,0.0,0.0,0.0,0.0,0.0,-0.0015223729500534943,0.0008128613463861444,-0.0005280760019036367,0.0,0.0,0.0,0.0,0.0,0.0,0.0,0.0,0.0,0.001966821647663866,0.5082999746232063,9.810258885164346,0.0,0.0,0.0,0.0,0.0,0.0,0.0,0.0,0.0
2025/05/21 13:29:54.285542908,1747826993,326742657,mA1/imu,0.3832642014469227,0.923638368019304,0.0005836576980243214,0.0006134782644399833,0.0,0.0,0.0,0.0,0.0,0.0,0.0,0.0,0.0,0.0020334833364779995,-0.0009502915416950517,-0.0006247042593861041,0.0,0.0,0.0,0.0,0.0,0.0,0.0,0.0,0.0,0.0021497517907104746,-0.5030081489853886,9.808344972383534,0.0,0.0,0.0,0.0,0.0,0.0,0.0,0.0,0.0
2025/05/21 13:29:54.292208802,1747826993,376463644,mA1/imu,0.3832500281117956,0.9236442345287775,0.0005812764525860903,0.0006372532794296363,0.0,0.0,0.0,0.0,0.0,0.0,0.0,0.0,0.0,0.00038160790180758635,-0.0009011741878496505,-0.0006073910162073099,0.0,0.0,0.0,0.0,0.0,0.0,0.0,0.0,0.0,0.003662349572759944,0.008509511811638776,9.81081478199851,0.0,0.0,0.0,0.0,0.0,0.0,0.0,0.0,0.0
2025/05/21 13:29:54.296944442,1747826993,428149996,mA1/imu,0.3832362494365527,0.9236499362665318,0.0005807500896011738,0.0006596074358665739,0.0,0.0,0.0,0.0,0.0,0.0,0.0,0.0,0.0,-0.0011124994512866492,-0.0007928186923856906,-0.0005903600615259948,0.0,0.0,0.0,0.0,0.0,0.0,0.0,0.0,0.0,0.003522957737587486,-0.09125031433079855,9.81114821295107,0.0,0.0,0.0,0.0,0.0,0.0,0.0,0.0,0.0
2025/05/21 13:29:54.578570439,1747826993,629871794,mA1/imu,0.3831878617622062,0.9236699943639484,0.0005602261793979388,0.0007001831473136676,0.0,0.0,0.0,0.0,0.0,0.0,0.0,0.0,0.0,0.0003150606053111487,-7.783232172487535e-05,-0.00044273038738672953,0.0,0.0,0.0,0.0,0.0,0.0,0.0,0.0,0.0,0.004477936579070257,0.013799021592700102,9.80922991333648,0.0,0.0,0.0,0.0,0.0,0.0,0.0,0.0,0.0
2025/05/21 13:29:54.586066722,1747826993,679277412,mA1/imu,0.38317777291522276,0.9236741718310495,0.000569035377486064,0.0007034448762497302,0.0,0.0,0.0,0.0,0.0,0.0,0.0,0.0,0.0,0.0005372897243154307,5.816863804407941e-05,-0.0004326464901575912,0.0,0.0,0.0,0.0,0.0,0.0,0.0,0.0,0.0,0.005276672400037126,-0.6020294736633066,9.809776373145464,0.0,0.0,0.0,0.0,0.0,0.0,0.0,0.0,0.0
2025/05/21 13:29:54.593587542,1747826993,730339752,mA1/imu,0.38316791177529796,0.9236782641073905,0.0005708349173196285,0.0006999634365230271,0.0,0.0,0.0,0.0,0.0,0.0,0.0,0.0,0.0,0.0004641246672924494,0.00020848894934961536,-0.0004233264901564588,0.0,0.0,0.0,0.0,0.0,0.0,0.0,0.0,0.0,0.005287292940007994,-0.6063215817210382,9.810331790853386,0.0,0.0,0.0,0.0,0.0,0.0,0.0,0.0,0.0
2025/05/21 13:29:54.604578919,1747826993,780821675,mA1/imu,0.3831582527468006,0.9236822721921624,0.0005756643152583041,0.000694262586545765,0.0,0.0,0.0,0.0,0.0,0.0,0.0,0.0,0.0,-0.0014275312535739387,0.0003430086110876331,-0.0004145461321481841,0.0,0.0,0.0,0.0,0.0,0.0,0.0,0.0,0.0,0.005319559940206676,0.5227605479999367,9.810517078400766,0.0,0.0,0.0,0.0,0.0,0.0,0.0,0.0,0.0
2025/05/21 13:29:54.614352137,1747826993,831781317,mA1/imu,0.3831487912058287,0.9236861996920145,0.0005811055951669959,0.0006860118976679296,0.0,0.0,0.0,0.0,0.0,0.0,0.0,0.0,0.0,-0.0014564465725305767,0.0004334920799516816,-0.0004061330100692294,0.0,0.0,0.0,0.0,0.0,0.0,0.0,0.0,0.0,0.005447362388873774,0.5202137116020049,9.810170194932825,0.0,0.0,0.0,0.0,0.0,0.0,0.0,0.0,0.0
2025/05/21 13:29:54.624309412,1747826993,881377963,mA1/imu,0.3831401582907058,0.9236897863592427,0.0005858294994471397,0.0006741545722903895,0.0,0.0,0.0,0.0,0.0,0.0,0.0,0.0,0.0,-0.0008370052559840602,0.0005875415763636384,-0.0003413757064753322,0.0,0.0,0.0,0.0,0.0,0.0,0.0,0.0,0.0,0.0021459584557831646,0.5634103043413823,9.810896656908877,0.0,0.0,0.0,0.0,0.0,0.0,0.0,0.0,0.0
2025/05/21 13:29:55.577988009,1747826994,628703172,mA1/imu,0.3830545010203407,0.9237253492981599,0.0006065916178462916,0.0006002988085914893,0.0,0.0,0.0,0.0,0.0,0.0,0.0,0.0,0.0,0.00013501684407934216,0.0001077300511509,0.00025022805265184156,0.0,0.0,0.0,0.0,0.0,0.0,0.0,0.0,0.0,0.008032921488470002,-0.018963478418311218,9.80977640965476,0.0,0.0,0.0,0.0,0.0,0.0,0.0,0.0,0.0
2025/05/21 13:29:55.582471477,1747826994,678324873,mA1/imu,0.3830615060754328,0.9237224500549607,0.0006001326970115071,0.0005980538671321323,0.0,0.0,0.0,0.0,0.0,0.0,0.0,0.0,0.0,0.0009915723396548024,-0.00012666962107396715,0.0003583859030520914,0.0,0.0,0.0,0.0,0.0,0.0,0.0,0.0,0.0,0.010449884712190952,-0.5869619400776885,9.808676291135876,0.0,0.0,0.0,0.0,0.0,0.0,0.0,0.0,0.0
2025/05/21 13:29:55.587956307,1747826994,729354345,mA1/imu,0.38306965391414244,0.9237190776299818,0.0005880205361659097,0.0006000869634483789,0.0,0.0,0.0,0.0,0.0,0.0,0.0,0.0,0.0,0.0015283821569408043,-0.00035426688236959693,0.0003484234735097739,0.0,0.0,0.0,0.0,0.0,0.0,0.0,0.0,0.0,0.0090725762921765,-0.20013551649123368,9.81023335848377,0.0,0.0,0.0,0.0,0.0,0.0,0.0,0.0,0.0
2025/05/21 13:29:56.436873688,1747826995,476008994,mA1/imu,0.3832252920803756,0.9236545263352799,0.0006031254106571824,0.0005724770733128437,0.0,0.0,0.0,0.0,0.0,0.0,0.0,0.0,0.0,0.00035097907194583787,0.003267494726137398,0.0012683125649927442,0.0,0.0,0.0,0.0,0.0,0.0,0.0,0.0,0.0,-0.010692149364738333,-0.638105791939586,9.8082445873664,0.0,0.0,0.0,0.0,0.0,0.0,0.0,0.0,0.0
2025/05/21 13:29:56.437681963,1747826995,527914609,mA1/imu,0.3832590635272499,0.9236405557347622,0.0006152387608985801,0.00048529111077145364,0.0,0.0,0.0,0.0,0.0,0.0,0.0,0.0,0.0,0.0005581711040223759,0.0034299343827013905,0.0015528568071468802,0.0,0.0,0.0,0.0,0.0,0.0,0.0,0.0,0.0,0.006617954273124512,-0.10692780499306596,9.809143016526182,0.0,0.0,0.0,0.0,0.0,0.0,0.0,0.0,0.0
2025/05/21 13:29:56.447212651,1747826995,576892353,mA1/imu,0.38329795113611403,0.9236244568357355,0.0006210474989009754,0.000397101692115615,0.0,0.0,0.0,0.0,0.0,0.0,0.0,0.0,0.0,0.0003322171781655583,0.0034080399124762515,0.0018279553700297872,0.0,0.0,0.0,0.0,0.0,0.0,0.0,0.0,0.0,-0.01573003692970186,0.5982072772291672,9.812443362983258,0.0,0.0,0.0,0.0,0.0,0.0,0.0,0.0,0.0
2025/05/21 13:29:56.457404197,1747826995,627931599,mA1/imu,0.3833442434470624,0.9236052613162536,0.0006408385915622388,0.00031876454272066667,0.0,0.0,0.0,0.0,0.0,0.0,0.0,0.0,0.0,-0.00010354604134689948,0.0029597287778198203,0.0020715077300183745,0.0,0.0,0.0,0.0,0.0,0.0,0.0,0.0,0.0,0.011303088986277512,0.244705036638724,9.809975039194349,0.0,0.0,0.0,0.0,0.0,0.0,0.0,0.0,0.0
2025/05/21 13:29:56.467664234,1747826995,677603732,mA1/imu,0.38339057644940533,0.9235860549710475,0.0006335766460521803,0.00025205841301569016,0.0,0.0,0.0,0.0,0.0,0.0,0.0,0.0,0.0,0.0020345749137892447,0.0019114177601857716,0.0019554983301086452,0.0,0.0,0.0,0.0,0.0,0.0,0.0,0.0,0.0,0.013109148011750536,-0.3152753499441463,9.808725627723152,0.0,0.0,0.0,0.0,0.0,0.0,0.0,0.0,0.0
2025/05/21 13:29:56.477856533,1747826995,728688397,mA1/imu,0.3834334344521171,0.9235682774127169,0.0006258301626050273,0.00021595779348221805,0.0,0.0,0.0,0.0,0.0,0.0,0.0,0.0,0.0,0.0001097550253862666,0.0007290744730582795,0.001820019710730126,0.0,0.0,0.0,0.0,0.0,0.0,0.0,0.0,0.0,0.015216154211016943,0.3679043719990563,9.809912943841345,0.0,0.0,0.0,0.0,0.0,0.0,0.0,0.0,0.0
2025/05/21 13:29:57.436463418,1747826996,485228656,mA1/imu,0.38417604059420263,0.9232592585089491,0.0003514337072012774,0.000993934211528048,0.0,0.0,0.0,0.0,0.0,0.0,0.0,0.0,0.0,-0.0022475023641877964,0.000560678618942759,0.0022796700118243667,0.0,0.0,0.0,0.0,0.0,0.0,0.0,0.0,0.0,0.0075886938460126094,-0.06626639570581125,9.810174393112549,0.0,0.0,0.0,0.0,0.0,0.0,0.0,0.0,0.0
2025/05/21 13:29:57.447546202,1747826996,526372282,mA1/imu,0.3842276829013583,0.923237770231524,0.0003802825743357809,0.0009811703933742225,0.0,0.0,0.0,0.0,0.0,0.0,0.0,0.0,0.0,-0.0010283043300408719,0.001149045794482597,0.0022113064420740476,0.0,0.0,0.0,0.0,0.0,0.0,0.0,0.0,0.0,0.011600565832644261,0.013409698914029617,9.809469097946975,0.0,0.0,0.0,0.0,0.0,0.0,0.0,0.0,0.0
2025/05/21 13:29:58.384075429,1747826997,435339080,mA1/imu,0.3852863297458257,0.9227967768837824,0.00045986702157319015,0.0005841285956881136,0.0,0.0,0.0,0.0,0.0,0.0,0.0,0.0,0.0,0.00037025404406968696,-0.002770972655331833,0.003113164210673784,0.0,0.0,0.0,0.0,0.0,0.0,0.0,0.0,0.0,0.017184358730279486,-0.642647115426438,9.81050542656184,0.0,0.0,0.0,0.0,0.0,0.0,0.0,0.0,0.0
2025/05/21 13:29:58.386357754,1747826997,484311692,mA1/imu,0.3853569975464285,0.9227672468398768,0.000416669390474684,0.0006472929589484483,0.0,0.0,0.0,0.0,0.0,0.0,0.0,0.0,0.0,0.0007219107598545314,-0.003123330278716579,0.0030266032182025577,0.0,0.0,0.0,0.0,0.0,0.0,0.0,0.0,0.0,0.01640932431999024,-0.34461771214800996,9.811140310877104,0.0,0.0,0.0,0.0,0.0,0.0,0.0,0.0,0.0
2025/05/21 13:29:58.777344484,1747826997,828834947,mA1/imu,0.38585298090836884,0.9225597231265725,0.00030219636531564803,0.0009711159067870302,0.0,0.0,0.0,0.0,0.0,0.0,0.0,0.0,0.0,-0.0007244079576844007,0.0007913014672976866,0.0036153131574964683,0.0,0.0,0.0,0.0,0.0,0.0,0.0,0.0,0.0,0.01704739190049349,0.6282862317441594,9.810926706121663,0.0,0.0,0.0,0.0,0.0,0.0,0.0,0.0,0.0
2025/05/21 13:29:58.779496877,1747826997,878143858,mA1/imu,0.38593585985010526,0.9225250608604983,0.00033402580304521784,0.00095529726089156,0.0,0.0,0.0,0.0,0.0,0.0,0.0,0.0,0.0,-0.0017324792774351418,0.0012702894894764745,0.0035881066264130236,0.0,0.0,0.0,0.0,0.0,0.0,0.0,0.0,0.0,0.013941984325936466,0.4360322865454429,9.809851093218432,0.0,0.0,0.0,0.0,0.0,0.0,0.0,0.0,0.0
2025/05/21 13:29:58.789263654,1747826997,929147921,mA1/imu,0.3860173087006506,0.9224909949046485,0.0003688806424476305,0.0009303926107994175,0.0,0.0,0.0,0.0,0.0,0.0,0.0,0.0,0.0,-0.0011210218843610816,0.0015721593874448245,0.0034964165067401715,0.0,0.0,0.0,0.0,0.0,0.0,0.0,0.0,0.0,0.017675748990179565,-0.20584067614041368,9.809019661964154,0.0,0.0,0.0,0.0,0.0,0.0,0.0,0.0,0.0
2025/05/21 13:29:58.799024256,1747826997,979137110,mA1/imu,0.38610012878444055,0.922456360449925,0.0004012241584919634,0.0008903017979389931,0.0,0.0,0.0,0.0,0.0,0.0,0.0,0.0,0.0,0.00017489371769789777,0.002291077244568143,0.003709292399262927,0.0,0.0,0.0,0.0,0.0,0.0,0.0,0.0,0.0,-0.0007601325950285336,-0.45861082057776364,9.806828888638236,0.0,0.0,0.0,0.0,0.0,0.0,0.0,0.0,0.0
2025/05/21 13:29:58.809291876,1747826998,30402760,mA1/imu,0.3861844341110065,0.9224210883825179,0.00044898588778188257,0.0008467403648310182,0.0,0.0,0.0,0.0,0.0,0.0,0.0,0.0,0.0,-0.002137119141106537,0.0023531355210556198,0.0036242193007970974,0.0,0.0,0.0,0.0,0.0,0.0,0.0,0.0,0.0,0.01945808615830215,0.5434473314215318,9.809829982313895,0.0,0.0,0.0,0.0,0.0,0.0,0.0,0.0,0.0
2025/05/21 13:29:58.819490004,1747826998,80023068,mA1/imu,0.3862658430334568,0.9223870214658186,0.0004903454959324605,0.0008004363578403464,0.0,0.0,0.0,0.0,0.0,0.0,0.0,0.0,0.0,-0.0009095414689498571,0.0023492920736454576,0.003462830089589373,0.0,0.0,0.0,0.0,0.0,0.0,0.0,0.0,0.0,0.015339507945337012,0.15360843107054337,9.809542458111896,0.0,0.0,0.0,0.0,0.0,0.0,0.0,0.0,0.0
2025/05/21 13:29:59.777048205,1747826998,827615390,mA1/imu,0.38752287393716334,0.9218596336409159,0.00038879431055740453,0.0008287809732557926,0.0,0.0,0.0,0.0,0.0,0.0,0.0,0.0,0.0,0.001991011054376292,-0.0025100578291901506,0.0034116220287997642,0.0,0.0,0.0,0.0,0.0,0.0,0.0,0.0,0.0,0.013646590445225626,0.07890675617628706,9.810330050336459,0.0,0.0,0.0,0.0,0.0,0.0,0.0,0.0,0.0
2025/05/21 13:29:59.783171466,1747826998,877375452,mA1/imu,0.38761083798026974,0.9218226307923337,0.0003610501781823267,0.0008632972274947911,0.0,0.0,0.0,0.0,0.0,0.0,0.0,0.0,0.0,0.0008228418214582087,-0.0009141789338216318,0.004236915933647533,0.0,0.0,0.0,0.0,0.0,0.0,0.0,0.0,0.0,-0.040290976012415526,-0.13375772741868877,9.813397277603265,0.0,0.0,0.0,0.0,0.0,0.0,0.0,0.0,0.0
2025/05/21 13:29:59.789325318,1747826998,928914476,mA1/imu,0.38770727730433835,0.9217820773345081,0.0003310759902533292,0.0008714463978491579,0.0,0.0,0.0,0.0,0.0,0.0,0.0,0.0,0.0,0.0012587590147373662,-0.0006650974854816174,0.004148893688825119,0.0,0.0,0.0,0.0,0.0,0.0,0.0,0.0,0.0,0.015544975990539944,-0.28668010588917364,9.810262844291534,0.0,0.0,0.0,0.0,0.0,0.0,0.0,0.0,0.0
2025/05/21 13:29:59.798442784,1747826998,978298581,mA1/imu,0.38780090919434246,0.9217426977081558,0.00030506598292925197,0.0008723442433693793,0.0,0.0,0.0,0.0,0.0,0.0,0.0,0.0,0.0,0.0014633062772208376,-0.0002766080872434957,0.003990894296409245,0.0,0.0,0.0,0.0,0.0,0.0,0.0,0.0,0.0,0.011921951632634141,0.07423113178631291,9.811305721692515,0.0,0.0,0.0,0.0,0.0,0.0,0.0,0.0,0.0
2025/05/21 13:29:59.809429557,1747826999,30098650,mA1/imu,0.38789153897055817,0.9217045653061938,0.0002978710101466294,0.0008715283319315835,0.0,0.0,0.0,0.0,0.0,0.0,0.0,0.0,0.0,0.0014074229851914338,3.7008642729847536e-05,0.003894735256029789,0.0,0.0,0.0,0.0,0.0,0.0,0.0,0.0,0.0,0.014243412185135747,0.07813303284770133,9.808913680557076,0.0,0.0,0.0,0.0,0.0,0.0,0.0,0.0,0.0
2025/05/21 13:29:59.819824650,1747826999,79270799,mA1/imu,0.3879806349961609,0.9216670705984819,0.00030017063638030354,0.000864719595002786,0.0,0.0,0.0,0.0,0.0,0.0,0.0,0.0,0.0,-0.00031199290861197773,0.0004618142328578843,0.003855479067925753,0.0,0.0,0.0,0.0,0.0,0.0,0.0,0.0,0.0,0.011214617772963755,-0.027235356351619396,9.808524291834235,0.0,0.0,0.0,0.0,0.0,0.0,0.0,0.0,0.0
2025/05/21 13:30:00.778320876,1747826999,826764317,mA1/imu,0.38941160909331285,0.9210634242038359,0.0006285033335021368,0.0006101481961068971,0.0,0.0,0.0,0.0,0.0,0.0,0.0,0.0,0.0,0.0014984537707400708,-0.001444753988229569,0.004009381846554106,0.0,0.0,0.0,0.0,0.0,0.0,0.0,0.0,0.0,0.013617508656285228,-0.5052250033316176,9.809929577975161,0.0,0.0,0.0,0.0,0.0,0.0,0.0,0.0,0.0
2025/05/21 13:30:00.782152166,1747826999,876707648,mA1/imu,0.3895054396700255,0.9210237312190285,0.0006180963156035123,0.000645721134384376,0.0,0.0,0.0,0.0,0.0,0.0,0.0,0.0,0.0,8.66216867406973e-05,-0.0014124126587775603,0.0041605534904680845,0.0,0.0,0.0,0.0,0.0,0.0,0.0,0.0,0.0,-0.001697892348717236,-0.06960383932178914,9.811596456063976,0.0,0.0,0.0,0.0,0.0,0.0,0.0,0.0,0.0
2025/05/21 13:30:00.790472668,1747826999,927971892,mA1/imu,0.3896001139128221,0.9209836792084258,0.0005941482694791564,0.0006788657165850974,0.0,0.0,0.0,0.0,0.0,0.0,0.0,0.0,0.0,0.001377624481419777,-0.001708153346923131,0.004077377283713071,0.0,0.0,0.0,0.0,0.0,0.0,0.0,0.0,0.0,0.01370014760424168,-0.459234511785663,9.809940625047659,0.0,0.0,0.0,0.0,0.0,0.0,0.0,0.0,0.0
2025/05/21 13:30:00.799590034,1747826999,977658802,mA1/imu,0.38969289838333165,0.9209444073912268,0.0005714225728383304,0.0007189719491698779,0.0,0.0,0.0,0.0,0.0,0.0,0.0,0.0,0.0,-0.0005625607381829669,-0.001896177371305205,0.003996195596731238,0.0,0.0,0.0,0.0,0.0,0.0,0.0,0.0,0.0,0.013862000387948204,0.5628647891096252,9.811916640453658,0.0,0.0,0.0,0.0,0.0,0.0,0.0,0.0,0.0
2025/05/21 13:30:00.810343154,1747827000,28982938,mA1/imu,0.38978386205792404,0.9209058986217669,0.000539760224534369,0.000758565583926421,0.0,0.0,0.0,0.0,0.0,0.0,0.0,0.0,0.0,-0.0009138356810083063,-0.0019650914017658393,0.0039181997915785985,0.0,0.0,0.0,0.0,0.0,0.0,0.0,0.0,0.0,0.013213189318805654,0.525828991603171,9.811281614070898,0.0,0.0,0.0,0.0,0.0,0.0,0.0,0.0,0.0
2025/05/21 13:30:00.810523508,1747827000,78494129,mA1/imu,0.38987390853169307,0.9208677683099432,0.0005056165962790761,0.0007956669800547316,0.0,0.0,0.0,0.0,0.0,0.0,0.0,0.0,0.0,0.0006091866868311942,-0.0018144351568488318,0.003914143136372437,0.0,0.0,0.0,0.0,0.0,0.0,0.0,0.0,0.0,0.00797183294606379,-0.23754672054893575,9.81083410526134,0.0,0.0,0.0,0.0,0.0,0.0,0.0,0.0,0.0
2025/05/21 13:30:00.821747109,1747827000,129904893,mA1/imu,0.3899630342209099,0.9208300230037493,0.000467128537809045,0.000826115648890714,0.0,0.0,0.0,0.0,0.0,0.0,0.0,0.0,0.0,0.001238416294891795,-0.001648509399365093,0.003840263883076655,0.0,0.0,0.0,0.0,0.0,0.0,0.0,0.0,0.0,0.011539587982393662,0.02988659232979208,9.809391703244206,0.0,0.0,0.0,0.0,0.0,0.0,0.0,0.0,0.0
2025/05/21 13:30:01.782277937,1747827000,829266193,mA1/imu,0.39118512387273274,0.9203117023948906,0.0004841565144948559,0.0005786952243339369,0.0,0.0,0.0,0.0,0.0,0.0,0.0,0.0,0.0,-0.00016272869532904028,-7.75716025991078e-05,0.0036365744998564866,0.0,0.0,0.0,0.0,0.0,0.0,0.0,0.0,0.0,0.01865036765653244,0.048398703003299674,9.810339287858286,0.0,0.0,0.0,0.0,0.0,0.0,0.0,0.0,0.0
2025/05/21 13:30:01.791167115,1747827000,879102807,mA1/imu,0.3912755738373609,0.9202732326230401,0.0005083653363762062,0.0005866860051680907,0.0,0.0,0.0,0.0,0.0,0.0,0.0,0.0,0.0,-0.0010046712615118941,0.0003544506207436299,0.004240770878483731,0.0,0.0,0.0,0.0,0.0,0.0,0.0,0.0,0.0,-0.01845981618434476,0.6299209334731803,9.812164242711548,0.0,0.0,0.0,0.0,0.0,0.0,0.0,0.0,0.0
2025/05/21 13:30:01.805654534,1747827000,930430709,mA1/imu,0.3913718067721439,0.9202322845465016,0.0005396590785677719,0.0006000919204779292,0.0,0.0,0.0,0.0,0.0,0.0,0.0,0.0,0.0,-0.0027182137941168605,-0.00024361346195834481,0.004146113705057942,0.0,0.0,0.0,0.0,0.0,0.0,0.0,0.0,0.0,0.021371313832104104,0.5085622906174802,9.81146438447507,0.0,0.0,0.0,0.0,0.0,0.0,0.0,0.0,0.0
2025/05/21 13:30:01.815123170,1747827000,979948593,mA1/imu,0.391465853690468,0.9201922542233022,0.0005579476858868808,0.0006239841428029944,0.0,0.0,0.0,0.0,0.0,0.0,0.0,0.0,0.0,-0.0008678956531317698,-0.0008239288101349712,0.0040502728741464485,0.0,0.0,0.0,0.0,0.0,0.0,0.0,0.0,0.0,0.02025812250524966,-0.6173559237108959,9.810109183456257,0.0,0.0,0.0,0.0,0.0,0.0,0.0,0.0,0.0
2025/05/21 13:30:01.831992639,1747827001,31794692,mA1/imu,0.39155774306619334,0.9201531310834395,0.000563567139718633,0.000656958393373325,0.0,0.0,0.0,0.0,0.0,0.0,0.0,0.0,0.0,-0.00022671676451911036,-0.0013204291787037837,0.003957409026519415,0.0,0.0,0.0,0.0,0.0,0.0,0.0,0.0,0.0,0.019457996416781725,-0.12121302202105576,9.811137025016572,0.0,0.0,0.0,0.0,0.0,0.0,0.0,0.0,0.0
2025/05/21 13:30:02.783451682,1747827001,833987804,mA1/imu,0.3926457224479292,0.919689139847061,0.00027867838556273395,0.0010700603133238463,0.0,0.0,0.0,0.0,0.0,0.0,0.0,0.0,0.0,0.002093361820852884,0.004518646057771522,0.001516990218505179,0.0,0.0,0.0,0.0,0.0,0.0,0.0,0.0,0.0,0.005132195758833669,0.043422285896701954,9.808877284932432,0.0,0.0,0.0,0.0,0.0,0.0,0.0,0.0,0.0
2025/05/21 13:30:02.785842523,1747827001,876650999,mA1/imu,0.39267934019583633,0.919674918017544,0.00030214646197874865,0.0009432180564581665,0.0,0.0,0.0,0.0,0.0,0.0,0.0,0.0,0.0,0.0003774461588433126,0.005228908192607783,0.0013181388910187444,0.0,0.0,0.0,0.0,0.0,0.0,0.0,0.0,0.0,0.025408277792374152,0.5498317176177991,9.811058357322684,0.0,0.0,0.0,0.0,0.0,0.0,0.0,0.0,0.0
2025/05/21 13:30:02.801446253,1747827001,933023254,mA1/imu,0.39270495324896376,0.9196640969890318,0.00033257611113663766,0.000811046366067383,0.0,0.0,0.0,0.0,0.0,0.0,0.0,0.0,0.0,0.0003997845324722328,0.00555139433659508,0.0010934648085690682,0.0,0.0,0.0,0.0,0.0,0.0,0.0,0.0,0.0,0.006195311251397795,-0.1031709237863847,9.8089684237062,0.0,0.0,0.0,0.0,0.0,0.0,0.0,0.0,0.0
2025/05/21 13:30:02.807945188,1747827001,984201262,mA1/imu,0.39272973658442323,0.9196536179442427,0.00036364112930625797,0.0006669104313626977,0.0,0.0,0.0,0.0,0.0,0.0,0.0,0.0,0.0,0.0016854062278745404,0.005888684344840352,0.0010408470337094633,0.0,0.0,0.0,0.0,0.0,0.0,0.0,0.0,0.0,0.007021145991064284,-0.5759164629468363,9.80798584468959,0.0,0.0,0.0,0.0,0.0,0.0,0.0,0.0,0.0
2025/05/21 13:30:02.818028238,1747827002,35275520,mA1/imu,0.3927524131612711,0.9196440083930998,0.00040686879382554827,0.0005236797256827262,0.0,0.0,0.0,0.0,0.0,0.0,0.0,0.0,0.0,0.0008261852131380622,0.0059250927811951475,0.0009814631174831063,0.0,0.0,0.0,0.0,0.0,0.0,0.0,0.0,0.0,0.007280685235057684,0.01648831610117077,9.81081627881528,0.0,0.0,0.0,0.0,0.0,0.0,0.0,0.0,0.0
2025/05/21 13:30:03.430664872,1747827002,478957512,mA1/imu,0.39290011857407753,0.9195808788998863,0.000680680179465552,0.00020164494000147494,0.0,0.0,0.0,0.0,0.0,0.0,0.0,0.0,0.0,-4.2937756099930955e-05,-0.0028511825812809295,0.0010870829841139707,0.0,0.0,0.0,0.0,0.0,0.0,0.0,0.0,0.0,0.0030537255621874504,-0.44500293189302953,9.810427681550077,0.0,0.0,0.0,0.0,0.0,0.0,0.0,0.0,0.0
2025/05/21 13:30:03.433418640,1747827002,530295578,mA1/imu,0.3929266908519418,0.9195695082375865,0.0006706777443427921,0.00029210818048035626,0.0,0.0,0.0,0.0,0.0,0.0,0.0,0.0,0.0,-0.001228656209400224,-0.003899047412047982,0.0011776887624430604,0.0,0.0,0.0,0.0,0.0,0.0,0.0,0.0,0.0,0.012047227600374124,-0.15565041512266137,9.812177658896506,0.0,0.0,0.0,0.0,0.0,0.0,0.0,0.0,0.0
2025/05/21 13:30:03.442018440,1747827002,579873577,mA1/imu,0.3929536714262723,0.9195579534140131,0.0006479734178378698,0.0004031824580303773,0.0,0.0,0.0,0.0,0.0,0.0,0.0,0.0,0.0,-0.0019064699012534586,-0.004765948302724505,0.0011664535812631143,0.0,0.0,0.0,0.0,0.0,0.0,0.0,0.0,0.0,0.012017908856213573,0.19677296449930803,9.810064244720259,0.0,0.0,0.0,0.0,0.0,0.0,0.0,0.0,0.0
2025/05/21 13:30:03.452579201,1747827002,632029423,mA1/imu,0.3929804037857687,0.9195464892433897,0.0006142156002775196,0.0005282988994108836,0.0,0.0,0.0,0.0,0.0,0.0,0.0,0.0,0.0,-0.00102369661415877,-0.00532436566022023,0.0011555345704656228,0.0,0.0,0.0,0.0,0.0,0.0,0.0,0.0,0.0,0.00973783453045289,-0.015561171228667648,9.80907967247279,0.0,0.0,0.0,0.0,0.0,0.0,0.0,0.0,0.0
2025/05/21 13:30:03.462872013,1747827002,680742309,mA1/imu,0.39301019379589835,0.9195336982473636,0.0005779773701594269,0.0006567360171350162,0.0,0.0,0.0,0.0,0.0,0.0,0.0,0.0,0.0,-0.0005468701002553137,-0.005176261515725917,0.0014301915306976906,0.0,0.0,0.0,0.0,0.0,0.0,0.0,0.0,0.0,-0.005564662802280361,0.36414717992980655,9.808844368902779,0.0,0.0,0.0,0.0,0.0,0.0,0.0,0.0,0.0
2025/05/21 13:30:03.473185363,1747827002,732415733,mA1/imu,0.3930430592605847,0.9195195726405323,0.0005436484431519068,0.0007832907657726163,0.0,0.0,0.0,0.0,0.0,0.0,0.0,0.0,0.0,0.00036586787586729365,-0.005170646934451771,0.0014249140354950134,0.0,0.0,0.0,0.0,0.0,0.0,0.0,0.0,0.0,0.008568274315012442,-0.18023787062988905,9.808314158749413,0.0,0.0,0.0,0.0,0.0,0.0,0.0,0.0,0.0
2025/05/21 13:30:03.985333502,1747827003,35985743,mA1/imu,0.3932573779347505,0.9194275910103877,0.00037190457209987436,0.0011837549194670277,0.0,0.0,0.0,0.0,0.0,0.0,0.0,0.0,0.0,-0.0001692891157691383,3.511201357992025e-05,0.0016328723779777251,0.0,0.0,0.0,0.0,0.0,0.0,0.0,0.0,0.0,0.00961375516389103,0.5748865606325658,9.80889307471588,0.0,0.0,0.0,0.0,0.0,0.0,0.0,0.0,0.0
2025/05/21 13:30:03.988071711,1747827003,75382020,mA1/imu,0.39330075839002093,0.9194090730655275,0.0003675964477781567,0.0011552867494021883,0.0,0.0,0.0,0.0,0.0,0.0,0.0,0.0,0.0,0.0005456197552783672,0.0015519435695641756,0.0020291743330257466,0.0,0.0,0.0,0.0,0.0,0.0,0.0,0.0,0.0,0.005674786113791963,-0.2962898297932124,9.80817381971243,0.0,0.0,0.0,0.0,0.0,0.0,0.0,0.0,0.0
2025/05/21 13:30:03.989151691,1747827003,127571566,mA1/imu,0.39334741808754703,0.9193891847576218,0.0003635030444101784,0.0010970415272724405,0.0,0.0,0.0,0.0,0.0,0.0,0.0,0.0,0.0,0.0017660650237690068,0.002406974300439621,0.0020296059200839217,0.0,0.0,0.0,0.0,0.0,0.0,0.0,0.0,0.0,0.012330129351571083,-0.42451046756606264,9.809066725182428,0.0,0.0,0.0,0.0,0.0,0.0,0.0,0.0,0.0
2025/05/21 13:30:03.996939082,1747827003,176909759,mA1/imu,0.3933969193517469,0.919368088441202,0.00037565737956414113,0.001020138254754772,0.0,0.0,0.0,0.0,0.0,0.0,0.0,0.0,0.0,0.0001397470329627028,0.0034678539606363902,0.00227919925804791,0.0,0.0,0.0,0.0,0.0,0.0,0.0,0.0,0.0,-0.0007430661546287132,0.5703775097295785,9.811296928611473,0.0,0.0,0.0,0.0,0.0,0.0,0.0,0.0,0.0
2025/05/21 13:30:03.999277624,1747827003,227856810,mA1/imu,0.3934493434225194,0.9193457519140694,0.00038734562300065376,0.0009233424667006637,0.0,0.0,0.0,0.0,0.0,0.0,0.0,0.0,0.0,0.001818675766180592,0.0038992466207652607,0.00228251533167202,0.0,0.0,0.0,0.0,0.0,0.0,0.0,0.0,0.0,0.0156734855927703,-0.48238677511916905,9.809525717881163,0.0,0.0,0.0,0.0,0.0,0.0,0.0,0.0,0.0
2025/05/21 13:30:04.9568307,1747827003,277767529,mA1/imu,0.3935018082648202,0.9193233850220884,0.0004066042797373002,0.0008217766153101719,0.0,0.0,0.0,0.0,0.0,0.0,0.0,0.0,0.0,0.0004577504982825344,0.004099948493686628,0.0022844431815055833,0.0,0.0,0.0,0.0,0.0,0.0,0.0,0.0,0.0,0.016884194691950356,0.5942328328861071,9.811597290487898,0.0,0.0,0.0,0.0,0.0,0.0,0.0,0.0,0.0
2025/05/21 13:30:04.20634995,1747827003,329506044,mA1/imu,0.3935542965267583,0.9193009903457602,0.000430468775093717,0.0007207851736233347,0.0,0.0,0.0,0.0,0.0,0.0,0.0,0.0,0.0,-0.00011653467235718872,0.004052941808710662,0.002285819148357533,0.0,0.0,0.0,0.0,0.0,0.0,0.0,0.0,0.0,0.017854070471504384,0.4920540687417041,9.811680581844296,0.0,0.0,0.0,0.0,0.0,0.0,0.0,0.0,0.0
2025/05/21 13:30:04.976749712,1747827004,28237489,mA1/imu,0.3944699619674057,0.918908259453735,0.00043881058655007265,0.0009312670989558888,0.0,0.0,0.0,0.0,0.0,0.0,0.0,0.0,0.0,-0.0006308446497775328,-0.0037716019222353205,0.0032405739041538803,0.0,0.0,0.0,0.0,0.0,0.0,0.0,0.0,0.0,0.016294495338437576,0.1734480714690549,9.80995384497595,0.0,0.0,0.0,0.0,0.0,0.0,0.0,0.0,0.0
2025/05/21 13:30:04.978530715,1747827004,77708932,mA1/imu,0.39454303276115255,0.9188767919296476,0.00043073990996358405,0.0010251906365904792,0.0,0.0,0.0,0.0,0.0,0.0,0.0,0.0,0.0,-0.0020478791213207202,-0.003415976736745732,0.0031206783656731038,0.0,0.0,0.0,0.0,0.0,0.0,0.0,0.0,0.0,0.01640040767762018,0.5009264855470192,9.811053698502018,0.0,0.0,0.0,0.0,0.0,0.0,0.0,0.0,0.0
2025/05/21 13:30:04.989645194,1747827004,128748868,mA1/imu,0.3946147656927899,0.9188459024197685,0.0004191855990694712,0.0011038963081707652,0.0,0.0,0.0,0.0,0.0,0.0,0.0,0.0,0.0,-0.0007415574695208409,-0.00282037310411406,0.0031231228464630467,0.0,0.0,0.0,0.0,0.0,0.0,0.0,0.0,0.0,0.014503820938978226,-0.3045665252213594,9.808564158252187,0.0,0.0,0.0,0.0,0.0,0.0,0.0,0.0,0.0
2025/05/21 13:30:04.999886403,1747827004,178520091,mA1/imu,0.39468974264790285,0.9188136329795032,0.000412170376478275,0.001159747868917919,0.0,0.0,0.0,0.0,0.0,0.0,0.0,0.0,0.0,-0.0002868823017131198,-0.0016655896602515454,0.0034100531714719323,0.0,0.0,0.0,0.0,0.0,0.0,0.0,0.0,0.0,-0.0009360046434990985,0.020716709800455063,9.808457429587277,0.0,0.0,0.0,0.0,0.0,0.0,0.0,0.0,0.0
2025/05/21 13:30:05.10764030,1747827004,229580094,mA1/imu,0.3947682701250518,0.9187798535345754,0.00041412850017927895,0.001192534713801262,0.0,0.0,0.0,0.0,0.0,0.0,0.0,0.0,0.0,-0.0009823407430060882,-0.0008411267911457316,0.0034244988918705165,0.0,0.0,0.0,0.0,0.0,0.0,0.0,0.0,0.0,0.015093034850558688,0.5925501720522035,9.810169093717542,0.0,0.0,0.0,0.0,0.0,0.0,0.0,0.0,0.0
2025/05/21 13:30:05.21781748,1747827004,279365823,mA1/imu,0.39484713972064506,0.9187459417351058,0.0004227448023544582,0.0012050255313125597,0.0,0.0,0.0,0.0,0.0,0.0,0.0,0.0,0.0,-0.001451688144751682,2.1608294299966294e-05,0.0034408209642856707,0.0,0.0,0.0,0.0,0.0,0.0,0.0,0.0,0.0,0.015515156291083358,0.5442963533260378,9.810669341599535,0.0,0.0,0.0,0.0,0.0,0.0,0.0,0.0,0.0
2025/05/21 13:30:05.977157011,1747827005,26884568,mA1/imu,0.39569955740002666,0.9183798221852421,0.00047903461936033904,0.0003646947489126228,0.0,0.0,0.0,0.0,0.0,0.0,0.0,0.0,0.0,-0.0006525197870889086,0.00011833624004882113,0.0017110331394845982,0.0,0.0,0.0,0.0,0.0,0.0,0.0,0.0,0.0,0.010050898812348769,-0.06592646472858403,9.811700789270251,0.0,0.0,0.0,0.0,0.0,0.0,0.0,0.0,0.0
2025/05/21 13:30:05.980825043,1747827005,76738851,mA1/imu,0.3957373283255556,0.9183635602189191,0.0004560789413493786,0.0003608653247272282,0.0,0.0,0.0,0.0,0.0,0.0,0.0,0.0,0.0,-1.0222494679294053e-05,-0.0003612357914221715,0.0015696046215524628,0.0,0.0,0.0,0.0,0.0,0.0,0.0,0.0,0.0,0.002939229285665947,0.6240531126009023,9.807048172327063,0.0,0.0,0.0,0.0,0.0,0.0,0.0,0.0,0.0
2025/05/21 13:30:06.787054967,1747827005,835264014,mA1/imu,0.39609636046904756,0.9182084284192856,0.0005403886853392565,0.0008143605028973588,0.0,0.0,0.0,0.0,0.0,0.0,0.0,0.0,0.0,0.0006730919300691385,0.0028435074233734057,0.0009048466680813717,0.0,0.0,0.0,0.0,0.0,0.0,0.0,0.0,0.0,-0.005869936414192456,0.023073997261311346,9.81150809336375,0.0,0.0,0.0,0.0,0.0,0.0,0.0,0.0,0.0
2025/05/21 13:30:06.793016130,1747827005,885210416,mA1/imu,0.3961187222435452,0.9181988306601097,0.0005668143666017421,0.0007375527251387031,0.0,0.0,0.0,0.0,0.0,0.0,0.0,0.0,0.0,-0.0005195137838908192,0.003481376386844012,0.0010229562496709276,0.0,0.0,0.0,0.0,0.0,0.0,0.0,0.0,0.0,-0.005014132937864072,0.42582948353245337,9.811874644262486,0.0,0.0,0.0,0.0,0.0,0.0,0.0,0.0,0.0
2025/05/21 13:30:06.805446948,1747827005,926132549,mA1/imu,0.3961437664035238,0.9181880846655918,0.0005855535083740544,0.0006439292285466207,0.0,0.0,0.0,0.0,0.0,0.0,0.0,0.0,0.0,0.0005991528075916573,0.0038834357226331427,0.001138781989194264,0.0,0.0,0.0,0.0,0.0,0.0,0.0,0.0,0.0,-0.0032255890100534894,-0.013447080066346498,9.809884872562936,0.0,0.0,0.0,0.0,0.0,0.0,0.0,0.0,0.0
2025/05/21 13:30:06.817360146,1747827005,976092134,mA1/imu,0.3961613595369506,0.9181805526796141,0.0005879728693884086,0.0005515239778321138,0.0,0.0,0.0,0.0,0.0,0.0,0.0,0.0,0.0,0.002139891284364517,0.0029200529090146698,0.00038524544264609295,0.0,0.0,0.0,0.0,0.0,0.0,0.0,0.0,0.0,0.04067427507270578,0.07107265780419796,9.80812539804741,0.0,0.0,0.0,0.0,0.0,0.0,0.0,0.0,0.0
2025/05/21 13:30:06.828290787,1747827006,27666168,mA1/imu,0.39617141955313423,0.9181762425486635,0.0006051630939849926,0.0004772065609989296,0.0,0.0,0.0,0.0,0.0,0.0,0.0,0.0,0.0,0.0015456354038670462,0.0030155710207166674,0.0004763349400407897,0.0,0.0,0.0,0.0,0.0,0.0,0.0,0.0,0.0,-0.005070307344551457,0.03742345833068968,9.810800387622864,0.0,0.0,0.0,0.0,0.0,0.0,0.0,0.0,0.0
2025/05/21 13:30:07.784655037,1747827006,830617370,mA1/imu,0.39655530714587794,0.9180105221992122,0.000483553609056919,0.0005793805961862761,0.0,0.0,0.0,0.0,0.0,0.0,0.0,0.0,0.0,-0.002167934291371426,-0.0027027408222464015,0.001491518886758362,0.0,0.0,0.0,0.0,0.0,0.0,0.0,0.0,0.0,-0.004186340418537035,-0.06441167249606866,9.81059407914101,0.0,0.0,0.0,0.0,0.0,0.0,0.0,0.0,0.0
2025/05/21 13:30:07.789526042,1747827006,881674296,mA1/imu,0.3965930750830351,0.9179941603453947,0.0004894338372133842,0.0006440671198143423,0.0,0.0,0.0,0.0,0.0,0.0,0.0,0.0,0.0,-0.0020167989357723643,-0.0018796690362042746,0.0018063217593283463,0.0,0.0,0.0,0.0,0.0,0.0,0.0,0.0,0.0,-0.0236546878078168,-0.050489524950854264,9.81283180194164,0.0,0.0,0.0,0.0,0.0,0.0,0.0,0.0,0.0
2025/05/21 13:30:07.797860803,1747827006,934104661,mA1/imu,0.39663516724220366,0.9179759322348969,0.0005009237721675501,0.0006935557622676977,0.0,0.0,0.0,0.0,0.0,0.0,0.0,0.0,0.0,-0.002466202821761633,-0.0014557618301077634,0.0018514313768842258,0.0,0.0,0.0,0.0,0.0,0.0,0.0,0.0,0.0,-0.002605017409480338,0.2300278178898713,9.811323907848532,0.0,0.0,0.0,0.0,0.0,0.0,0.0,0.0,0.0
2025/05/21 13:30:07.805702501,1747827006,985053309,mA1/imu,0.3966770298867789,0.9179578170707116,0.0005032140969164611,0.0007258199157353702,0.0,0.0,0.0,0.0,0.0,0.0,0.0,0.0,0.0,-0.000644947515993087,-0.0009152698771603112,0.0018024417418931206,0.0,0.0,0.0,0.0,0.0,0.0,0.0,0.0,0.0,-0.005112250213944942,0.0317256552521667,9.807781879738233,0.0,0.0,0.0,0.0,0.0,0.0,0.0,0.0,0.0
2025/05/21 13:30:07.816781096,1747827007,25961374,mA1/imu,0.3967186575908715,0.9179397955144986,0.0005241693120767157,0.0007508506042359483,0.0,0.0,0.0,0.0,0.0,0.0,0.0,0.0,0.0,0.00016653750335852448,-0.00037141413222204406,0.0018223413404784828,0.0,0.0,0.0,0.0,0.0,0.0,0.0,0.0,0.0,-0.004567320318776212,0.08014128679909698,9.81024768542259,0.0,0.0,0.0,0.0,0.0,0.0,0.0,0.0,0.0
2025/05/21 13:30:07.827535781,1747827007,75888325,mA1/imu,0.3967606471357104,0.9179216247351462,0.0005476043921436267,0.0007614837300899716,0.0,0.0,0.0,0.0,0.0,0.0,0.0,0.0,0.0,-0.0011422021306569854,0.00021411436983410218,0.0018361314191496106,0.0,0.0,0.0,0.0,0.0,0.0,0.0,0.0,0.0,-0.003995978106519691,-0.023305507673464024,9.810188336533395,0.0,0.0,0.0,0.0,0.0,0.0,0.0,0.0,0.0
2025/05/21 13:30:08.778326859,1747827007,834618906,mA1/imu,0.3975315297143197,0.9175882941741267,0.00044524652439139223,0.00045500894677864313,0.0,0.0,0.0,0.0,0.0,0.0,0.0,0.0,0.0,-0.0007062945939315762,-0.002175124843218589,0.0027272954512829128,0.0,0.0,0.0,0.0,0.0,0.0,0.0,0.0,0.0,0.010065011571573329,0.42136949185766803,9.80949780879295,0.0,0.0,0.0,0.0,0.0,0.0,0.0,0.0,0.0
2025/05/21 13:30:08.784407789,1747827007,884468793,mA1/imu,0.3975943206959499,0.9175610786814675,0.00041009659771225543,0.0005048366157936047,0.0,0.0,0.0,0.0,0.0,0.0,0.0,0.0,0.0,-0.0010137266465997561,-0.002489383624540902,0.0027416457623619436,0.0,0.0,0.0,0.0,0.0,0.0,0.0,0.0,0.0,0.008777100572076701,0.5436775644894837,9.80968719256557,0.0,0.0,0.0,0.0,0.0,0.0,0.0,0.0,0.0
2025/05/21 13:30:08.794759644,1747827007,935779175,mA1/imu,0.3976574406744114,0.9175337052514714,0.00037832127591336283,0.0005625627032426053,0.0,0.0,0.0,0.0,0.0,0.0,0.0,0.0,0.0,0.0003474216651870168,-0.0026792106429491167,0.002755748171634593,0.0,0.0,0.0,0.0,0.0,0.0,0.0,0.0,0.0,0.00849970252483342,0.02190005716861082,9.811462449994016,0.0,0.0,0.0,0.0,0.0,0.0,0.0,0.0,0.0
2025/05/21 13:30:08.807782594,1747827007,975533779,mA1/imu,0.39772176361676503,0.9175057953980811,0.0003531065867018653,0.0006240771131473025,0.0,0.0,0.0,0.0,0.0,0.0,0.0,0.0,0.0,0.000637043290657192,-0.002645285136169228,0.002834041446879454,0.0,0.0,0.0,0.0,0.0,0.0,0.0,0.0,0.0,0.008640293529635077,0.055839708940740924,9.81021339912246,0.0,0.0,0.0,0.0,0.0,0.0,0.0,0.0,0.0
2025/05/21 13:30:08.816491070,1747827008,26612406,mA1/imu,0.39778717569009536,0.91747739371066,0.0003436768163744447,0.0006904872465761653,0.0,0.0,0.0,0.0,0.0,0.0,0.0,0.0,0.0,-0.00086750729706589,-0.0025419373099408817,0.0028624915068713097,0.0,0.0,0.0,0.0,0.0,0.0,0.0,0.0,0.0,0.008766911888466884,-0.030756165647612528,9.809777579186873,0.0,0.0,0.0,0.0,0.0,0.0,0.0,0.0,0.0
2025/05/21 13:30:08.828157635,1747827008,76448267,mA1/imu,0.39785319159211846,0.9174487233503336,0.000334926175781883,0.0007521883174452917,0.0,0.0,0.0,0.0,0.0,0.0,0.0,0.0,0.0,-0.0018411136416906315,-0.0022938353631248532,0.002887753264301176,0.0,0.0,0.0,0.0,0.0,0.0,0.0,0.0,0.0,0.008424903938935841,-0.08179960113548941,9.809396896627899,0.0,0.0,0.0,0.0,0.0,0.0,0.0,0.0,0.0
2025/05/21 13:30:09.788421432,1747827008,829898286,mA1/imu,0.3989005326466789,0.9169938122646532,0.0006555411136005268,0.0005325301704083318,0.0,0.0,0.0,0.0,0.0,0.0,0.0,0.0,0.0,0.0005405054251684712,0.0009869526886255387,0.00315101744757898,0.0,0.0,0.0,0.0,0.0,0.0,0.0,0.0,0.0,0.012247741577830753,-0.001130359966050612,9.811124973972035,0.0,0.0,0.0,0.0,0.0,0.0,0.0,0.0,0.0
2025/05/21 13:30:09.797424359,1747827008,879563695,mA1/imu,0.3989721644886323,0.9169626671488345,0.0006461603851197359,0.0005113661196103901,0.0,0.0,0.0,0.0,0.0,0.0,0.0,0.0,0.0,0.0015574022228437756,0.00036704634018976654,0.003100996749258373,0.0,0.0,0.0,0.0,0.0,0.0,0.0,0.0,0.0,0.014887133915715056,-0.0748567376432831,9.809236986660634,0.0,0.0,0.0,0.0,0.0,0.0,0.0,0.0,0.0
2025/05/21 13:30:09.801884000,1747827008,930582572,mA1/imu,0.3990433228470024,0.9169317195280652,0.0006289813225531174,0.0005025903149465099,0.0,0.0,0.0,0.0,0.0,0.0,0.0,0.0,0.0,0.0012017723270993253,-0.00017703542692210566,0.003105038215307066,0.0,0.0,0.0,0.0,0.0,0.0,0.0,0.0,0.0,0.011766658342874391,0.022690844494363156,9.808464346649506,0.0,0.0,0.0,0.0,0.0,0.0,0.0,0.0,0.0
2025/05/21 13:30:09.815326307,1747827008,980603263,mA1/imu,0.399118352078343,0.9168990802982785,0.0006070508816298839,0.0004990708026392156,0.0,0.0,0.0,0.0,0.0,0.0,0.0,0.0,0.0,0.0010900178452737063,-0.00020143827793174892,0.003430283641273419,0.0,0.0,0.0,0.0,0.0,0.0,0.0,0.0,0.0,-0.005148669786303799,-0.4867448943270367,9.807439191190852,0.0,0.0,0.0,0.0,0.0,0.0,0.0,0.0,0.0
2025/05/21 13:30:09.825674824,1747827009,32327092,mA1/imu,0.39919724421827024,0.9168647525213467,0.0005785987419685381,0.0005010149741397487,0.0,0.0,0.0,0.0,0.0,0.0,0.0,0.0,0.0,-0.0003757127822674247,-0.0007371887014562047,0.0034478466073740457,0.0,0.0,0.0,0.0,0.0,0.0,0.0,0.0,0.0,0.01353790202402258,0.4575178962328845,9.809418860657045,0.0,0.0,0.0,0.0,0.0,0.0,0.0,0.0,0.0
2025/05/21 13:30:10.783050275,1747827009,830363678,mA1/imu,0.4003362418877422,0.9163679032504805,0.00045166869513971,0.000745197227060539,0.0,0.0,0.0,0.0,0.0,0.0,0.0,0.0,0.0,-0.0004181329995272803,0.0023854262161611835,0.0029952868349930016,0.0,0.0,0.0,0.0,0.0,0.0,0.0,0.0,0.0,0.00956534868553043,-0.5850536233023187,9.809058458246035,0.0,0.0,0.0,0.0,0.0,0.0,0.0,0.0,0.0
2025/05/21 13:30:10.784922088,1747827009,878500614,mA1/imu,0.4004041392174491,0.9163382465230983,0.0005015513629449633,0.0007012151864549867,0.0,0.0,0.0,0.0,0.0,0.0,0.0,0.0,0.0,-0.0005024043762483464,0.0023730792824736982,0.0029376515818476164,0.0,0.0,0.0,0.0,0.0,0.0,0.0,0.0,0.0,0.01365222673663519,-0.5937467638618015,9.809025776508081,0.0,0.0,0.0,0.0,0.0,0.0,0.0,0.0,0.0
2025/05/21 13:30:10.793918464,1747827009,930222983,mA1/imu,0.400471462441956,0.916308827934717,0.0005527025320968222,0.0006588918100489535,0.0,0.0,0.0,0.0,0.0,0.0,0.0,0.0,0.0,-0.0037719668641442404,0.002336377087076189,0.0029429740802490644,0.0,0.0,0.0,0.0,0.0,0.0,0.0,0.0,0.0,0.011828167778286262,0.4302717812866237,9.811362754890101,0.0,0.0,0.0,0.0,0.0,0.0,0.0,0.0,0.0
2025/05/21 13:30:10.804902256,1747827009,980984035,mA1/imu,0.4005381876777319,0.9162796811183886,0.0005774147505180303,0.0006105519041547797,0.0,0.0,0.0,0.0,0.0,0.0,0.0,0.0,0.0,-0.0007859544041528121,0.002059119063928905,0.0028800273271583584,0.0,0.0,0.0,0.0,0.0,0.0,0.0,0.0,0.0,0.013798795515361267,0.6314772254136897,9.810864324351602,0.0,0.0,0.0,0.0,0.0,0.0,0.0,0.0,0.0
2025/05/21 13:30:11.629060188,1747827010,681184525,mA1/imu,0.40145034723018547,0.9158804439019461,0.00039452416314192786,0.0006895922144856564,0.0,0.0,0.0,0.0,0.0,0.0,0.0,0.0,0.0,0.001447918049914266,-0.0007098042912607548,0.0031228576699181125,0.0,0.0,0.0,0.0,0.0,0.0,0.0,0.0,0.0,0.002580660142664006,-0.4610295467103327,9.807677936129332,0.0,0.0,0.0,0.0,0.0,0.0,0.0,0.0,0.0
2025/05/21 13:30:11.630855501,1747827010,732320714,mA1/imu,0.4015226907946075,0.9158487307631197,0.00038067133707236147,0.0006972990563135068,0.0,0.0,0.0,0.0,0.0,0.0,0.0,0.0,0.0,0.0006238497481900184,-0.0004017203250006558,0.003175653626513829,0.0,0.0,0.0,0.0,0.0,0.0,0.0,0.0,0.0,0.0061429851898005886,-0.6209177451956458,9.80937350314308,0.0,0.0,0.0,0.0,0.0,0.0,0.0,0.0,0.0
2025/05/21 13:30:12.38061730,1747827011,76903749,mA1/imu,0.4020096826846826,0.9156351038011026,0.00041913939999241773,0.0006293147609290418,0.0,0.0,0.0,0.0,0.0,0.0,0.0,0.0,0.0,-0.0007128906984095776,0.001341169002667606,0.0030723412381483037,0.0,0.0,0.0,0.0,0.0,0.0,0.0,0.0,0.0,0.004163372375847242,-0.011336245708899396,9.810909341329296,0.0,0.0,0.0,0.0,0.0,0.0,0.0,0.0,0.0
2025/05/21 13:30:12.52798676,1747827011,132586995,mA1/imu,0.4020797946549912,0.9156043231584396,0.000443904307141805,0.0006042290474473909,0.0,0.0,0.0,0.0,0.0,0.0,0.0,0.0,0.0,0.0008300583228804267,0.0012939471171836505,0.0030586822030065205,0.0,0.0,0.0,0.0,0.0,0.0,0.0,0.0,0.0,0.007404750505120723,0.10320760438823728,9.809897435428045,0.0,0.0,0.0,0.0,0.0,0.0,0.0,0.0,0.0
2025/05/21 13:30:12.64783476,1747827011,182808570,mA1/imu,0.4021496061056622,0.9155736611394197,0.000474228513907575,0.0005834759090330148,0.0,0.0,0.0,0.0,0.0,0.0,0.0,0.0,0.0,-2.557107269645889e-05,0.001184592667772736,0.003045823210143744,0.0,0.0,0.0,0.0,0.0,0.0,0.0,0.0,0.0,0.008901104420303112,0.044924561998357086,9.809640303460219,0.0,0.0,0.0,0.0,0.0,0.0,0.0,0.0,0.0
2025/05/21 13:30:12.65059609,1747827011,234051036,mA1/imu,0.40221911953643796,0.9155431191297371,0.0005051466443439928,0.0005672040130467715,0.0,0.0,0.0,0.0,0.0,0.0,0.0,0.0,0.0,-0.0017234688698181603,0.001013611690274922,0.0030330019285543866,0.0,0.0,0.0,0.0,0.0,0.0,0.0,0.0,0.0,0.009035973380122311,0.3545642449893324,9.810371092065857,0.0,0.0,0.0,0.0,0.0,0.0,0.0,0.0,0.0
2025/05/21 13:30:12.75209682,1747827011,283703700,mA1/imu,0.4022883642016152,0.915512691052415,0.0005278786837927883,0.0005530768926803556,0.0,0.0,0.0,0.0,0.0,0.0,0.0,0.0,0.0,-0.0008066622397234494,0.0007769867953992855,0.0030216830494215665,0.0,0.0,0.0,0.0,0.0,0.0,0.0,0.0,0.0,0.00947627074037178,0.30179091244434353,9.810740653097694,0.0,0.0,0.0,0.0,0.0,0.0,0.0,0.0,0.0
2025/05/21 13:30:13.37107956,1747827012,76213045,mA1/imu,0.40335003330264624,0.9150453849946846,0.0004034118731394522,0.000728898857375637,0.0,0.0,0.0,0.0,0.0,0.0,0.0,0.0,0.0,0.0003959758700348789,8.761076707999834e-06,0.0027827788330609853,0.0,0.0,0.0,0.0,0.0,0.0,0.0,0.0,0.0,0.009092472785433929,0.07281593523017481,9.811671479463902,0.0,0.0,0.0,0.0,0.0,0.0,0.0,0.0,0.0
2025/05/21 13:30:13.38994466,1747827012,126675839,mA1/imu,0.4034134836733192,0.9150174236075537,0.00039477266000594074,0.0007209990972821928,0.0,0.0,0.0,0.0,0.0,0.0,0.0,0.0,0.0,0.0009359442595212645,0.00023285561495230785,0.0027674623674585875,0.0,0.0,0.0,0.0,0.0,0.0,0.0,0.0,0.0,0.007393832713494449,-0.6042423511612176,9.809806357707945,0.0,0.0,0.0,0.0,0.0,0.0,0.0,0.0,0.0
2025/05/21 13:30:13.47056622,1747827012,176203923,mA1/imu,0.4034766041367972,0.9149896081174124,0.0003844703077607938,0.0007064941363354137,0.0,0.0,0.0,0.0,0.0,0.0,0.0,0.0,0.0,-0.00021825547954392108,0.00046229060421813475,0.002752968602317758,0.0,0.0,0.0,0.0,0.0,0.0,0.0,0.0,0.0,0.006684033088741484,-0.04535760968718777,9.810255230353045,0.0,0.0,0.0,0.0,0.0,0.0,0.0,0.0,0.0
2025/05/21 13:30:13.984714474,1747827013,35650219,mA1/imu,0.4043905351834436,0.9145859934594498,0.0005436915703523324,0.0006782487123486211,0.0,0.0,0.0,0.0,0.0,0.0,0.0,0.0,0.0,-0.0002123395004287861,-0.0006689357105086724,0.0018214310278696646,0.0,0.0,0.0,0.0,0.0,0.0,0.0,0.0,0.0,0.006676720051577545,-0.03649841889003996,9.809748018591872,0.0,0.0,0.0,0.0,0.0,0.0,0.0,0.0,0.0
2025/05/21 13:30:13.987611357,1747827013,84877824,mA1/imu,0.40443127259002476,0.9145679712609421,0.0005386365041723186,0.0006939492590799534,0.0,0.0,0.0,0.0,0.0,0.0,0.0,0.0,0.0,-6.065190256465796e-05,-0.0006383415315336427,0.001754801088012162,0.0,0.0,0.0,0.0,0.0,0.0,0.0,0.0,0.0,0.006922824740670687,-0.10041442425426526,9.809229485936,0.0,0.0,0.0,0.0,0.0,0.0,0.0,0.0,0.0
2025/05/21 13:30:13.999008725,1747827013,135853675,mA1/imu,0.40447091426524273,0.9145504395585524,0.0005262927351365413,0.0007042958569762276,0.0,0.0,0.0,0.0,0.0,0.0,0.0,0.0,0.0,0.0007777145263705196,-0.0005296500337274669,0.0017191296048678871,0.0,0.0,0.0,0.0,0.0,0.0,0.0,0.0,0.0,0.006043096145689682,0.039615255424923244,9.80985724174107,0.0,0.0,0.0,0.0,0.0,0.0,0.0,0.0,0.0
2025/05/21 13:30:14.7460489,1747827013,176586739,mA1/imu,0.40450933256609484,0.9145334424794012,0.0005205787639652697,0.0007151583451521181,0.0,0.0,0.0,0.0,0.0,0.0,0.0,0.0,0.0,0.0005767699146951466,-0.0004800710181314031,0.001654351956415961,0.0,0.0,0.0,0.0,0.0,0.0,0.0,0.0,0.0,0.008065086593091674,0.011601935641760376,9.8111309236765,0.0,0.0,0.0,0.0,0.0,0.0,0.0,0.0,0.0
2025/05/21 13:30:14.17471535,1747827013,227704587,mA1/imu,0.4045467123409435,0.9145169109901106,0.0005083625060260769,0.0007201491529703697,0.0,0.0,0.0,0.0,0.0,0.0,0.0,0.0,0.0,-6.055916726841979e-06,-0.00031780511462340555,0.001621322515044077,0.0,0.0,0.0,0.0,0.0,0.0,0.0,0.0,0.0,0.00661191384659369,-0.03638674166179443,9.812257562280534,0.0,0.0,0.0,0.0,0.0,0.0,0.0,0.0,0.0
2025/05/21 13:30:14.28307476,1747827013,277549735,mA1/imu,0.40458267947240845,0.9145010072958961,0.0004935557264886046,0.0007207832285721957,0.0,0.0,0.0,0.0,0.0,0.0,0.0,0.0,0.0,-0.0013181881792322114,-0.00021932731426410683,0.0015288989640063523,0.0,0.0,0.0,0.0,0.0,0.0,0.0,0.0,0.0,0.009323848407817654,0.49830856267605345,9.811393405158732,0.0,0.0,0.0,0.0,0.0,0.0,0.0,0.0,0.0
2025/05/21 13:30:14.983561929,1747827014,34149858,mA1/imu,0.4050684756619111,0.9142860984810088,0.000531254062405345,0.0004218037835629129,0.0,0.0,0.0,0.0,0.0,0.0,0.0,0.0,0.0,0.0005172363501233845,-0.0004656591008542644,0.0011833677694144161,0.0,0.0,0.0,0.0,0.0,0.0,0.0,0.0,0.0,0.005479371948673941,-0.3382908768019925,9.808578028214203,0.0,0.0,0.0,0.0,0.0,0.0,0.0,0.0,0.0
2025/05/21 13:30:14.987698861,1747827014,84007925,mA1/imu,0.4050930079740367,0.9142752129414071,0.0005406994993329826,0.0004444497084626567,0.0,0.0,0.0,0.0,0.0,0.0,0.0,0.0,0.0,-0.0016965551219922,-0.0007660216313279483,0.0009720846400187859,0.0,0.0,0.0,0.0,0.0,0.0,0.0,0.0,0.0,0.0015004532796950064,0.5437999860785507,9.807867231938985,0.0,0.0,0.0,0.0,0.0,0.0,0.0,0.0,0.0
2025/05/21 13:30:15.579396618,1747827014,629524277,mA1/imu,0.4052356109761436,0.9142117911467029,0.00042358709203518563,0.000849175543957154,0.0,0.0,0.0,0.0,0.0,0.0,0.0,0.0,0.0,0.0009897890862633418,-0.0012875956838555708,0.0002556153237152153,0.0,0.0,0.0,0.0,0.0,0.0,0.0,0.0,0.0,0.007889488454527083,0.04870294175931407,9.811360760267124,0.0,0.0,0.0,0.0,0.0,0.0,0.0,0.0,0.0
2025/05/21 13:30:15.581808719,1747827014,679214935,mA1/imu,0.4052408633709796,0.9142094460411831,0.00041475510126125984,0.0008714365279476896,0.0,0.0,0.0,0.0,0.0,0.0,0.0,0.0,0.0,0.0011876877613955824,-0.0007122097305140098,0.00020864599617192236,0.0,0.0,0.0,0.0,0.0,0.0,0.0,0.0,0.0,0.0025478449014710407,0.056052900693754945,9.810856884063604,0.0,0.0,0.0,0.0,0.0,0.0,0.0,0.0,0.0
2025/05/21 13:30:16.428803000,1747827015,477518789,mA1/imu,0.40519059281630565,0.9142319326840217,0.0004770578840841134,0.0005737331995802157,0.0,0.0,0.0,0.0,0.0,0.0,0.0,0.0,0.0,-0.0011976272469912523,-0.0009916561570745932,-0.000680134294493463,0.0,0.0,0.0,0.0,0.0,0.0,0.0,0.0,0.0,0.013355522039680587,-0.07217127877162344,9.811520066084396,0.0,0.0,0.0,0.0,0.0,0.0,0.0,0.0,0.0
2025/05/21 13:30:16.432952647,1747827015,529167257,mA1/imu,0.40517469280090845,0.914238971946195,0.0004617941808432377,0.0005976910479239409,0.0,0.0,0.0,0.0,0.0,0.0,0.0,0.0,0.0,-0.0007515349577030239,-0.00118090726331597,-0.000707482379583783,0.0,0.0,0.0,0.0,0.0,0.0,0.0,0.0,0.0,0.009662991965409038,0.5918984220421402,9.811007241301946,0.0,0.0,0.0,0.0,0.0,0.0,0.0,0.0,0.0
2025/05/21 13:30:16.440654937,1747827015,578350807,mA1/imu,0.405154277456265,0.9142479955362526,0.0004588818058642512,0.0006352513867578808,0.0,0.0,0.0,0.0,0.0,0.0,0.0,0.0,0.0,0.000832575365656667,-0.001580375016045262,-0.0010584906906699065,0.0,0.0,0.0,0.0,0.0,0.0,0.0,0.0,0.0,0.016249593446922322,0.07859278041760329,9.809800042198104,0.0,0.0,0.0,0.0,0.0,0.0,0.0,0.0,0.0
2025/05/21 13:30:16.450228487,1747827015,629748671,mA1/imu,0.40512943373170085,0.9142589694440529,0.0004643432322007924,0.0006805150198369316,0.0,0.0,0.0,0.0,0.0,0.0,0.0,0.0,0.0,0.0010347583642199719,-0.0015635073288055288,-0.001105922567852717,0.0,0.0,0.0,0.0,0.0,0.0,0.0,0.0,0.0,0.006907511949316726,-0.5236123851099828,9.808684655952062,0.0,0.0,0.0,0.0,0.0,0.0,0.0,0.0,0.0
2025/05/21 13:30:16.461839409,1747827015,679375140,mA1/imu,0.4051028229352697,0.9142707220247581,0.00047233928707947565,0.0007256678307268221,0.0,0.0,0.0,0.0,0.0,0.0,0.0,0.0,0.0,-0.0004356402442667711,-0.0015186371345464105,-0.0012081029011329562,0.0,0.0,0.0,0.0,0.0,0.0,0.0,0.0,0.0,0.010521747041518556,-0.6250482835167515,9.810902252675039,0.0,0.0,0.0,0.0,0.0,0.0,0.0,0.0,0.0
2025/05/21 13:30:16.782237540,1747827015,831598929,mA1/imu,0.40501272240575065,0.9143105608345545,0.0004701416582807309,0.0008197577116398044,0.0,0.0,0.0,0.0,0.0,0.0,0.0,0.0,0.0,-0.0008793693203452358,-0.0007895803665876497,-0.001433679074137412,0.0,0.0,0.0,0.0,0.0,0.0,0.0,0.0,0.0,0.005903881830872088,0.5989451960392894,9.811714205885687,0.0,0.0,0.0,0.0,0.0,0.0,0.0,0.0,0.0
2025/05/21 13:30:16.784435661,1747827015,881328345,mA1/imu,0.40497944457699675,0.9143252817397941,0.0004761185408225327,0.0008378261684926613,0.0,0.0,0.0,0.0,0.0,0.0,0.0,0.0,0.0,0.0009078707531317659,-0.0004077164559622244,-0.001469998134310848,0.0,0.0,0.0,0.0,0.0,0.0,0.0,0.0,0.0,0.005928793550706909,0.08646267549409657,9.81055659602055,0.0,0.0,0.0,0.0,0.0,0.0,0.0,0.0,0.0
2025/05/21 13:30:16.797110143,1747827015,932534690,mA1/imu,0.4049453284837371,0.9143403732820492,0.0004919497723101888,0.0008489470317399237,0.0,0.0,0.0,0.0,0.0,0.0,0.0,0.0,0.0,0.0012735084903228405,4.308409541338976e-06,-0.0015061206963620241,0.0,0.0,0.0,0.0,0.0,0.0,0.0,0.0,0.0,0.0055143195226308225,-0.5216728749856134,9.808214146182783,0.0,0.0,0.0,0.0,0.0,0.0,0.0,0.0,0.0
2025/05/21 13:30:16.804480545,1747827015,982322807,mA1/imu,0.40490641153438844,0.9143575951041593,0.000509629014094435,0.0008523215066634468,0.0,0.0,0.0,0.0,0.0,0.0,0.0,0.0,0.0,-9.00453569643778e-05,0.00017293693539430842,-0.0018979581466879044,0.0,0.0,0.0,0.0,0.0,0.0,0.0,0.0,0.0,0.016570840116764907,-0.6339208105348022,9.811327998986146,0.0,0.0,0.0,0.0,0.0,0.0,0.0,0.0,0.0
2025/05/21 13:30:16.816044530,1747827016,33582603,mA1/imu,0.40486231419301044,0.9143771215125728,0.0005216733334058807,0.0008450192867410292,0.0,0.0,0.0,0.0,0.0,0.0,0.0,0.0,0.0,-0.001654917020860776,0.0006426603152743156,-0.0019492236622124046,0.0,0.0,0.0,0.0,0.0,0.0,0.0,0.0,0.0,0.005873582973797725,-0.11239516178016692,9.811285794144858,0.0,0.0,0.0,0.0,0.0,0.0,0.0,0.0,0.0
2025/05/21 13:30:16.827161445,1747827016,83232719,mA1/imu,0.40481647844885627,0.9143974315596929,0.0005265042576147219,0.0008238486328680697,0.0,0.0,0.0,0.0,0.0,0.0,0.0,0.0,0.0,-0.001715473356935429,0.0010035355065629266,-0.002055853360211454,0.0,0.0,0.0,0.0,0.0,0.0,0.0,0.0,0.0,0.007949878620414505,0.4888036002162368,9.810627916298582,0.0,0.0,0.0,0.0,0.0,0.0,0.0,0.0,0.0
2025/05/21 13:30:17.782716053,1747827016,832792342,mA1/imu,0.4039248333662757,0.9147918650311823,0.0005060848610955786,0.0005626196858008712,0.0,0.0,0.0,0.0,0.0,0.0,0.0,0.0,0.0,0.0015313698276827712,-0.0014790466416115433,-0.003064198792713953,0.0,0.0,0.0,0.0,0.0,0.0,0.0,0.0,0.0,0.006327287590852599,-0.5212179843525041,9.808474813720453,0.0,0.0,0.0,0.0,0.0,0.0,0.0,0.0,0.0
2025/05/21 13:30:17.784801549,1747827016,882642899,mA1/imu,0.40385545206400586,0.9148224726944431,0.0005046747697894714,0.0006021584339049834,0.0,0.0,0.0,0.0,0.0,0.0,0.0,0.0,0.0,-3.745496917672101e-05,-0.0014640080344187323,-0.002993968346477229,0.0,0.0,0.0,0.0,0.0,0.0,0.0,0.0,0.0,0.002934396767383522,-0.6237856978680858,9.810874585120665,0.0,0.0,0.0,0.0,0.0,0.0,0.0,0.0,0.0
2025/05/21 13:30:17.794965160,1747827016,934336647,mA1/imu,0.40378684178465757,0.9148527358733772,0.000498039500055727,0.0006403305588994509,0.0,0.0,0.0,0.0,0.0,0.0,0.0,0.0,0.0,-0.0016383764669438254,-0.0015255663442818232,-0.003005096953044628,0.0,0.0,0.0,0.0,0.0,0.0,0.0,0.0,0.0,0.008659113888115053,-0.18731827215642272,9.812347862609572,0.0,0.0,0.0,0.0,0.0,0.0,0.0,0.0,0.0
2025/05/21 13:30:17.804052446,1747827016,983556549,mA1/imu,0.4037174344439219,0.9148833483102385,0.0004838605339137233,0.0006767493243816678,0.0,0.0,0.0,0.0,0.0,0.0,0.0,0.0,0.0,-0.0021276434117279415,-0.0015544937629092318,-0.0030705560082565147,0.0,0.0,0.0,0.0,0.0,0.0,0.0,0.0,0.0,0.010456109533688277,0.5067687103631564,9.811854946594197,0.0,0.0,0.0,0.0,0.0,0.0,0.0,0.0,0.0
2025/05/21 13:30:18.35947197,1747827017,84755978,mA1/imu,0.40357763890115445,0.9149449676415959,0.00047879033510383096,0.0007525464126926091,0.0,0.0,0.0,0.0,0.0,0.0,0.0,0.0,0.0,-0.00022397242961461335,-0.0012023760815736073,-0.0030056709493196773,0.0,0.0,0.0,0.0,0.0,0.0,0.0,0.0,0.0,0.0032280217970744127,0.01531156796688482,9.81047541671802,0.0,0.0,0.0,0.0,0.0,0.0,0.0,0.0,0.0
2025/05/21 13:30:18.43967573,1747827017,135894635,mA1/imu,0.40350994461241224,0.9149748006590023,0.0004799350361758554,0.0007800129921901231,0.0,0.0,0.0,0.0,0.0,0.0,0.0,0.0,0.0,0.0013622442697436925,-0.000837334487538844,-0.0029277924916705717,0.0,0.0,0.0,0.0,0.0,0.0,0.0,0.0,0.0,0.0025835959946157745,-0.5016009672428495,9.808917617593826,0.0,0.0,0.0,0.0,0.0,0.0,0.0,0.0,0.0
2025/05/21 13:30:18.54619746,1747827017,175539752,mA1/imu,0.40344390498185545,0.9150038949910155,0.0004938615995200133,0.0008023621270607112,0.0,0.0,0.0,0.0,0.0,0.0,0.0,0.0,0.0,-0.00017406797308512105,-0.00043736617739078133,-0.0028551628205388735,0.0,0.0,0.0,0.0,0.0,0.0,0.0,0.0,0.0,0.00354861776292705,0.015209093472558154,9.811554143990564,0.0,0.0,0.0,0.0,0.0,0.0,0.0,0.0,0.0
2025/05/21 13:30:18.64975126,1747827017,226947196,mA1/imu,0.40337949701298714,0.9150322699487278,0.00051174827333697,0.0008151415415454272,0.0,0.0,0.0,0.0,0.0,0.0,0.0,0.0,0.0,-0.001141947941794708,-1.1180343707937963e-05,-0.0027845970508564946,0.0,0.0,0.0,0.0,0.0,0.0,0.0,0.0,0.0,0.0035492194048432277,-0.17980333388872755,9.811333895630712,0.0,0.0,0.0,0.0,0.0,0.0,0.0,0.0,0.0
2025/05/21 13:30:18.76106669,1747827017,276464021,mA1/imu,0.4033168070831122,0.9150599007697928,0.0005208674306488436,0.0008122958698208143,0.0,0.0,0.0,0.0,0.0,0.0,0.0,0.0,0.0,-0.0007666216562369653,0.0004282540271357064,-0.0027097797390996004,0.0,0.0,0.0,0.0,0.0,0.0,0.0,0.0,0.0,0.0033296463824639307,0.023345645125444337,9.809109807474305,0.0,0.0,0.0,0.0,0.0,0.0,0.0,0.0,0.0
2025/05/21 13:30:19.35206777,1747827018,84120923,mA1/imu,0.40232165439995105,0.9154980163409161,0.0004954304900598467,0.0006504040002968007,0.0,0.0,0.0,0.0,0.0,0.0,0.0,0.0,0.0,0.001200557522257773,-0.0011729766507397757,-0.002599365964315975,0.0,0.0,0.0,0.0,0.0,0.0,0.0,0.0,0.0,0.012606361278372639,-0.5878595822004602,9.81088475890046,0.0,0.0,0.0,0.0,0.0,0.0,0.0,0.0,0.0
2025/05/21 13:30:19.36343534,1747827018,135172160,mA1/imu,0.4022626886541049,0.9155239191941521,0.0004767630866048809,0.0006748311710625994,0.0,0.0,0.0,0.0,0.0,0.0,0.0,0.0,0.0,0.0007693334894239484,-0.0012130150018798897,-0.0025626549927497723,0.0,0.0,0.0,0.0,0.0,0.0,0.0,0.0,0.0,0.009757049027562845,-0.6107854703395516,9.811351654253805,0.0,0.0,0.0,0.0,0.0,0.0,0.0,0.0,0.0
2025/05/21 13:30:19.45542004,1747827018,185073233,mA1/imu,0.40220456034263075,0.9155494498292724,0.000456284112762264,0.000698828817465349,0.0,0.0,0.0,0.0,0.0,0.0,0.0,0.0,0.0,-0.000967270868925233,-0.0011801402219192812,-0.002525435521808644,0.0,0.0,0.0,0.0,0.0,0.0,0.0,0.0,0.0,0.00945694182760041,0.5358080711016111,9.811398997407483,0.0,0.0,0.0,0.0,0.0,0.0,0.0,0.0,0.0
2025/05/21 13:30:19.46403666,1747827018,226503730,mA1/imu,0.4021472680295042,0.9155746047948844,0.0004410808527674321,0.0007234077541156427,0.0,0.0,0.0,0.0,0.0,0.0,0.0,0.0,0.0,-0.00022998600697289454,-0.0010954776620135703,-0.002488201427293806,0.0,0.0,0.0,0.0,0.0,0.0,0.0,0.0,0.0,0.009026882171072309,-0.03458626566171194,9.809936407104244,0.0,0.0,0.0,0.0,0.0,0.0,0.0,0.0,0.0
2025/05/21 13:30:19.56241246,1747827018,275929115,mA1/imu,0.40209023276497696,0.9155996431560304,0.0004266947272897393,0.0007457205685513074,0.0,0.0,0.0,0.0,0.0,0.0,0.0,0.0,0.0,0.00021667492760999888,-0.0010209409708905974,-0.0025040530046448054,0.0,0.0,0.0,0.0,0.0,0.0,0.0,0.0,0.0,0.01233474007412045,0.32512144700994455,9.810481758606395,0.0,0.0,0.0,0.0,0.0,0.0,0.0,0.0,0.0
2025/05/21 13:30:19.66633769,1747827018,327782734,mA1/imu,0.40203342100534945,0.9156245742730013,0.0004216063000672069,0.000767873849236467,0.0,0.0,0.0,0.0,0.0,0.0,0.0,0.0,0.0,0.001290818371917789,-0.0008043599668632631,-0.002467397405458668,0.0,0.0,0.0,0.0,0.0,0.0,0.0,0.0,0.0,0.007978002451453178,-0.5419405352950529,9.808518042574532,0.0,0.0,0.0,0.0,0.0,0.0,0.0,0.0,0.0
2025/05/21 13:30:19.76594483,1747827018,376774689,mA1/imu,0.40197842664903505,0.9156487014351977,0.0004265076201169537,0.000786231551510386,0.0,0.0,0.0,0.0,0.0,0.0,0.0,0.0,0.0,0.0009095465783261693,-0.00045654329525357973,-0.002335586738824497,0.0,0.0,0.0,0.0,0.0,0.0,0.0,0.0,0.0,0.004194031931135916,-0.5681937025086414,9.809022105394165,0.0,0.0,0.0,0.0,0.0,0.0,0.0,0.0,0.0
2025/05/21 13:30:20.30083398,1747827019,83671967,mA1/imu,0.4012720517532461,0.9159584643073214,0.0006630839196838022,0.0006264704533172965,0.0,0.0,0.0,0.0,0.0,0.0,0.0,0.0,0.0,-0.001007381930934859,0.00044928948256721976,-0.002109480565081776,0.0,0.0,0.0,0.0,0.0,0.0,0.0,0.0,0.0,0.008428942622617645,0.43955493638836923,9.809923571276084,0.0,0.0,0.0,0.0,0.0,0.0,0.0,0.0,0.0
2025/05/21 13:30:20.31511076,1747827019,134650942,mA1/imu,0.40122421948943643,0.9159794279960556,0.0006582821035609116,0.000616317924151092,0.0,0.0,0.0,0.0,0.0,0.0,0.0,0.0,0.0,0.00023877395864816298,0.00020535313641693536,-0.002075224860983353,0.0,0.0,0.0,0.0,0.0,0.0,0.0,0.0,0.0,0.008739436316806445,-0.1059388886307816,9.811745505286225,0.0,0.0,0.0,0.0,0.0,0.0,0.0,0.0,0.0
2025/05/21 13:30:20.40470046,1747827019,184499853,mA1/imu,0.40117673157811967,0.9160002411100823,0.0006454883623257573,0.0006096485402324665,0.0,0.0,0.0,0.0,0.0,0.0,0.0,0.0,0.0,0.0008419933173098376,-7.23720686735629e-05,-0.0020723066151664056,0.0,0.0,0.0,0.0,0.0,0.0,0.0,0.0,0.0,0.009490580834403049,0.007302893892591637,9.811805926381933,0.0,0.0,0.0,0.0,0.0,0.0,0.0,0.0,0.0
2025/05/21 13:30:20.50800237,1747827019,235599148,mA1/imu,0.4011297609265364,0.9160208218641885,0.0006308786663384355,0.0006089354519565416,0.0,0.0,0.0,0.0,0.0,0.0,0.0,0.0,0.0,0.0005800108052270318,-0.00029442448724491927,-0.002038096263247104,0.0,0.0,0.0,0.0,0.0,0.0,0.0,0.0,0.0,0.008145990914197368,0.24959819741794453,9.810499470424892,0.0,0.0,0.0,0.0,0.0,0.0,0.0,0.0,0.0
2025/05/21 13:30:20.60949209,1747827019,276764687,mA1/imu,0.40108354556074965,0.9160410645581165,0.0006165756184959429,0.0006142948455636638,0.0,0.0,0.0,0.0,0.0,0.0,0.0,0.0,0.0,-0.0005627247769882445,-0.0005053188928313333,-0.0020054506866069507,0.0,0.0,0.0,0.0,0.0,0.0,0.0,0.0,0.0,0.008521458886894498,0.5265744742421503,9.810622868700376,0.0,0.0,0.0,0.0,0.0,0.0,0.0,0.0,0.0
2025/05/21 13:30:20.71155008,1747827019,330221677,mA1/imu,0.40103809737630597,0.9160609779043555,0.0005881809095103071,0.0006190774799333556,0.0,0.0,0.0,0.0,0.0,0.0,0.0,0.0,0.0,0.001762387374646004,-0.0006944640850803038,-0.0019725947346414976,0.0,0.0,0.0,0.0,0.0,0.0,0.0,0.0,0.0,0.007966118599570308,-0.5756048838866606,9.811286074680025,0.0,0.0,0.0,0.0,0.0,0.0,0.0,0.0,0.0
2025/05/21 13:30:21.31959960,1747827020,79482000,mA1/imu,0.40114591471356686,0.9160137029399319,0.0005537054517076959,0.0007379330339953971,0.0,0.0,0.0,0.0,0.0,0.0,0.0,0.0,0.0,-0.0015410155768780095,-0.0008277019951876697,0.0009415099330278182,0.0,0.0,0.0,0.0,0.0,0.0,0.0,0.0,0.0,0.004333823512288348,0.5452277793606497,9.809245691947346,0.0,0.0,0.0,0.0,0.0,0.0,0.0,0.0,0.0
2025/05/21 13:30:21.34999216,1747827020,130466979,mA1/imu,0.401168747726688,0.9160036761985024,0.0005661075043691863,0.0007619452235366756,0.0,0.0,0.0,0.0,0.0,0.0,0.0,0.0,0.0,-0.0018656165849033914,-0.0005712218309190993,0.0010320985605836266,0.0,0.0,0.0,0.0,0.0,0.0,0.0,0.0,0.0,0.004042486077410005,0.22326095494053638,9.810591582085173,0.0,0.0,0.0,0.0,0.0,0.0,0.0,0.0,0.0
2025/05/21 13:30:21.42514261,1747827020,180438709,mA1/imu,0.40119365960035225,0.9159927459906996,0.0005766602081951816,0.000777336412845846,0.0,0.0,0.0,0.0,0.0,0.0,0.0,0.0,0.0,-0.0005604629524597255,-0.00027669957288651377,0.0011259848744133586,0.0,0.0,0.0,0.0,0.0,0.0,0.0,0.0,0.0,0.0032307618891761827,-0.6475804420018616,9.808329116254955,0.0,0.0,0.0,0.0,0.0,0.0,0.0,0.0,0.0
2025/05/21 13:30:21.52724706,1747827020,231646527,mA1/imu,0.40122075123291817,0.9159808674740835,0.0005870404928022773,0.0007839547040645761,0.0,0.0,0.0,0.0,0.0,0.0,0.0,0.0,0.0,-0.0010392497620478887,6.16375209498851e-05,0.0012263389436148082,0.0,0.0,0.0,0.0,0.0,0.0,0.0,0.0,0.0,0.003683221276371945,-0.060706654775885015,9.80897463601447,0.0,0.0,0.0,0.0,0.0,0.0,0.0,0.0,0.0
2025/05/21 13:30:21.476869885,1747827020,535913403,mA1/imu,0.4014161294605937,0.9158952925758779,0.0006597867361110584,0.0006846369007463336,0.0,0.0,0.0,0.0,0.0,0.0,0.0,0.0,0.0,-0.001739683806116268,0.001466892842638319,0.0015419954560257213,0.0,0.0,0.0,0.0,0.0,0.0,0.0,0.0,0.0,-0.0022574716967260827,0.46501323968398334,9.810972831792839,0.0,0.0,0.0,0.0,0.0,0.0,0.0,0.0,0.0
2025/05/21 13:30:21.478148224,1747827020,585141225,mA1/imu,0.4014531311264139,0.9158791026218075,0.000663749395748089,0.0006421263198460868,0.0,0.0,0.0,0.0,0.0,0.0,0.0,0.0,0.0,-0.00016581728254802546,0.0017387216464133984,0.0016690625138188267,0.0,0.0,0.0,0.0,0.0,0.0,0.0,0.0,0.0,-0.004501126344973819,-0.03424769006479948,9.81171934847601,0.0,0.0,0.0,0.0,0.0,0.0,0.0,0.0,0.0
2025/05/21 13:30:21.490458444,1747827020,626500694,mA1/imu,0.4014930396463619,0.9158616377924299,0.0006679405484519832,0.0005944670862223254,0.0,0.0,0.0,0.0,0.0,0.0,0.0,0.0,0.0,0.001442779001042877,0.0018658865875760178,0.001794546645493577,0.0,0.0,0.0,0.0,0.0,0.0,0.0,0.0,0.0,-0.0035887627872743903,0.04628035998779079,9.81207728290419,0.0,0.0,0.0,0.0,0.0,0.0,0.0,0.0,0.0
2025/05/21 13:30:21.501942892,1747827020,676009804,mA1/imu,0.4015351489573284,0.9158431982819069,0.0006781154684814109,0.0005481532588525638,0.0,0.0,0.0,0.0,0.0,0.0,0.0,0.0,0.0,0.001573539964712716,0.001805147897018159,0.001857395445188206,0.0,0.0,0.0,0.0,0.0,0.0,0.0,0.0,0.0,0.0021329482542187233,0.049520501756051494,9.810867410336552,0.0,0.0,0.0,0.0,0.0,0.0,0.0,0.0,0.0
2025/05/21 13:30:21.511711008,1747827020,727176592,mA1/imu,0.40157821320300724,0.9158243280864695,0.0006931558159411512,0.0005082328809015726,0.0,0.0,0.0,0.0,0.0,0.0,0.0,0.0,0.0,0.00022439197528194304,0.0016059953922696079,0.0018984383117582363,0.0,0.0,0.0,0.0,0.0,0.0,0.0,0.0,0.0,0.0028478243075456522,-0.04390480813145871,9.81015755056456,0.0,0.0,0.0,0.0,0.0,0.0,0.0,0.0,0.0
2025/05/21 13:30:21.932847769,1747827020,978623104,mA1/imu,0.40171219544653475,0.9157656120081047,0.0006470151667065797,0.0004870978550861023,0.0,0.0,0.0,0.0,0.0,0.0,0.0,0.0,0.0,0.0005596963633133548,-0.0005318922189083993,0.0011663503654127853,0.0,0.0,0.0,0.0,0.0,0.0,0.0,0.0,0.0,0.0005848496167493934,-0.6430524093416304,9.808671139141754,0.0,0.0,0.0,0.0,0.0,0.0,0.0,0.0,0.0
2025/05/21 13:30:21.933710508,1747827021,30474115,mA1/imu,0.4017391844041267,0.9157537736341997,0.0006361828921421903,0.0004990594729844453,0.0,0.0,0.0,0.0,0.0,0.0,0.0,0.0,0.0,-0.0011734302884150044,-0.0006736813092708811,0.0011864632181089632,0.0,0.0,0.0,0.0,0.0,0.0,0.0,0.0,0.0,0.0009879323688659182,-0.13039535865530688,9.809530410240654,0.0,0.0,0.0,0.0,0.0,0.0,0.0,0.0,0.0
2025/05/21 13:30:21.942803387,1747827021,79376807,mA1/imu,0.401766658540853,0.915741727499346,0.0006161032368965437,0.000510899434908759,0.0,0.0,0.0,0.0,0.0,0.0,0.0,0.0,0.0,-0.0014541968496445282,-0.0007801333970509365,0.0012070636039826486,0.0,0.0,0.0,0.0,0.0,0.0,0.0,0.0,0.0,-0.0003861195969999407,0.48804625975673566,9.808321477563512,0.0,0.0,0.0,0.0,0.0,0.0,0.0,0.0,0.0
2025/05/21 13:30:22.476679684,1747827021,526983356,mA1/imu,0.40199734818102173,0.9156404126248986,0.0005914084610651623,0.0006458014896747572,0.0,0.0,0.0,0.0,0.0,0.0,0.0,0.0,0.0,-0.00027439765476281716,6.011255350307591e-05,0.0011014688213618054,0.0,0.0,0.0,0.0,0.0,0.0,0.0,0.0,0.0,-0.0005161762368818407,-0.014618637869745571,9.811125699457072,0.0,0.0,0.0,0.0,0.0,0.0,0.0,0.0,0.0
2025/05/21 13:30:22.478221654,1747827021,576808425,mA1/imu,0.40202263004746697,0.9156293067259719,0.0006011061248489142,0.000645186531239949,0.0,0.0,0.0,0.0,0.0,0.0,0.0,0.0,0.0,-0.0003804063138270844,0.0002526491594185307,0.0011066456946995202,0.0,0.0,0.0,0.0,0.0,0.0,0.0,0.0,0.0,-0.00020872677357203044,-0.02121431049625809,9.808434470727734,0.0,0.0,0.0,0.0,0.0,0.0,0.0,0.0,0.0
2025/05/21 13:30:23.236187028,1747827022,284036935,mA1/imu,0.40249819639291873,0.9154203480959069,0.0006559153829638806,0.0005983037909505769,0.0,0.0,0.0,0.0,0.0,0.0,0.0,0.0,0.0,-0.0004367928920158739,-0.0010120614145404212,0.0016302005251267522,0.0,0.0,0.0,0.0,0.0,0.0,0.0,0.0,0.0,0.0035056010440051655,0.5394559339460638,9.809007831487586,0.0,0.0,0.0,0.0,0.0,0.0,0.0,0.0,0.0
2025/05/21 13:30:23.237844613,1747827022,335772760,mA1/imu,0.40253573642493656,0.9154038405219868,0.000637494631656991,0.000619079175611559,0.0,0.0,0.0,0.0,0.0,0.0,0.0,0.0,0.0,-0.00021335952168685841,-0.0010766034255425795,0.0016451116905214559,0.0,0.0,0.0,0.0,0.0,0.0,0.0,0.0,0.0,0.004045082425228839,-0.07945412777193464,9.809849159068916,0.0,0.0,0.0,0.0,0.0,0.0,0.0,0.0,0.0
2025/05/21 13:30:23.246330609,1747827022,384981303,mA1/imu,0.40257466504617206,0.9153867257883325,0.0006118641561614884,0.0006379151456331149,0.0,0.0,0.0,0.0,0.0,0.0,0.0,0.0,0.0,0.0013436903182424279,-0.0011279620213558602,0.0017381183967520998,0.0,0.0,0.0,0.0,0.0,0.0,0.0,0.0,0.0,0.005068224620838695,-0.6006222093551542,9.808906055694177,0.0,0.0,0.0,0.0,0.0,0.0,0.0,0.0,0.0
2025/05/21 13:30:23.256672953,1747827022,435866050,mA1/imu,0.40261488647190374,0.9153690367224873,0.0005889002455256754,0.0006580254270269699,0.0,0.0,0.0,0.0,0.0,0.0,0.0,0.0,0.0,0.00039730761233678524,-0.0010960895914396394,0.0017683494496056084,0.0,0.0,0.0,0.0,0.0,0.0,0.0,0.0,0.0,0.00458878206368669,-0.035642199539827835,9.80807317673409,0.0,0.0,0.0,0.0,0.0,0.0,0.0,0.0,0.0
2025/05/21 13:30:23.267847237,1747827022,475715459,mA1/imu,0.4026586682154486,0.9153497782131814,0.0005712303857862827,0.0006738930829450508,0.0,0.0,0.0,0.0,0.0,0.0,0.0,0.0,0.0,-0.0015677552333021756,-0.000723163575013118,0.001997475006330442,0.0,0.0,0.0,0.0,0.0,0.0,0.0,0.0,0.0,0.002042081120737264,0.45562295067206965,9.809563900341399,0.0,0.0,0.0,0.0,0.0,0.0,0.0,0.0,0.0
2025/05/21 13:30:23.278948407,1747827022,526795709,mA1/imu,0.4027050360461385,0.9153293854783868,0.0005497358421375395,0.0006839688158394685,0.0,0.0,0.0,0.0,0.0,0.0,0.0,0.0,0.0,-0.00010043980728723124,-0.0006817036585058399,0.0020432620395970684,0.0,0.0,0.0,0.0,0.0,0.0,0.0,0.0,0.0,0.0059056105750154315,-0.06039105841811898,9.808491481464571,0.0,0.0,0.0,0.0,0.0,0.0,0.0,0.0,0.0
2025/05/21 13:30:24.236540613,1747827023,284010821,mA1/imu,0.40364944687746357,0.9149131956588863,0.0006743815046669252,0.0007166968315048558,0.0,0.0,0.0,0.0,0.0,0.0,0.0,0.0,0.0,-0.0012893059026939894,-0.0005482338535578959,0.0026553392874999193,0.0,0.0,0.0,0.0,0.0,0.0,0.0,0.0,0.0,0.021938808268590022,-0.06828945414979312,9.810328650034911,0.0,0.0,0.0,0.0,0.0,0.0,0.0,0.0,0.0
2025/05/21 13:30:24.239636270,1747827023,335360256,mA1/imu,0.40370508618688283,0.9148886193493625,0.0006834473704310528,0.0007419377000002856,0.0,0.0,0.0,0.0,0.0,0.0,0.0,0.0,0.0,-0.00025296695706756564,-0.0008708711010277872,0.002345403259138271,0.0,0.0,0.0,0.0,0.0,0.0,0.0,0.0,0.0,0.008306224084453221,0.1825473514677159,9.810207639266931,0.0,0.0,0.0,0.0,0.0,0.0,0.0,0.0,0.0
2025/05/21 13:30:24.249065319,1747827023,384880804,mA1/imu,0.4037673559319602,0.9148611064613443,0.000703892284346128,0.0007633503064714409,0.0,0.0,0.0,0.0,0.0,0.0,0.0,0.0,0.0,-0.000804319427502202,-0.00024655278483189265,0.00293813641951182,0.0,0.0,0.0,0.0,0.0,0.0,0.0,0.0,0.0,0.004434192682059442,0.14154630292648845,9.808355532736867,0.0,0.0,0.0,0.0,0.0,0.0,0.0,0.0,0.0
2025/05/21 13:30:24.259748652,1747827023,436523274,mA1/imu,0.40383569204886627,0.9148309213511705,0.0007174614061411797,0.0007774421602386052,0.0,0.0,0.0,0.0,0.0,0.0,0.0,0.0,0.0,-0.0006467192601429565,-0.00033373837724957005,0.003021018793708141,0.0,0.0,0.0,0.0,0.0,0.0,0.0,0.0,0.0,0.01149222707591625,-0.03453561677801247,9.81042164182779,0.0,0.0,0.0,0.0,0.0,0.0,0.0,0.0,0.0
2025/05/21 13:30:24.270010163,1747827023,475717506,mA1/imu,0.40390586728141237,0.9147999290583557,0.0007197564144797161,0.000788746588779159,0.0,0.0,0.0,0.0,0.0,0.0,0.0,0.0,0.0,8.678941449588871e-05,-0.00040555570562081,0.0030999761206580967,0.0,0.0,0.0,0.0,0.0,0.0,0.0,0.0,0.0,0.011335479971233114,-0.0017454147312312325,9.810191722847163,0.0,0.0,0.0,0.0,0.0,0.0,0.0,0.0,0.0
2025/05/21 13:30:24.281290638,1747827023,527237601,mA1/imu,0.40397783038827145,0.9147681461886739,0.0007163060793281446,0.0007988610158008471,0.0,0.0,0.0,0.0,0.0,0.0,0.0,0.0,0.0,-0.0006864805389494811,-0.0004389106905107054,0.003177215118778105,0.0,0.0,0.0,0.0,0.0,0.0,0.0,0.0,0.0,0.011052952931473133,0.557132980491413,9.809064047149173,0.0,0.0,0.0,0.0,0.0,0.0,0.0,0.0,0.0
2025/05/21 13:30:25.236077828,1747827024,285229522,mA1/imu,0.40542225408123006,0.9141291271371008,0.0004656387520100815,0.0007197192571626661,0.0,0.0,0.0,0.0,0.0,0.0,0.0,0.0,0.0,-0.00046731982569601883,-4.1856168214300455e-06,0.004935944493443086,0.0,0.0,0.0,0.0,0.0,0.0,0.0,0.0,0.0,0.013246592784398593,-0.04809071367500807,9.811206844605353,0.0,0.0,0.0,0.0,0.0,0.0,0.0,0.0,0.0
2025/05/21 13:30:25.236432655,1747827024,326067955,mA1/imu,0.4055361251594394,0.9140786064847999,0.0004765115506981415,0.0007247718372035731,0.0,0.0,0.0,0.0,0.0,0.0,0.0,0.0,0.0,-0.0024712013856725426,-1.3363497220158107e-05,0.005014740120064405,0.0,0.0,0.0,0.0,0.0,0.0,0.0,0.0,0.0,0.013107354706579998,0.4579281611652453,9.811362625088378,0.0,0.0,0.0,0.0,0.0,0.0,0.0,0.0,0.0
2025/05/21 13:30:25.247320969,1747827024,375966382,mA1/imu,0.4056524395349859,0.9140269973125318,0.0004723237859884182,0.0007234593233851024,0.0,0.0,0.0,0.0,0.0,0.0,0.0,0.0,0.0,-0.0014214411392959553,-2.499781817233033e-05,0.005131702395346681,0.0,0.0,0.0,0.0,0.0,0.0,0.0,0.0,0.0,0.017125015066676547,0.550349318190723,9.808200273071174,0.0,0.0,0.0,0.0,0.0,0.0,0.0,0.0,0.0
2025/05/21 13:30:25.256958898,1747827024,427010564,mA1/imu,0.40576664735912493,0.9139762857718717,0.0004832778892516516,0.0007371431823569308,0.0,0.0,0.0,0.0,0.0,0.0,0.0,0.0,0.0,-0.00040535767761846445,-0.0004020333170269957,0.004961433904646549,0.0,0.0,0.0,0.0,0.0,0.0,0.0,0.0,0.0,0.005417796469024079,0.6304801316925205,9.810408581610671,0.0,0.0,0.0,0.0,0.0,0.0,0.0,0.0,0.0
2025/05/21 13:30:25.629713306,1747827024,678831178,mA1/imu,0.4063822342232663,0.9137026375764625,0.0006273672595809023,0.000759080920304762,0.0,0.0,0.0,0.0,0.0,0.0,0.0,0.0,0.0,-0.002292045475421409,0.0008260480460539642,0.0056012755394163,0.0,0.0,0.0,0.0,0.0,0.0,0.0,0.0,0.0,0.008400411230357554,0.2137131340002665,9.809845294565072,0.0,0.0,0.0,0.0,0.0,0.0,0.0,0.0,0.0
2025/05/21 13:30:25.637512135,1747827024,730560378,mA1/imu,0.40651195654734834,0.9136449125506184,0.0006642790451118782,0.0007494583175235597,0.0,0.0,0.0,0.0,0.0,0.0,0.0,0.0,0.0,-0.0015850929741914443,0.0010282995848276332,0.005733219370284841,0.0,0.0,0.0,0.0,0.0,0.0,0.0,0.0,0.0,0.003361752404745604,-0.08054233620272423,9.809078761931563,0.0,0.0,0.0,0.0,0.0,0.0,0.0,0.0,0.0
2025/05/21 13:30:25.833375467,1747827024,881350734,mA1/imu,0.40691002989753167,0.9134676590876097,0.0007666463569736004,0.0006896543740058705,0.0,0.0,0.0,0.0,0.0,0.0,0.0,0.0,0.0,-0.0015130156178353935,0.0013863523969145637,0.005943918535793014,0.0,0.0,0.0,0.0,0.0,0.0,0.0,0.0,0.0,0.0026063945362820003,0.5562609919881849,9.809738604004318,0.0,0.0,0.0,0.0,0.0,0.0,0.0,0.0,0.0
2025/05/21 13:30:25.834033429,1747827024,932370821,mA1/imu,0.4070471834201766,0.9134065397931088,0.0007988676712276676,0.0006673404864137446,0.0,0.0,0.0,0.0,0.0,0.0,0.0,0.0,0.0,0.0006002464751270754,0.0012901155892350337,0.006049787061246235,0.0,0.0,0.0,0.0,0.0,0.0,0.0,0.0,0.0,0.0034476490581421,-0.5716350377421853,9.808391577991037,0.0,0.0,0.0,0.0,0.0,0.0,0.0,0.0,0.0
2025/05/21 13:30:25.842768234,1747827024,984990566,mA1/imu,0.40718157650352316,0.9133466339287648,0.0008188656192091444,0.0006476929813486734,0.0,0.0,0.0,0.0,0.0,0.0,0.0,0.0,0.0,-0.0003584363928091274,0.0007649937290056983,0.0056962706612401345,0.0,0.0,0.0,0.0,0.0,0.0,0.0,0.0,0.0,0.020748297367619344,0.09077004690870914,9.812646102686013,0.0,0.0,0.0,0.0,0.0,0.0,0.0,0.0,0.0
2025/05/21 13:30:26.232140597,1747827025,284948808,mA1/imu,0.4079911245292882,0.912985368171479,0.0007834206909820713,0.0005882704621187568,0.0,0.0,0.0,0.0,0.0,0.0,0.0,0.0,0.0,0.002062179105070652,-0.0003031741079077544,0.006021648627015785,0.0,0.0,0.0,0.0,0.0,0.0,0.0,0.0,0.0,0.0014791721507212913,0.045882167748745595,9.810857314406574,0.0,0.0,0.0,0.0,0.0,0.0,0.0,0.0,0.0
2025/05/21 13:30:26.232203389,1747827025,335908796,mA1/imu,0.40812933916307986,0.9129236152457119,0.0007560234080883702,0.0005862334122813829,0.0,0.0,0.0,0.0,0.0,0.0,0.0,0.0,0.0,0.001431241770590401,-0.0004133426154611195,0.00609105832808031,0.0,0.0,0.0,0.0,0.0,0.0,0.0,0.0,0.0,-0.0037308167841559343,-0.11819465141870711,9.80995688773696,0.0,0.0,0.0,0.0,0.0,0.0,0.0,0.0,0.0
2025/05/21 13:30:26.242297308,1747827025,375748103,mA1/imu,0.4082668912259779,0.9128621394456725,0.0007181051237174114,0.0005867029711509066,0.0,0.0,0.0,0.0,0.0,0.0,0.0,0.0,0.0,0.0022406424903880146,-0.0008566537099449159,0.0059315894707588366,0.0,0.0,0.0,0.0,0.0,0.0,0.0,0.0,0.0,0.01463787477374131,-0.22540092156586208,9.810732740194805,0.0,0.0,0.0,0.0,0.0,0.0,0.0,0.0,0.0
2025/05/21 13:30:26.256568477,1747827025,427643566,mA1/imu,0.4083988685572486,0.9128031241933136,0.0006786085580969021,0.0006000954175657728,0.0,0.0,0.0,0.0,0.0,0.0,0.0,0.0,0.0,0.0022241328343920687,-0.0013367387270798899,0.005682049757182941,0.0,0.0,0.0,0.0,0.0,0.0,0.0,0.0,0.0,0.01309238928128537,-0.5923964168176429,9.808719689656453,0.0,0.0,0.0,0.0,0.0,0.0,0.0,0.0,0.0
2025/05/21 13:30:26.267013323,1747827025,476643707,mA1/imu,0.4085251989347961,0.912746612214574,0.0006311204039513001,0.0006208165099949579,0.0,0.0,0.0,0.0,0.0,0.0,0.0,0.0,0.0,0.0009568853299227385,-0.0016665637385023097,0.005434024829187308,0.0,0.0,0.0,0.0,0.0,0.0,0.0,0.0,0.0,0.012796130804032902,0.5856682592687051,9.809924567272846,0.0,0.0,0.0,0.0,0.0,0.0,0.0,0.0,0.0
2025/05/21 13:30:26.276102155,1747827025,528026714,mA1/imu,0.40865110208727373,0.9126902640085351,0.0005874565548992373,0.000643149813946441,0.0,0.0,0.0,0.0,0.0,0.0,0.0,0.0,0.0,0.00267920206651346,-0.0014059589565459103,0.005602848273056402,0.0,0.0,0.0,0.0,0.0,0.0,0.0,0.0,0.0,-0.01039487978716432,-0.5232840395125501,9.807978728353444,0.0,0.0,0.0,0.0,0.0,0.0,0.0,0.0,0.0
2025/05/21 13:30:27.229551804,1747827026,281339984,mA1/imu,0.41064416768279627,0.9117951451945142,0.0009461260713190008,0.00029256328427230705,0.0,0.0,0.0,0.0,0.0,0.0,0.0,0.0,0.0,-0.0013411347468512004,0.0009846884040281452,0.005857853124758681,0.0,0.0,0.0,0.0,0.0,0.0,0.0,0.0,0.0,0.01328635171787736,-0.04352980225423207,9.813334605233164,0.0,0.0,0.0,0.0,0.0,0.0,0.0,0.0,0.0
2025/05/21 13:30:27.230469979,1747827026,333093190,mA1/imu,0.4107786466035959,0.9117345322626395,0.0009809974230359788,0.00028951407574135887,0.0,0.0,0.0,0.0,0.0,0.0,0.0,0.0,0.0,-0.001135841939162068,0.00046811709953093497,0.0059292142034003,0.0,0.0,0.0,0.0,0.0,0.0,0.0,0.0,0.0,-0.009207691782746288,-0.023486575559629456,9.80915753312177,0.0,0.0,0.0,0.0,0.0,0.0,0.0,0.0,0.0
2025/05/21 13:30:27.240162378,1747827026,382773356,mA1/imu,0.41091468343110094,0.9116731965395848,0.0010083084191559247,0.00029827193274769724,0.0,0.0,0.0,0.0,0.0,0.0,0.0,0.0,0.0,-0.0009951250812655584,-0.0001095484484131712,0.005994938227768244,0.0,0.0,0.0,0.0,0.0,0.0,0.0,0.0,0.0,-0.008265949259491857,-0.03211741476063252,9.80840279222756,0.0,0.0,0.0,0.0,0.0,0.0,0.0,0.0,0.0
2025/05/21 13:30:28.133498706,1747827027,177730571,mA1/imu,0.4132700303156414,0.9106081512876623,0.0005271061796028925,0.000631672739934457,0.0,0.0,0.0,0.0,0.0,0.0,0.0,0.0,0.0,0.0012158846982292465,0.0009296465165908505,0.0068397723063340216,0.0,0.0,0.0,0.0,0.0,0.0,0.0,0.0,0.0,-0.00943458625571416,-0.525844097757846,9.809693399787552,0.0,0.0,0.0,0.0,0.0,0.0,0.0,0.0,0.0
2025/05/21 13:30:28.139250594,1747827027,228694592,mA1/imu,0.4134259763387702,0.9105373767077786,0.0005328568815637526,0.0006031334807468319,0.0,0.0,0.0,0.0,0.0,0.0,0.0,0.0,0.0,-0.00016924323057629392,0.0012465976643809343,0.00685838135578058,0.0,0.0,0.0,0.0,0.0,0.0,0.0,0.0,0.0,-0.004227503469001278,0.08075596155012986,9.81056117735643,0.0,0.0,0.0,0.0,0.0,0.0,0.0,0.0,0.0
2025/05/21 13:30:28.143628894,1747827027,278599390,mA1/imu,0.41358231116220806,0.9104663936884637,0.0005420367318909283,0.0005692572629303762,0.0,0.0,0.0,0.0,0.0,0.0,0.0,0.0,0.0,0.00048767062040044705,0.0014453770646563194,0.006875558964641305,0.0,0.0,0.0,0.0,0.0,0.0,0.0,0.0,0.0,-0.0033268702826214844,0.0049840932531219646,9.810574489053145,0.0,0.0,0.0,0.0,0.0,0.0,0.0,0.0,0.0
2025/05/21 13:30:28.158545382,1747827027,332555575,mA1/imu,0.4137390156217329,0.9103951996404326,0.0005643391706906704,0.0005375363399186593,0.0,0.0,0.0,0.0,0.0,0.0,0.0,0.0,0.0,-0.001311511461200732,0.0015501897848184693,0.00689219376525975,0.0,0.0,0.0,0.0,0.0,0.0,0.0,0.0,0.0,-0.0027316181126443816,0.35717486427067635,9.811079755471662,0.0,0.0,0.0,0.0,0.0,0.0,0.0,0.0,0.0
2025/05/21 13:30:28.171350226,1747827027,379953151,mA1/imu,0.4138971227395346,0.9103233311957938,0.0005899154241821838,0.0005064270135904937,0.0,0.0,0.0,0.0,0.0,0.0,0.0,0.0,0.0,-0.000984388432818392,0.0015459959882038433,0.007008351583425051,0.0,0.0,0.0,0.0,0.0,0.0,0.0,0.0,0.0,-0.001309768866198842,-0.04855697858089402,9.808948155759827,0.0,0.0,0.0,0.0,0.0,0.0,0.0,0.0,0.0
2025/05/21 13:30:28.186674874,1747827027,431012131,mA1/imu,0.41405691624256513,0.9102506567890258,0.0006181350779545548,0.0004794120040472363,0.0,0.0,0.0,0.0,0.0,0.0,0.0,0.0,0.0,-0.0006031248549684425,0.0013751243486180868,0.00703178394840332,0.0,0.0,0.0,0.0,0.0,0.0,0.0,0.0,0.0,-0.0004958825614886997,0.25870017307623977,9.809909001347796,0.0,0.0,0.0,0.0,0.0,0.0,0.0,0.0,0.0
2025/05/21 13:30:29.137139835,1747827028,183722512,mA1/imu,0.41687097204438944,0.9089648192339826,0.000729163391938619,0.0010091493680389738,0.0,0.0,0.0,0.0,0.0,0.0,0.0,0.0,0.0,-0.0004837663983720573,-0.00220526576343694,0.008768943180384112,0.0,0.0,0.0,0.0,0.0,0.0,0.0,0.0,0.0,-0.010522878649326672,0.5104486689039548,9.8108165075108,0.0,0.0,0.0,0.0,0.0,0.0,0.0,0.0,0.0
2025/05/21 13:30:29.146275289,1747827028,228423985,mA1/imu,0.41707369694781554,0.9088718119257975,0.0006918829537560975,0.0010402398655167205,0.0,0.0,0.0,0.0,0.0,0.0,0.0,0.0,0.0,-0.0005034894194395071,-0.0015496169885013818,0.008934364837530703,0.0,0.0,0.0,0.0,0.0,0.0,0.0,0.0,0.0,0.008137266305938735,0.49276733014210183,9.810895022584958,0.0,0.0,0.0,0.0,0.0,0.0,0.0,0.0,0.0
2025/05/21 13:30:29.280290285,1747827028,334675498,mA1/imu,0.4174792676165271,0.9086856306821862,0.0006092841737177167,0.0010556869237976934,0.0,0.0,0.0,0.0,0.0,0.0,0.0,0.0,0.0,0.002726559855956595,-0.0004756921034395942,0.00891402071298462,0.0,0.0,0.0,0.0,0.0,0.0,0.0,0.0,0.0,0.007508589707907267,-0.5668196523691783,9.809686495929208,0.0,0.0,0.0,0.0,0.0,0.0,0.0,0.0,0.0
2025/05/21 13:30:29.285287037,1747827028,379068098,mA1/imu,0.41768164930498514,0.9085926646658605,0.0005705212392496297,0.0010411795109789596,0.0,0.0,0.0,0.0,0.0,0.0,0.0,0.0,0.0,0.002364747670407158,0.0001027116342596513,0.00890232916002177,0.0,0.0,0.0,0.0,0.0,0.0,0.0,0.0,0.0,0.008432091599114901,0.2411240556866279,9.811567035570645,0.0,0.0,0.0,0.0,0.0,0.0,0.0,0.0,0.0
2025/05/21 13:30:29.293076536,1747827028,431945022,mA1/imu,0.41788373836657106,0.9084997816854397,0.0005431453723153616,0.001016306741211284,0.0,0.0,0.0,0.0,0.0,0.0,0.0,0.0,0.0,0.0021311921252543213,0.0006501721385123467,0.008891422646777659,0.0,0.0,0.0,0.0,0.0,0.0,0.0,0.0,0.0,0.008241724535562727,0.1788858747611939,9.810986953633389,0.0,0.0,0.0,0.0,0.0,0.0,0.0,0.0,0.0
2025/05/21 13:30:29.303109381,1747827028,477987419,mA1/imu,0.4180865825760811,0.908406504040157,0.000523870918788544,0.000979002887828605,0.0,0.0,0.0,0.0,0.0,0.0,0.0,0.0,0.0,0.002217173481671962,0.001376660534239577,0.009037009760331057,0.0,0.0,0.0,0.0,0.0,0.0,0.0,0.0,0.0,-0.009482572831041723,0.02023323176315208,9.813991872208911,0.0,0.0,0.0,0.0,0.0,0.0,0.0,0.0,0.0
2025/05/21 13:30:29.316037337,1747827028,528982538,mA1/imu,0.4182945921685931,0.9083108057373646,0.000512053387821888,0.0009231167737091379,0.0,0.0,0.0,0.0,0.0,0.0,0.0,0.0,0.0,0.0015007022784265572,0.0019769128033838125,0.009170060556108566,0.0,0.0,0.0,0.0,0.0,0.0,0.0,0.0,0.0,0.0110936378745663,0.20294509704700878,9.811422969452233,0.0,0.0,0.0,0.0,0.0,0.0,0.0,0.0,0.0
2025/05/21 13:30:29.323795398,1747827028,584638781,mA1/imu,0.4185026651615394,0.9082150190397293,0.000506091234081669,0.0008615770512629981,0.0,0.0,0.0,0.0,0.0,0.0,0.0,0.0,0.0,0.0013094268926565331,0.002201321676799361,0.009158184296275605,0.0,0.0,0.0,0.0,0.0,0.0,0.0,0.0,0.0,0.012225287893275982,0.28185972216506683,9.812151325621048,0.0,0.0,0.0,0.0,0.0,0.0,0.0,0.0,0.0
2025/05/21 13:30:29.336264800,1747827028,635668614,mA1/imu,0.41871038188940446,0.9081193259161787,0.000512623448335894,0.0008020054704594185,0.0,0.0,0.0,0.0,0.0,0.0,0.0,0.0,0.0,0.00048591241093769253,0.0022883324416929037,0.009143970251279032,0.0,0.0,0.0,0.0,0.0,0.0,0.0,0.0,0.0,0.01264971676628633,-0.056765707152121314,9.811003100979068,0.0,0.0,0.0,0.0,0.0,0.0,0.0,0.0,0.0
2025/05/21 13:30:30.288960134,1747827029,334721335,mA1/imu,0.4213831408783535,0.9068819626112388,0.0007029060068288731,0.000927575887329022,0.0,0.0,0.0,0.0,0.0,0.0,0.0,0.0,0.0,-0.0009066351013885677,-4.372994449987867e-05,0.007821251363283868,0.0,0.0,0.0,0.0,0.0,0.0,0.0,0.0,0.0,0.0009621049928649223,-0.03821193308107897,9.809652231417404,0.0,0.0,0.0,0.0,0.0,0.0,0.0,0.0,0.0
2025/05/21 13:30:30.290264139,1747827029,375393027,mA1/imu,0.42156059870911294,0.9067994670475092,0.0007233980623160819,0.0009299858122369902,0.0,0.0,0.0,0.0,0.0,0.0,0.0,0.0,0.0,-0.0006891383171426919,0.0004425627616994805,0.007833242287414095,0.0,0.0,0.0,0.0,0.0,0.0,0.0,0.0,0.0,0.0012481711930845685,-0.025301798788617578,9.81017821793144,0.0,0.0,0.0,0.0,0.0,0.0,0.0,0.0,0.0
2025/05/21 13:30:30.835976783,1747827029,877903181,mA1/imu,0.42332974283997404,0.9059751882599781,0.0007594198168157021,0.0005571049099032544,0.0,0.0,0.0,0.0,0.0,0.0,0.0,0.0,0.0,0.0011550094085078602,0.0005547940243144719,0.0076171370919008935,0.0,0.0,0.0,0.0,0.0,0.0,0.0,0.0,0.0,0.02309820494928133,-0.669968929456491,9.810595840280147,0.0,0.0,0.0,0.0,0.0,0.0,0.0,0.0,0.0
2025/05/21 13:30:30.837214631,1747827029,935415335,mA1/imu,0.42349752297042687,0.9058968092078253,0.000725990946339101,0.0005404092334588269,0.0,0.0,0.0,0.0,0.0,0.0,0.0,0.0,0.0,0.0022302968333493115,-0.00022904535818684223,0.007314247378790669,0.0,0.0,0.0,0.0,0.0,0.0,0.0,0.0,0.0,0.0015750913076352738,-0.5914769769268423,9.810001557761444,0.0,0.0,0.0,0.0,0.0,0.0,0.0,0.0,0.0
2025/05/21 13:30:30.846525651,1747827029,985243030,mA1/imu,0.4236630317461134,0.9058194497109402,0.0006891826479676661,0.0005339328976355933,0.0,0.0,0.0,0.0,0.0,0.0,0.0,0.0,0.0,0.001975244979453603,-0.0005115390511385076,0.00730343473402076,0.0,0.0,0.0,0.0,0.0,0.0,0.0,0.0,0.0,0.0025431945959892644,0.021266453094223627,9.810998502038862,0.0,0.0,0.0,0.0,0.0,0.0,0.0,0.0,0.0
2025/05/21 13:30:31.37529028,1747827030,81139262,mA1/imu,0.4239933846261795,0.9056648977232309,0.0006327121629744457,0.0005500004774381538,0.0,0.0,0.0,0.0,0.0,0.0,0.0,0.0,0.0,0.0012375564323282946,-0.0009791624306578,0.007287071346666979,0.0,0.0,0.0,0.0,0.0,0.0,0.0,0.0,0.0,0.0017468187534002942,-0.6314384632127845,9.808979644714915,0.0,0.0,0.0,0.0,0.0,0.0,0.0,0.0,0.0
2025/05/21 13:30:31.46629109,1747827030,133356120,mA1/imu,0.4241583007466441,0.9055876798123264,0.0006067807826269662,0.0005673596115232122,0.0,0.0,0.0,0.0,0.0,0.0,0.0,0.0,0.0,0.0010771869778268075,-0.0011429960577073884,0.007280562907484822,0.0,0.0,0.0,0.0,0.0,0.0,0.0,0.0,0.0,0.001990909596168243,-0.6273552300953611,9.810009065011347,0.0,0.0,0.0,0.0,0.0,0.0,0.0,0.0,0.0
2025/05/21 13:30:31.56904000,1747827030,183677304,mA1/imu,0.424323071321052,0.9055104909055987,0.0005798186211584428,0.000588060318050524,0.0,0.0,0.0,0.0,0.0,0.0,0.0,0.0,0.0,0.0003906269534505327,-0.0012439134335237574,0.007275661002239315,0.0,0.0,0.0,0.0,0.0,0.0,0.0,0.0,0.0,0.0018533974648858916,-0.02684896257629569,9.808831545928898,0.0,0.0,0.0,0.0,0.0,0.0,0.0,0.0,0.0
2025/05/21 13:30:31.67509636,1747827030,235144729,mA1/imu,0.4244877456393213,0.9054333023116229,0.0005594011220072471,0.0006131374241553735,0.0,0.0,0.0,0.0,0.0,0.0,0.0,0.0,0.0,0.0005334638860447497,-0.0012576610403398961,0.0072730960153630534,0.0,0.0,0.0,0.0,0.0,0.0,0.0,0.0,0.0,0.0013323332469661834,0.002312326896180633,9.810033222473269,0.0,0.0,0.0,0.0,0.0,0.0,0.0,0.0,0.0
2025/05/21 13:30:32.36524226,1747827031,75528603,mA1/imu,0.42721079594519495,0.9041513839478496,0.0008684379292635508,0.0006756838196666667,0.0,0.0,0.0,0.0,0.0,0.0,0.0,0.0,0.0,0.0013642943234730782,0.00026376694129482244,0.007131266743758974,0.0,0.0,0.0,0.0,0.0,0.0,0.0,0.0,0.0,0.006595088214969071,-0.6032863859889092,9.809517616898784,0.0,0.0,0.0,0.0,0.0,0.0,0.0,0.0,0.0
2025/05/21 13:30:32.37993070,1747827031,126835454,mA1/imu,0.42737191410769704,0.9040752651956219,0.0008488275074828558,0.000664368310348612,0.0,0.0,0.0,0.0,0.0,0.0,0.0,0.0,0.0,0.0015394423978857875,-6.99616315131041e-05,0.00712563934633304,0.0,0.0,0.0,0.0,0.0,0.0,0.0,0.0,0.0,0.006240217511867943,0.024443231880809612,9.810932610829788,0.0,0.0,0.0,0.0,0.0,0.0,0.0,0.0,0.0
2025/05/21 13:30:32.479144847,1747827031,533961133,mA1/imu,0.42865519528282137,0.9034676556471533,0.0005759216336742166,0.000766205426094896,0.0,0.0,0.0,0.0,0.0,0.0,0.0,0.0,0.0,0.0017200814275139305,-0.00129963405500678,0.0070900729579730145,0.0,0.0,0.0,0.0,0.0,0.0,0.0,0.0,0.0,0.004793595917563332,-0.5343609315307798,9.808247009696062,0.0,0.0,0.0,0.0,0.0,0.0,0.0,0.0,0.0
2025/05/21 13:30:32.483179294,1747827031,583798544,mA1/imu,0.42881869694579783,0.9033900647435623,0.0005515705070469703,0.0007822034940455137,0.0,0.0,0.0,0.0,0.0,0.0,0.0,0.0,0.0,0.000844508298525577,-0.0007255689788815608,0.007382452831888556,0.0,0.0,0.0,0.0,0.0,0.0,0.0,0.0,0.0,-0.01139312924486849,-0.14322276307192558,9.809305800072003,0.0,0.0,0.0,0.0,0.0,0.0,0.0,0.0,0.0
2025/05/21 13:30:32.494372635,1747827031,628711357,mA1/imu,0.42898559467086655,0.9033108317110209,0.0005285591865068761,0.0007883550043755496,0.0,0.0,0.0,0.0,0.0,0.0,0.0,0.0,0.0,0.0013848797345289337,-0.0005504243058301902,0.007393008273838509,0.0,0.0,0.0,0.0,0.0,0.0,0.0,0.0,0.0,0.005774724898517176,-0.19410032386142484,9.808225148779094,0.0,0.0,0.0,0.0,0.0,0.0,0.0,0.0,0.0
2025/05/21 13:30:32.503927150,1747827031,680485859,mA1/imu,0.4291512427476346,0.9032321447797592,0.0005199502832178238,0.0007956986992730115,0.0,0.0,0.0,0.0,0.0,0.0,0.0,0.0,0.0,-0.0007340913809740972,-0.00029706445876024056,0.007273254455278524,0.0,0.0,0.0,0.0,0.0,0.0,0.0,0.0,0.0,0.003553976773347867,0.5289995462428079,9.807848344091067,0.0,0.0,0.0,0.0,0.0,0.0,0.0,0.0,0.0
2025/05/21 13:30:32.504753181,1747827031,731480289,mA1/imu,0.42931555682149003,0.9031540589565845,0.000513044904836106,0.0007970233536369873,0.0,0.0,0.0,0.0,0.0,0.0,0.0,0.0,0.0,-0.0006944369570590787,-7.294638669553687e-05,0.007278711363843121,0.0,0.0,0.0,0.0,0.0,0.0,0.0,0.0,0.0,0.005734568302679679,0.5514036100875371,9.80999398684409,0.0,0.0,0.0,0.0,0.0,0.0,0.0,0.0,0.0
2025/05/21 13:30:32.515077239,1747827031,781532193,mA1/imu,0.429480009550217,0.9030758591310932,0.0005229697890904642,0.0008003461646209804,0.0,0.0,0.0,0.0,0.0,0.0,0.0,0.0,0.0,-0.0010275631164883001,0.00013355133983891467,0.007286929827856721,0.0,0.0,0.0,0.0,0.0,0.0,0.0,0.0,0.0,0.005723033875464932,0.5457175572906482,9.810451722536092,0.0,0.0,0.0,0.0,0.0,0.0,0.0,0.0,0.0
2025/05/21 13:30:32.526751722,1747827031,832784877,mA1/imu,0.42964461088836803,0.9029975598455879,0.0005300357590014124,0.0007964355531798286,0.0,0.0,0.0,0.0,0.0,0.0,0.0,0.0,0.0,-0.000991792169905177,0.0003497135047110534,0.007294290216246415,0.0,0.0,0.0,0.0,0.0,0.0,0.0,0.0,0.0,0.006011872780131712,0.3637314491006387,9.8099507120845,0.0,0.0,0.0,0.0,0.0,0.0,0.0,0.0,0.0
2025/05/21 13:30:33.478938096,1747827032,529777276,mA1/imu,0.4320766324106464,0.9018362108108389,0.0008188639754410649,0.0007497044837361949,0.0,0.0,0.0,0.0,0.0,0.0,0.0,0.0,0.0,0.0011345811926094117,-0.0008770705602958884,0.008229628587907779,0.0,0.0,0.0,0.0,0.0,0.0,0.0,0.0,0.0,0.01069544805693387,-0.6010003818183056,9.809152848202292,0.0,0.0,0.0,0.0,0.0,0.0,0.0,0.0,0.0
2025/05/21 13:30:33.482479334,1747827032,579592455,mA1/imu,0.43226243305692996,0.9017471739663555,0.0007958797384065723,0.0007679758046069076,0.0,0.0,0.0,0.0,0.0,0.0,0.0,0.0,0.0,0.0008488962190037843,-0.0011853778256454574,0.008246311038175252,0.0,0.0,0.0,0.0,0.0,0.0,0.0,0.0,0.0,0.010942698928885329,-0.007228906187643259,9.808778023681814,0.0,0.0,0.0,0.0,0.0,0.0,0.0,0.0,0.0
2025/05/21 13:30:34.136858713,1747827033,185167067,mA1/imu,0.4344998890200561,0.9006713353332146,0.0004413940502220315,0.0008929288523591651,0.0,0.0,0.0,0.0,0.0,0.0,0.0,0.0,0.0,0.0009353220029533165,0.00033331014934249656,0.007910347773857027,0.0,0.0,0.0,0.0,0.0,0.0,0.0,0.0,0.0,0.014450244740066816,-0.21429366573937728,9.811421721396425,0.0,0.0,0.0,0.0,0.0,0.0,0.0,0.0,0.0
2025/05/21 13:30:34.137549807,1747827033,226069593,mA1/imu,0.4346781648446652,0.9005853163385931,0.0004514437075570732,0.0008815901368121523,0.0,0.0,0.0,0.0,0.0,0.0,0.0,0.0,0.0,0.0002516351985897013,0.0007259786789286707,0.007924455311779524,0.0,0.0,0.0,0.0,0.0,0.0,0.0,0.0,0.0,0.006652453567816531,-0.007109334995447646,9.811181922493219,0.0,0.0,0.0,0.0,0.0,0.0,0.0,0.0,0.0
2025/05/21 13:30:34.149121173,1747827033,276000974,mA1/imu,0.43485667730923366,0.9004991407030092,0.0004699437641945747,0.0008642601307448222,0.0,0.0,0.0,0.0,0.0,0.0,0.0,0.0,0.0,-0.0024174812596338053,0.00107815310715976,0.007933866718669516,0.0,0.0,0.0,0.0,0.0,0.0,0.0,0.0,0.0,0.007431798759657224,0.455740093101891,9.811846153774487,0.0,0.0,0.0,0.0,0.0,0.0,0.0,0.0,0.0
2025/05/21 13:30:34.159753615,1747827033,327411801,mA1/imu,0.43503541490506686,0.9004128179029717,0.0004893504103589599,0.0008400420121215584,0.0,0.0,0.0,0.0,0.0,0.0,0.0,0.0,0.0,-0.0010354450853075686,0.00130080096428829,0.007943891292115887,0.0,0.0,0.0,0.0,0.0,0.0,0.0,0.0,0.0,0.008193729684497459,-0.06347392120818118,9.810445459263873,0.0,0.0,0.0,0.0,0.0,0.0,0.0,0.0,0.0
2025/05/21 13:30:34.170913601,1747827033,376997615,mA1/imu,0.43521431357798157,0.9003263750740664,0.000511246050504646,0.0008113139426188816,0.0,0.0,0.0,0.0,0.0,0.0,0.0,0.0,0.0,0.0006140665269814696,0.0014692068088383576,0.007951769341364845,0.0,0.0,0.0,0.0,0.0,0.0,0.0,0.0,0.0,0.008096005057018203,-0.5314353594988006,9.809503166262546,0.0,0.0,0.0,0.0,0.0,0.0,0.0,0.0,0.0
2025/05/21 13:30:35.137204760,1747827034,175700385,mA1/imu,0.43811676043858905,0.8989173214134575,0.0006484942745736436,0.0009658886200875215,0.0,0.0,0.0,0.0,0.0,0.0,0.0,0.0,0.0,-0.001485743573182967,-0.0014448364814848896,0.007880682319870765,0.0,0.0,0.0,0.0,0.0,0.0,0.0,0.0,0.0,0.005123410594919253,0.33583208850995283,9.810049017127115,0.0,0.0,0.0,0.0,0.0,0.0,0.0,0.0,0.0
2025/05/21 13:30:35.138492174,1747827034,226824499,mA1/imu,0.43829418786161234,0.8988308607912244,0.0005888511543953095,0.0009704794455510466,0.0,0.0,0.0,0.0,0.0,0.0,0.0,0.0,0.0,0.0013478702653503226,-0.0010139673143932423,0.00789902134019087,0.0,0.0,0.0,0.0,0.0,0.0,0.0,0.0,0.0,0.004385879232846678,0.6115400585436195,9.810995838116417,0.0,0.0,0.0,0.0,0.0,0.0,0.0,0.0,0.0
2025/05/21 13:30:35.146730358,1747827034,276531439,mA1/imu,0.43846041089228915,0.8987497789676142,0.0005559159513940043,0.0009969168894736122,0.0,0.0,0.0,0.0,0.0,0.0,0.0,0.0,0.0,0.001640698164461304,-0.002211082420516293,0.0068771790935453925,0.0,0.0,0.0,0.0,0.0,0.0,0.0,0.0,0.0,0.07155409977152233,-0.0080316108133217,9.803087709271717,0.0,0.0,0.0,0.0,0.0,0.0,0.0,0.0,0.0
2025/05/21 13:30:35.428737565,1747827034,478235211,mA1/imu,0.4390879335014035,0.8984434338330866,0.00043686227240643307,0.0009959954990010722,0.0,0.0,0.0,0.0,0.0,0.0,0.0,0.0,0.0,-0.0005056878375615815,0.0010162190408328309,0.007060348004237297,0.0,0.0,0.0,0.0,0.0,0.0,0.0,0.0,0.0,0.0023777693076380696,0.5086879709735811,9.811448619294,0.0,0.0,0.0,0.0,0.0,0.0,0.0,0.0,0.0
2025/05/21 13:30:35.432501230,1747827034,529258766,mA1/imu,0.4392468462021479,0.8983657949065798,0.0004370562805334256,0.0009568830352733369,0.0,0.0,0.0,0.0,0.0,0.0,0.0,0.0,0.0,0.0011688577352829503,0.0016612906290888866,0.0070844769763958905,0.0,0.0,0.0,0.0,0.0,0.0,0.0,0.0,0.0,0.0034935249446863322,0.004096960835471675,9.810482332637248,0.0,0.0,0.0,0.0,0.0,0.0,0.0,0.0,0.0
2025/05/21 13:30:35.439959045,1747827034,579277983,mA1/imu,0.4394062674693769,0.8982878797905034,0.00044560407812992256,0.0009047469911727825,0.0,0.0,0.0,0.0,0.0,0.0,0.0,0.0,0.0,-0.0007209106397062234,0.0022364953632260584,0.00710695083887028,0.0,0.0,0.0,0.0,0.0,0.0,0.0,0.0,0.0,0.0048081485314986575,0.5141429309902059,9.811772401439656,0.0,0.0,0.0,0.0,0.0,0.0,0.0,0.0,0.0
2025/05/21 13:30:35.449897415,1747827034,630540300,mA1/imu,0.43956613487505575,0.8982097222682246,0.0004516543187179474,0.0008389888076698641,0.0,0.0,0.0,0.0,0.0,0.0,0.0,0.0,0.0,0.0021043128371218433,0.002614373861326424,0.007127614744714817,0.0,0.0,0.0,0.0,0.0,0.0,0.0,0.0,0.0,0.004944110422303898,0.09748306000109411,9.812179992459939,0.0,0.0,0.0,0.0,0.0,0.0,0.0,0.0,0.0
2025/05/21 13:30:35.460459852,1747827034,680213079,mA1/imu,0.43972635067596655,0.8981313245122029,0.0004963006176085669,0.0007836688395396566,0.0,0.0,0.0,0.0,0.0,0.0,0.0,0.0,0.0,0.0008959862927563411,0.0028006559707023835,0.007145279198141453,0.0,0.0,0.0,0.0,0.0,0.0,0.0,0.0,0.0,0.007520865245309757,-0.6042734727357517,9.809889261697794,0.0,0.0,0.0,0.0,0.0,0.0,0.0,0.0,0.0
2025/05/21 13:30:35.471934061,1747827034,731274341,mA1/imu,0.43988694992217686,0.8980527184079707,0.0005223955431413638,0.0007164852508690917,0.0,0.0,0.0,0.0,0.0,0.0,0.0,0.0,0.0,-0.001320673112971846,0.0028775015308484956,0.007160589914434466,0.0,0.0,0.0,0.0,0.0,0.0,0.0,0.0,0.0,0.008189754914785408,-0.11042212075282593,9.812065840065165,0.0,0.0,0.0,0.0,0.0,0.0,0.0,0.0,0.0
2025/05/21 13:30:35.935011799,1747827034,983121045,mA1/imu,0.4406813900735106,0.8976631563965812,0.0007043011366570587,0.0005234987244213596,0.0,0.0,0.0,0.0,0.0,0.0,0.0,0.0,0.0,0.0003525015486291668,0.00029898202378042207,0.006759057493032362,0.0,0.0,0.0,0.0,0.0,0.0,0.0,0.0,0.0,0.03364461540792141,-0.5585463595252651,9.808749447443612,0.0,0.0,0.0,0.0,0.0,0.0,0.0,0.0,0.0
2025/05/21 13:30:35.945073316,1747827035,35021042,mA1/imu,0.4408282890611691,0.8975909991165139,0.0007232970345908348,0.0005428718268194635,0.0,0.0,0.0,0.0,0.0,0.0,0.0,0.0,0.0,-0.00120965427492734,-0.0007455882655594925,0.006475041142863552,0.0,0.0,0.0,0.0,0.0,0.0,0.0,0.0,0.0,0.0073172572626245295,-0.040644422049803904,9.811257039896583,0.0,0.0,0.0,0.0,0.0,0.0,0.0,0.0,0.0
2025/05/21 13:30:35.956336766,1747827035,84142388,mA1/imu,0.4409715322015757,0.8975206043458672,0.0007317906780241451,0.0005805556195685432,0.0,0.0,0.0,0.0,0.0,0.0,0.0,0.0,0.0,-0.0028123222293517324,-0.0014425554664425728,0.006323018657779884,0.0,0.0,0.0,0.0,0.0,0.0,0.0,0.0,0.0,0.00626195838244318,0.4741283127149535,9.80931587221618,0.0,0.0,0.0,0.0,0.0,0.0,0.0,0.0,0.0
2025/05/21 13:30:35.967178227,1747827035,135827321,mA1/imu,0.4411138714961735,0.8974506322138596,0.0007262401012647435,0.0006226458998323759,0.0,0.0,0.0,0.0,0.0,0.0,0.0,0.0,0.0,-0.0012115759921611782,-0.0016946679879745537,0.006355557006946362,0.0,0.0,0.0,0.0,0.0,0.0,0.0,0.0,0.0,0.002051331822094749,-0.052954260345233775,9.8075429660793,0.0,0.0,0.0,0.0,0.0,0.0,0.0,0.0,0.0
2025/05/21 13:30:35.977699494,1747827035,185007820,mA1/imu,0.44125756316977255,0.8973799668814955,0.0007166072839390258,0.0006666777638065519,0.0,0.0,0.0,0.0,0.0,0.0,0.0,0.0,0.0,0.0004060709373034992,-0.0017857316959705419,0.006433542487215215,0.0,0.0,0.0,0.0,0.0,0.0,0.0,0.0,0.0,0.0011315599010152553,0.05029329710710449,9.807781103823032,0.0,0.0,0.0,0.0,0.0,0.0,0.0,0.0,0.0
2025/05/21 13:30:36.927057216,1747827035,982991194,mA1/imu,0.4434538117234915,0.8962968271613123,0.0005994757101191028,0.0005959172286538344,0.0,0.0,0.0,0.0,0.0,0.0,0.0,0.0,0.0,0.0007919653414397666,0.001334304444307895,0.005767639326814492,0.0,0.0,0.0,0.0,0.0,0.0,0.0,0.0,0.0,0.02983563063569586,-9.681815631237475e-05,9.809298223663356,0.0,0.0,0.0,0.0,0.0,0.0,0.0,0.0,0.0
2025/05/21 13:30:36.929246854,1747827036,33897098,mA1/imu,0.4435823729122075,0.8962332235150214,0.0006063782298806237,0.0005655217866162615,0.0,0.0,0.0,0.0,0.0,0.0,0.0,0.0,0.0,0.00036774285224652693,0.0011221803719991099,0.005728689109599064,0.0,0.0,0.0,0.0,0.0,0.0,0.0,0.0,0.0,0.0019220774938196487,-0.2234794622683579,9.811523580282532,0.0,0.0,0.0,0.0,0.0,0.0,0.0,0.0,0.0
2025/05/21 13:30:36.939254670,1747827036,83759621,mA1/imu,0.4437098301063555,0.8961701450393093,0.0006056960457502056,0.0005393880910059027,0.0,0.0,0.0,0.0,0.0,0.0,0.0,0.0,0.0,-0.0004934921077082152,0.0007576687148847157,0.005644852618990729,0.0,0.0,0.0,0.0,0.0,0.0,0.0,0.0,0.0,0.00794217063069087,0.10563748605259438,9.809425248792854,0.0,0.0,0.0,0.0,0.0,0.0,0.0,0.0,0.0
2025/05/21 13:30:36.950248573,1747827036,134906146,mA1/imu,0.4438365021174555,0.8961074247080055,0.0006075498808404613,0.0005231199388048425,0.0,0.0,0.0,0.0,0.0,0.0,0.0,0.0,0.0,-0.0001945504684899377,0.0005245714453076366,0.005660335961108325,0.0,0.0,0.0,0.0,0.0,0.0,0.0,0.0,0.0,0.0015663744752638757,0.5901417660658924,9.809752701771313,0.0,0.0,0.0,0.0,0.0,0.0,0.0,0.0,0.0
2025/05/21 13:30:36.962556354,1747827036,184758093,mA1/imu,0.4439635421424513,0.8960444885611019,0.0006167280973021145,0.0005171209293156212,0.0,0.0,0.0,0.0,0.0,0.0,0.0,0.0,0.0,-0.000370623185330537,0.0002622326763679651,0.005678645060725875,0.0,0.0,0.0,0.0,0.0,0.0,0.0,0.0,0.0,0.0017260413157756142,0.028853802804600835,9.810062191237101,0.0,0.0,0.0,0.0,0.0,0.0,0.0,0.0,0.0
2025/05/21 13:30:36.972009816,1747827036,236359325,mA1/imu,0.4440909860394213,0.895981333054514,0.0006178034507637016,0.0005150294036444598,0.0,0.0,0.0,0.0,0.0,0.0,0.0,0.0,0.0,0.0006475381859850123,-2.4118602704642147e-05,0.005696518881756904,0.0,0.0,0.0,0.0,0.0,0.0,0.0,0.0,0.0,0.0016507808145327552,-0.264317721769334,9.809071789097716,0.0,0.0,0.0,0.0,0.0,0.0,0.0,0.0,0.0
2025/05/21 13:30:37.828296570,1747827036,875604953,mA1/imu,0.4456856565020393,0.895188882078551,0.0006591893932064106,0.0008523266065482581,0.0,0.0,0.0,0.0,0.0,0.0,0.0,0.0,0.0,-0.00010524374556419156,6.164565809543716e-05,0.00531344462533308,0.0,0.0,0.0,0.0,0.0,0.0,0.0,0.0,0.0,0.0018636123814520407,-0.15101020710276583,9.80933688756299,0.0,0.0,0.0,0.0,0.0,0.0,0.0,0.0,0.0
2025/05/21 13:30:37.830026556,1747827036,926564315,mA1/imu,0.44580436697834797,0.895129779601502,0.0006569299346582944,0.0008440951734366852,0.0,0.0,0.0,0.0,0.0,0.0,0.0,0.0,0.0,0.0011389969060487234,0.00036852036593668867,0.0052983698907362355,0.0,0.0,0.0,0.0,0.0,0.0,0.0,0.0,0.0,0.001278368656502422,-0.5847561219805911,9.810897396540087,0.0,0.0,0.0,0.0,0.0,0.0,0.0,0.0,0.0
2025/05/21 13:30:37.838680115,1747827036,977732671,mA1/imu,0.44592272854414944,0.8950708315403946,0.000660284159079923,0.0008310945533535834,0.0,0.0,0.0,0.0,0.0,0.0,0.0,0.0,0.0,-0.0006987779824742569,0.0006234919055952804,0.005283703216586783,0.0,0.0,0.0,0.0,0.0,0.0,0.0,0.0,0.0,0.00283171120835741,0.535114730020144,9.811533228824047,0.0,0.0,0.0,0.0,0.0,0.0,0.0,0.0,0.0
2025/05/21 13:30:37.849251015,1747827037,28820533,mA1/imu,0.4460407582355611,0.8950120453639657,0.0006546068825505852,0.0008075493084486751,0.0,0.0,0.0,0.0,0.0,0.0,0.0,0.0,0.0,-0.0007628655071464539,0.0008188312190631589,0.005268561121300052,0.0,0.0,0.0,0.0,0.0,0.0,0.0,0.0,0.0,0.0034716253709714227,0.5207087973392507,9.810955824001152,0.0,0.0,0.0,0.0,0.0,0.0,0.0,0.0,0.0
2025/05/21 13:30:37.859128081,1747827037,78568194,mA1/imu,0.44616153902038624,0.8949518701828829,0.0006542371709429548,0.0007766137036904208,0.0,0.0,0.0,0.0,0.0,0.0,0.0,0.0,0.0,0.0020046329028406682,0.0013340418936944236,0.005527353781422623,0.0,0.0,0.0,0.0,0.0,0.0,0.0,0.0,0.0,-0.01229467601419833,-0.5527868287824109,9.810537424665911,0.0,0.0,0.0,0.0,0.0,0.0,0.0,0.0,0.0
2025/05/21 13:30:37.871656614,1747827037,130136727,mA1/imu,0.44628502626659255,0.8948903150767291,0.0006665924375707298,0.0007449608187292686,0.0,0.0,0.0,0.0,0.0,0.0,0.0,0.0,0.0,-3.3914555194105385e-05,0.001327765850009197,0.0055169799908893445,0.0,0.0,0.0,0.0,0.0,0.0,0.0,0.0,0.0,0.00591652012900352,-0.07198968065782148,9.813832519639917,0.0,0.0,0.0,0.0,0.0,0.0,0.0,0.0,0.0
2025/05/21 13:30:38.827957790,1747827037,876533519,mA1/imu,0.448091578728183,0.893987129749167,0.0005279181757713821,0.0008186685106781227,0.0,0.0,0.0,0.0,0.0,0.0,0.0,0.0,0.0,0.0008414441213471049,-0.0011557891344574768,0.005224898405018295,0.0,0.0,0.0,0.0,0.0,0.0,0.0,0.0,0.0,0.006746643438280549,-0.5560435757075873,9.809358640684016,0.0,0.0,0.0,0.0,0.0,0.0,0.0,0.0,0.0
2025/05/21 13:30:38.830070118,1747827037,927746628,mA1/imu,0.4482079907482727,0.8939287399438655,0.0005327432294164195,0.0008491857399295581,0.0,0.0,0.0,0.0,0.0,0.0,0.0,0.0,0.0,-0.0009468466937661323,-0.0009191278747408656,0.0051992559293397465,0.0,0.0,0.0,0.0,0.0,0.0,0.0,0.0,0.0,0.006270644302409353,-0.0441533399510895,9.812001493955139,0.0,0.0,0.0,0.0,0.0,0.0,0.0,0.0,0.0
2025/05/21 13:30:38.839088876,1747827037,977432650,mA1/imu,0.44832707012705897,0.8938689989206142,0.0005425154828449772,0.0008698487783802785,0.0,0.0,0.0,0.0,0.0,0.0,0.0,0.0,0.0,-0.0013345545251991526,-0.0002615202255956082,0.0054570093725776645,0.0,0.0,0.0,0.0,0.0,0.0,0.0,0.0,0.0,-0.008978234012223519,-0.06608838904938028,9.809820128369529,0.0,0.0,0.0,0.0,0.0,0.0,0.0,0.0,0.0
2025/05/21 13:30:38.849464437,1747827038,28885093,mA1/imu,0.44844865904727543,0.8938079890013265,0.0005531404100157294,0.000879222265278892,0.0,0.0,0.0,0.0,0.0,0.0,0.0,0.0,0.0,-0.0013393617860198656,-6.282887615730079e-05,0.005430729910064007,0.0,0.0,0.0,0.0,0.0,0.0,0.0,0.0,0.0,0.008640712609830976,0.40207684823717316,9.81068246809143,0.0,0.0,0.0,0.0,0.0,0.0,0.0,0.0,0.0
2025/05/21 13:30:39.483034863,1747827038,534081647,mA1/imu,0.44971466032512497,0.8931716937759699,0.0006714819475421528,0.0007738462486532567,0.0,0.0,0.0,0.0,0.0,0.0,0.0,0.0,0.0,0.00022803546194390923,8.105597192233828e-05,0.005914267634423414,0.0,0.0,0.0,0.0,0.0,0.0,0.0,0.0,0.0,0.014220839486200707,-0.03653638251269779,9.8117603072401,0.0,0.0,0.0,0.0,0.0,0.0,0.0,0.0,0.0
2025/05/21 13:30:39.485491078,1747827038,583403798,mA1/imu,0.44984627425842355,0.8931054220395604,0.0006620650465125403,0.000772223560943981,0.0,0.0,0.0,0.0,0.0,0.0,0.0,0.0,0.0,0.0004485724568255715,-0.00024603502533658984,0.005880876875366723,0.0,0.0,0.0,0.0,0.0,0.0,0.0,0.0,0.0,0.014231572732646271,-0.02790873929901857,9.808747336393589,0.0,0.0,0.0,0.0,0.0,0.0,0.0,0.0,0.0
2025/05/21 13:30:40.130277246,1747827039,179385335,mA1/imu,0.45138240704462423,0.8923300445308122,0.00044339408918734463,0.0009042344394328643,0.0,0.0,0.0,0.0,0.0,0.0,0.0,0.0,0.0,-0.0005590566509145309,6.883656969486201e-05,0.0058644690495261486,0.0,0.0,0.0,0.0,0.0,0.0,0.0,0.0,0.0,0.014216461151833087,-0.05466662427453786,9.810675995052696,0.0,0.0,0.0,0.0,0.0,0.0,0.0,0.0,0.0
2025/05/21 13:30:40.132008080,1747827039,230446525,mA1/imu,0.451512737792721,0.8922641107294874,0.0004417921501768087,0.0008995191686013418,0.0,0.0,0.0,0.0,0.0,0.0,0.0,0.0,0.0,-0.0003141304584143818,0.0001858764488969842,0.005828073999017034,0.0,0.0,0.0,0.0,0.0,0.0,0.0,0.0,0.0,0.014699686002843961,0.07245440597785163,9.811544050143276,0.0,0.0,0.0,0.0,0.0,0.0,0.0,0.0,0.0
2025/05/21 13:30:40.140376650,1747827039,280189537,mA1/imu,0.45164584780470796,0.8921967408013037,0.0004539318693977585,0.0008932021920039373,0.0,0.0,0.0,0.0,0.0,0.0,0.0,0.0,0.0,-0.00038163375521048967,0.000689692399321915,0.006106272631230824,0.0,0.0,0.0,0.0,0.0,0.0,0.0,0.0,0.0,-0.0022924965720276923,0.4167367614153092,9.814021344725921,0.0,0.0,0.0,0.0,0.0,0.0,0.0,0.0,0.0
2025/05/21 13:30:41.81263469,1747827040,129385779,mA1/imu,0.45378448244505903,0.8911107897045789,0.0005448705449104154,0.0009524076023339997,0.0,0.0,0.0,0.0,0.0,0.0,0.0,0.0,0.0,0.0024346502006241297,0.0001422083603094029,0.005459147917163261,0.0,0.0,0.0,0.0,0.0,0.0,0.0,0.0,0.0,0.01564379704187314,-0.5318762367437445,9.808587149547144,0.0,0.0,0.0,0.0,0.0,0.0,0.0,0.0,0.0
2025/05/21 13:30:41.82902987,1747827040,178796762,mA1/imu,0.4539066002671602,0.8910486171509984,0.0005300514237453009,0.0009376314254883,0.0,0.0,0.0,0.0,0.0,0.0,0.0,0.0,0.0,0.0012000183893987697,0.00032923956197934777,0.005512344513529602,0.0,0.0,0.0,0.0,0.0,0.0,0.0,0.0,0.0,0.011579306569409732,0.005358152235253592,9.808063298097506,0.0,0.0,0.0,0.0,0.0,0.0,0.0,0.0,0.0
2025/05/21 13:30:41.83880834,1747827040,230115602,mA1/imu,0.45402901360844533,0.890986278591885,0.0005118749062338289,0.0009187746222564984,0.0,0.0,0.0,0.0,0.0,0.0,0.0,0.0,0.0,0.0010567574428189488,0.00034595052208139844,0.005482142743954763,0.0,0.0,0.0,0.0,0.0,0.0,0.0,0.0,0.0,0.016799351338614273,0.6244803800641956,9.809953584551778,0.0,0.0,0.0,0.0,0.0,0.0,0.0,0.0,0.0
2025/05/21 13:30:41.92227490,1747827040,280283829,mA1/imu,0.4541507127160031,0.8909242765835096,0.0004990617314577074,0.0009024805177875256,0.0,0.0,0.0,0.0,0.0,0.0,0.0,0.0,0.0,0.0011670318189351955,0.0003362057047629985,0.005451281874771204,0.0,0.0,0.0,0.0,0.0,0.0,0.0,0.0,0.0,0.017135181003361442,0.3244108332002236,9.811430595098487,0.0,0.0,0.0,0.0,0.0,0.0,0.0,0.0,0.0
2025/05/21 13:30:41.101690745,1747827040,331821609,mA1/imu,0.45427170978736325,0.8908626055294406,0.0004909985824240056,0.0008891999515933972,0.0,0.0,0.0,0.0,0.0,0.0,0.0,0.0,0.0,0.001017670611211956,0.000307062359031266,0.005419919888817914,0.0,0.0,0.0,0.0,0.0,0.0,0.0,0.0,0.0,0.01670558029952442,-0.005506301153371685,9.81072036939907,0.0,0.0,0.0,0.0,0.0,0.0,0.0,0.0,0.0
2025/05/21 13:30:41.101867457,1747827040,381045683,mA1/imu,0.4543919902666442,0.890801282872012,0.0004783180813282305,0.0008745438291351357,0.0,0.0,0.0,0.0,0.0,0.0,0.0,0.0,0.0,0.0014456707167440784,0.0002609044509242627,0.005387345643245762,0.0,0.0,0.0,0.0,0.0,0.0,0.0,0.0,0.0,0.016762033254666978,-0.6007375093743684,9.809869489990662,0.0,0.0,0.0,0.0,0.0,0.0,0.0,0.0,0.0
2025/05/21 13:30:41.111350238,1747827040,432502231,mA1/imu,0.454511539907048,0.8907403123114709,0.0004642900149026382,0.0008605517818816489,0.0,0.0,0.0,0.0,0.0,0.0,0.0,0.0,0.0,0.0009311317539844474,0.00021845818882650477,0.005355145612205704,0.0,0.0,0.0,0.0,0.0,0.0,0.0,0.0,0.0,0.016534338369184175,0.0007611635491184057,9.811658295974954,0.0,0.0,0.0,0.0,0.0,0.0,0.0,0.0,0.0
2025/05/21 13:30:41.121805543,1747827040,482500678,mA1/imu,0.4546303349136542,0.8906797012297334,0.00045403894691405653,0.0008498483666445047,0.0,0.0,0.0,0.0,0.0,0.0,0.0,0.0,0.0,0.0007341884178585187,0.00017178965673521218,0.005320659895499565,0.0,0.0,0.0,0.0,0.0,0.0,0.0,0.0,0.0,0.016528620941747604,-0.004719759234527847,9.812222457690748,0.0,0.0,0.0,0.0,0.0,0.0,0.0,0.0,0.0
2025/05/21 13:30:42.79061917,1747827041,130124922,mA1/imu,0.4560909602115233,0.8899324859797053,0.0004829470999057239,0.0009864955198877526,0.0,0.0,0.0,0.0,0.0,0.0,0.0,0.0,0.0,8.91945290994679e-05,-0.0014522823772935146,0.003865642549610189,0.0,0.0,0.0,0.0,0.0,0.0,0.0,0.0,0.0,0.007206797526085069,-0.2687278431586889,9.806659235823124,0.0,0.0,0.0,0.0,0.0,0.0,0.0,0.0,0.0
2025/05/21 13:30:42.82298213,1747827041,179955388,mA1/imu,0.4561732753371849,0.8898902612886687,0.0004737268923788425,0.0010204482158431634,0.0,0.0,0.0,0.0,0.0,0.0,0.0,0.0,0.0,0.0004151108932251506,-0.0014300609344692948,0.003537760729689354,0.0,0.0,0.0,0.0,0.0,0.0,0.0,0.0,0.0,0.028340637814830635,-0.6019930220586595,9.806364939343094,0.0,0.0,0.0,0.0,0.0,0.0,0.0,0.0,0.0
2025/05/21 13:30:42.89992071,1747827041,231182579,mA1/imu,0.45625214631979705,0.8898497924069125,0.00047420265614734225,0.0010493158694646178,0.0,0.0,0.0,0.0,0.0,0.0,0.0,0.0,0.0,-0.0009292213501095444,-0.0007523068357198695,0.0035509172948148186,0.0,0.0,0.0,0.0,0.0,0.0,0.0,0.0,0.0,0.006539561909156234,-0.0701433546319093,9.807199120086613,0.0,0.0,0.0,0.0,0.0,0.0,0.0,0.0,0.0
2025/05/21 13:30:42.99271452,1747827041,280797590,mA1/imu,0.45633126795040624,0.8898092221008992,0.000462633245919148,0.001052675375867682,0.0,0.0,0.0,0.0,0.0,0.0,0.0,0.0,0.0,-0.0017083230531902342,-3.695521562684315e-05,0.0035593556336693923,0.0,0.0,0.0,0.0,0.0,0.0,0.0,0.0,0.0,0.0064604482573740445,0.49979620686052834,9.80776234677718,0.0,0.0,0.0,0.0,0.0,0.0,0.0,0.0,0.0
2025/05/21 13:30:42.107532260,1747827041,332343576,mA1/imu,0.45641059110963167,0.8897685529986535,0.00045881456800377416,0.0010411084626232654,0.0,0.0,0.0,0.0,0.0,0.0,0.0,0.0,0.0,0.0019348740750689845,0.0006106748500075993,0.0035692307837593127,0.0,0.0,0.0,0.0,0.0,0.0,0.0,0.0,0.0,0.006299422803371861,0.1140806519194742,9.808516773690844,0.0,0.0,0.0,0.0,0.0,0.0,0.0,0.0,0.0
2025/05/21 13:30:42.117869421,1747827041,381613719,mA1/imu,0.4564906508120672,0.889727490981624,0.0004804992012598623,0.0010230509455232879,0.0,0.0,0.0,0.0,0.0,0.0,0.0,0.0,0.0,0.0008002559676563619,0.0012969309354533293,0.003632280705166376,0.0,0.0,0.0,0.0,0.0,0.0,0.0,0.0,0.0,0.004602208621267702,-0.6046108552774078,9.80879383636213,0.0,0.0,0.0,0.0,0.0,0.0,0.0,0.0,0.0
2025/05/21 13:30:42.129405517,1747827041,432851198,mA1/imu,0.45657150460535456,0.8896860404399516,0.0004930075915581376,0.0009836524784309613,0.0,0.0,0.0,0.0,0.0,0.0,0.0,0.0,0.0,0.0011322473151173453,0.0018244461717033527,0.0036376032498788738,0.0,0.0,0.0,0.0,0.0,0.0,0.0,0.0,0.0,0.008286885480710746,-0.5871493905559153,9.808471289574896,0.0,0.0,0.0,0.0,0.0,0.0,0.0,0.0,0.0
2025/05/21 13:30:43.79241931,1747827042,130195096,mA1/imu,0.457574839317187,0.8891707440977202,0.0005542740473328002,0.0005891051158113963,0.0,0.0,0.0,0.0,0.0,0.0,0.0,0.0,0.0,0.0014893219411293776,-0.0013622783863847998,0.0031895909251390994,0.0,0.0,0.0,0.0,0.0,0.0,0.0,0.0,0.0,0.01019648731833183,-0.5362478975739026,9.808327893411166,0.0,0.0,0.0,0.0,0.0,0.0,0.0,0.0,0.0
