time,header_stamp_secs,header_stamp_nsecs,header_frame_id,orientation_x,orientation_y,orientation_z,orientation_w,orientation_covariance_0,orientation_covariance_1,orientation_covariance_2,orientation_covariance_3,orientation_covariance_4,orientation_covariance_5,orientation_covariance_6,orientation_covariance_7,orientation_covariance_8,angular_velocity_x,angular_velocity_y,angular_velocity_z,angular_velocity_covariance_0,angular_velocity_covariance_1,angular_velocity_covariance_2,angular_velocity_covariance_3,angular_velocity_covariance_4,angular_velocity_covariance_5,angular_velocity_covariance_6,angular_velocity_covariance_7,angular_velocity_covariance_8,linear_acceleration_x,linear_acceleration_y,linear_acceleration_z,linear_acceleration_covariance_0,linear_acceleration_covariance_1,linear_acceleration_covariance_2,linear_acceleration_covariance_3,linear_acceleration_covariance_4,linear_acceleration_covariance_5,linear_acceleration_covariance_6,linear_acceleration_covariance_7,linear_acceleration_covariance_8
2025/05/20 12:49:33.211771163,1747738173,211201976,mA1/imu,-0.7073875262957678,-0.7068254299253509,0.000832433279199956,-7.941556867948441e-05,0.0,0.0,0.0,0.0,0.0,0.0,0.0,0.0,0.0,-0.0005431683616698334,1.2750425335017193e-06,0.000704384614063104,0.0,0.0,0.0,0.0,0.0,0.0,0.0,0.0,0.0,0.20469085310283114,-0.029092937486972142,9.844388776112575,0.0,0.0,0.0,0.0,0.0,0.0,0.0,0.0,0.0
2025/05/20 12:49:33.261406794,1747738173,261087061,mA1/imu,-0.7073971470037379,-0.7068158010430857,0.0008323917884888474,-8.325084792804363e-05,0.0,0.0,0.0,0.0,0.0,0.0,0.0,0.0,0.0,-0.0007500604166541674,-0.000655967536526772,0.00025363374243322814,0.0,0.0,0.0,0.0,0.0,0.0,0.0,0.0,0.0,-0.04159090508109723,0.2528994348999928,9.821352508686417,0.0,0.0,0.0,0.0,0.0,0.0,0.0,0.0,0.0
2025/05/20 12:49:33.314363504,1747738173,312750766,mA1/imu,-0.7073970881763157,-0.7068158486894073,0.0008397448968049954,-0.00010251658920840747,0.0,0.0,0.0,0.0,0.0,0.0,0.0,0.0,0.0,-0.0010636294823421057,-0.0012348435426550828,-0.0005586903007581399,0.0,0.0,0.0,0.0,0.0,0.0,0.0,0.0,0.0,-0.0693301083390371,-0.0681030501104706,9.81371926827525,0.0,0.0,0.0,0.0,0.0,0.0,0.0,0.0,0.0
2025/05/20 12:49:33.364538046,1747738173,363640424,mA1/imu,-0.707387104201798,-0.7068258172183866,0.0008560854582858473,-0.00012665007839662758,0.0,0.0,0.0,0.0,0.0,0.0,0.0,0.0,0.0,-0.0016661098442149861,-0.0010609324639913745,-0.000565185550244189,0.0,0.0,0.0,0.0,0.0,0.0,0.0,0.0,0.0,0.020025303525432935,0.7237074619779604,9.80406738043762,0.0,0.0,0.0,0.0,0.0,0.0,0.0,0.0,0.0
2025/05/20 12:49:33.415565555,1747738173,415084597,mA1/imu,-0.7073871325314387,-0.7068257993406342,0.0008487799588510093,-0.00011699574184571333,0.0,0.0,0.0,0.0,0.0,0.0,0.0,0.0,0.0,-0.00013523409875290245,0.0005021103404529706,-2.6192666769257743e-05,0.0,0.0,0.0,0.0,0.0,0.0,0.0,0.0,0.0,0.020061771534738402,0.4068641016675723,9.80579063047136,0.0,0.0,0.0,0.0,0.0,0.0,0.0,0.0,0.0
2025/05/20 12:49:33.465452835,1747738173,464819601,mA1/imu,-0.7073876774782842,-0.706825258188246,0.0008451408264051109,-0.00011779635700609893,0.0,0.0,0.0,0.0,0.0,0.0,0.0,0.0,0.0,0.00038047376294306635,-2.2372209827344863e-05,1.1565511698182677e-05,0.0,0.0,0.0,0.0,0.0,0.0,0.0,0.0,0.0,0.02053603593715568,0.07561018470362667,9.80272098310933,0.0,0.0,0.0,0.0,0.0,0.0,0.0,0.0,0.0
2025/05/20 12:49:33.516317329,1747738173,515985558,mA1/imu,-0.7073876097458685,-0.7068253196170668,0.0008505550968180656,-0.00011697130226831937,0.0,0.0,0.0,0.0,0.0,0.0,0.0,0.0,0.0,0.000326823839204904,-0.0006315069560202598,4.020722843304527e-05,0.0,0.0,0.0,0.0,0.0,0.0,0.0,0.0,0.0,0.08218222959897846,-0.6047626130507012,9.750523659071247,0.0,0.0,0.0,0.0,0.0,0.0,0.0,0.0,0.0
2025/05/20 12:49:33.566261251,1747738173,566023700,mA1/imu,-0.7073876022921546,-0.7068253275466435,0.0008500173277643972,-0.00011803592408557483,0.0,0.0,0.0,0.0,0.0,0.0,0.0,0.0,0.0,-0.0002904835916988255,2.3736249624744924e-07,7.746502009451803e-07,0.0,0.0,0.0,0.0,0.0,0.0,0.0,0.0,0.0,-0.01057179591649045,-0.01862730758381815,9.835612978801665,0.0,0.0,0.0,0.0,0.0,0.0,0.0,0.0,0.0
2025/05/20 12:49:33.618216010,1747738173,617750859,mA1/imu,-0.7073873277469366,-0.706825611086922,0.0008428440569060201,-0.00011691254488755624,0.0,0.0,0.0,0.0,0.0,0.0,0.0,0.0,0.0,-0.000671540215766188,6.887105429594612e-07,-1.07439930325945e-05,0.0,0.0,0.0,0.0,0.0,0.0,0.0,0.0,0.0,0.020847061220729782,-0.3937277003002501,9.861144500544475,0.0,0.0,0.0,0.0,0.0,0.0,0.0,0.0,0.0
2025/05/20 12:49:33.668129277,1747738173,667887358,mA1/imu,-0.7073871892372274,-0.7068257380903812,0.0008539695363162259,-0.00010588708172200317,0.0,0.0,0.0,0.0,0.0,0.0,0.0,0.0,0.0,0.00013553922910885616,6.0440927724243134e-05,-1.5411243501326956e-05,0.0,0.0,0.0,0.0,0.0,0.0,0.0,0.0,0.0,0.019921613382853382,0.3433041312306803,9.802384215407745,0.0,0.0,0.0,0.0,0.0,0.0,0.0,0.0,0.0
2025/05/20 12:49:33.719318538,1747738173,719060666,mA1/imu,-0.7073868311388971,-0.7068261015104078,0.0008490775650400446,-0.00011145472848267526,0.0,0.0,0.0,0.0,0.0,0.0,0.0,0.0,0.0,0.00034809279464553854,2.5559142835756806e-05,-1.8873854434765161e-06,0.0,0.0,0.0,0.0,0.0,0.0,0.0,0.0,0.0,0.02028857495790619,-0.07894441415002909,9.801791520528093,0.0,0.0,0.0,0.0,0.0,0.0,0.0,0.0,0.0
2025/05/20 12:49:33.769896073,1747738173,769461213,mA1/imu,-0.7073877443601636,-0.7068251873486859,0.0008495911502017176,-0.000108873378329672,0.0,0.0,0.0,0.0,0.0,0.0,0.0,0.0,0.0,0.0007671493344205603,0.00015506401459201903,6.499232978864085e-06,0.0,0.0,0.0,0.0,0.0,0.0,0.0,0.0,0.0,0.01985406251384466,-0.26869616610410013,9.799791719038472,0.0,0.0,0.0,0.0,0.0,0.0,0.0,0.0,0.0
2025/05/20 12:49:33.819869046,1747738173,819616324,mA1/imu,-0.7073857351941293,-0.7068271951652408,0.0008528334485688535,-0.00010243929204608416,0.0,0.0,0.0,0.0,0.0,0.0,0.0,0.0,0.0,0.0013998562611422405,-3.418710179564561e-05,-0.0002789945661726395,0.0,0.0,0.0,0.0,0.0,0.0,0.0,0.0,0.0,0.02089586171682465,-0.4227243072511349,9.80015191737711,0.0,0.0,0.0,0.0,0.0,0.0,0.0,0.0,0.0
2025/05/20 12:49:33.870008682,1747738173,869627607,mA1/imu,-0.7073864514174287,-0.7068264846588904,0.0008482941373267245,-9.660677893906809e-05,0.0,0.0,0.0,0.0,0.0,0.0,0.0,0.0,0.0,-0.00015138383874128617,0.000924339264749971,0.0006374242975446618,0.0,0.0,0.0,0.0,0.0,0.0,0.0,0.0,0.0,0.03620925604501015,-0.0829433864713421,9.819202621126575,0.0,0.0,0.0,0.0,0.0,0.0,0.0,0.0,0.0
2025/05/20 12:49:33.912917794,1747738173,912579693,mA1/imu,-0.7073967054627925,-0.7068162313002332,0.0008430585933102126,-7.431776779617339e-05,0.0,0.0,0.0,0.0,0.0,0.0,0.0,0.0,0.0,0.00010721627461390076,-3.230978360541811e-05,0.0004210428755851481,0.0,0.0,0.0,0.0,0.0,0.0,0.0,0.0,0.0,0.008637788687573873,-0.1290635129324223,9.849602885739163,0.0,0.0,0.0,0.0,0.0,0.0,0.0,0.0,0.0
2025/05/20 12:49:33.962871905,1747738173,962749584,mA1/imu,-0.707395001107293,-0.7068179340882466,0.0008452551904077657,-7.748095911356743e-05,0.0,0.0,0.0,0.0,0.0,0.0,0.0,0.0,0.0,-0.0001507298319971296,-0.00036909841227053823,-0.00029586173288663345,0.0,0.0,0.0,0.0,0.0,0.0,0.0,0.0,0.0,0.025155600163621075,0.024555386849038734,9.831104757258384,0.0,0.0,0.0,0.0,0.0,0.0,0.0,0.0,0.0
2025/05/20 12:49:34.14232351,1747738174,13740508,mA1/imu,-0.7073873320069946,-0.7068255777786676,0.000869667616727194,-9.376627951181979e-05,0.0,0.0,0.0,0.0,0.0,0.0,0.0,0.0,0.0,0.00017935518190850954,-0.001100798634880933,-0.0001927131746313824,0.0,0.0,0.0,0.0,0.0,0.0,0.0,0.0,0.0,0.06524161924115143,-0.09305501233105923,9.798320512774826,0.0,0.0,0.0,0.0,0.0,0.0,0.0,0.0,0.0
2025/05/20 12:49:34.64481685,1747738174,64044558,mA1/imu,-0.7073873263057343,-0.7068255807263014,0.0008726488168501577,-8.65851824431317e-05,0.0,0.0,0.0,0.0,0.0,0.0,0.0,0.0,0.0,0.001106104329792467,0.0003072062578123434,-3.708208504374708e-05,0.0,0.0,0.0,0.0,0.0,0.0,0.0,0.0,0.0,0.020269856375742124,-0.43218251425853216,9.801779638544232,0.0,0.0,0.0,0.0,0.0,0.0,0.0,0.0,0.0
2025/05/20 12:49:34.115453041,1747738174,115073793,mA1/imu,-0.7073875298603827,-0.7068253845095183,0.0008671716208491988,-8.015221737556628e-05,0.0,0.0,0.0,0.0,0.0,0.0,0.0,0.0,0.0,0.0005324532494584464,-1.4808872467158989e-06,0.0001899792440441329,0.0,0.0,0.0,0.0,0.0,0.0,0.0,0.0,0.0,0.06795572109033662,-0.640488671423762,9.828976930514353,0.0,0.0,0.0,0.0,0.0,0.0,0.0,0.0,0.0
2025/05/20 12:49:34.165097677,1747738174,164917212,mA1/imu,-0.7073875207376803,-0.7068253932686388,0.0008678662788833287,-7.578491719752905e-05,0.0,0.0,0.0,0.0,0.0,0.0,0.0,0.0,0.0,-0.00012693777282656076,9.22484479949124e-08,-6.967835151081436e-06,0.0,0.0,0.0,0.0,0.0,0.0,0.0,0.0,0.0,-0.00363230167027768,-0.01567371572687198,9.838310234042625,0.0,0.0,0.0,0.0,0.0,0.0,0.0,0.0,0.0
2025/05/20 12:49:34.216333632,1747738174,216140959,mA1/imu,-0.7073848062235262,-0.7068281151051818,0.00086438256865637,-6.681118849719123e-05,0.0,0.0,0.0,0.0,0.0,0.0,0.0,0.0,0.0,-0.00013269557677258662,0.0009245269482893805,0.0006653755231403947,0.0,0.0,0.0,0.0,0.0,0.0,0.0,0.0,0.0,0.03905206553635133,-0.40288692574064705,9.828914691331292,0.0,0.0,0.0,0.0,0.0,0.0,0.0,0.0,0.0
2025/05/20 12:49:34.267877213,1747738174,266245408,mA1/imu,-0.7073937677292481,-0.7068191638992872,0.0008514684134948526,-4.3864243606384914e-05,0.0,0.0,0.0,0.0,0.0,0.0,0.0,0.0,0.0,0.0002792719819421365,0.0007985693508095256,0.00037460686917120326,0.0,0.0,0.0,0.0,0.0,0.0,0.0,0.0,0.0,0.011885948028067953,0.05606441330171303,9.820521884005782,0.0,0.0,0.0,0.0,0.0,0.0,0.0,0.0,0.0
2025/05/20 12:49:34.317557186,1747738174,317205961,mA1/imu,-0.7073935667525089,-0.7068193647987671,0.0008519368551146314,-3.829133387367678e-05,0.0,0.0,0.0,0.0,0.0,0.0,0.0,0.0,0.0,-0.0003051127814213765,0.0003732428713237234,-0.00020357217095485122,0.0,0.0,0.0,0.0,0.0,0.0,0.0,0.0,0.0,-0.022275438978009154,0.012021745740763434,9.789499075804928,0.0,0.0,0.0,0.0,0.0,0.0,0.0,0.0,0.0
2025/05/20 12:49:34.367304098,1747738174,367017493,mA1/imu,-0.7073853259843094,-0.7068276030266003,0.0008589690505178954,-4.851714244435713e-05,0.0,0.0,0.0,0.0,0.0,0.0,0.0,0.0,0.0,-0.0001518494402474826,-0.0006084524456329427,-0.00026529105774542684,0.0,0.0,0.0,0.0,0.0,0.0,0.0,0.0,0.0,0.056352671670444617,0.026441536958905457,9.786427523559583,0.0,0.0,0.0,0.0,0.0,0.0,0.0,0.0,0.0
2025/05/20 12:49:34.418227388,1747738174,417983665,mA1/imu,-0.7073876127840801,-0.7068253178665529,0.0008563359694548002,-4.462279697300188e-05,0.0,0.0,0.0,0.0,0.0,0.0,0.0,0.0,0.0,-0.00017789068975041858,0.0005830007002254106,0.0005254369845465215,0.0,0.0,0.0,0.0,0.0,0.0,0.0,0.0,0.0,0.01688767774481351,0.012277144286372561,9.819615325305625,0.0,0.0,0.0,0.0,0.0,0.0,0.0,0.0,0.0
2025/05/20 12:49:34.468289388,1747738174,467852960,mA1/imu,-0.7073945127954419,-0.7068184158889836,0.000853872225192097,-3.360521162124367e-05,0.0,0.0,0.0,0.0,0.0,0.0,0.0,0.0,0.0,-8.882820023679561e-05,-0.0005565952402853065,-8.273706670550243e-05,0.0,0.0,0.0,0.0,0.0,0.0,0.0,0.0,0.0,-0.07811401139460801,-0.5596675369668952,9.839565853115122,0.0,0.0,0.0,0.0,0.0,0.0,0.0,0.0,0.0
2025/05/20 12:49:34.519880335,1747738174,519688052,mA1/imu,-0.707391912559573,-0.7068210136982257,0.000857356303553097,-3.975035674387388e-05,0.0,0.0,0.0,0.0,0.0,0.0,0.0,0.0,0.0,-0.0008400661569513293,-0.0002578308425639809,-0.00015301816478218368,0.0,0.0,0.0,0.0,0.0,0.0,0.0,0.0,0.0,0.020700588926571242,0.12992729633423808,9.80402441011538,0.0,0.0,0.0,0.0,0.0,0.0,0.0,0.0,0.0
2025/05/20 12:49:34.569682331,1747738174,569451404,mA1/imu,-0.7073742959625946,-0.7068386029067047,0.0008888577174709176,-6.91684869330833e-05,0.0,0.0,0.0,0.0,0.0,0.0,0.0,0.0,0.0,0.0001938783874263563,-0.0016945077370548304,-0.000990859982649133,0.0,0.0,0.0,0.0,0.0,0.0,0.0,0.0,0.0,0.021124517348311528,0.19109415288124565,9.804326274058164,0.0,0.0,0.0,0.0,0.0,0.0,0.0,0.0,0.0
2025/05/20 12:49:34.621082006,1747738174,620512901,mA1/imu,-0.7073686658554473,-0.7068442306432866,0.0008934050265979199,-7.745736338496596e-05,0.0,0.0,0.0,0.0,0.0,0.0,0.0,0.0,0.0,0.0012538158238919969,-9.455139624050846e-05,-0.0001435634560271862,0.0,0.0,0.0,0.0,0.0,0.0,0.0,0.0,0.0,0.019929011825995553,-0.3773008102898285,9.802718990117379,0.0,0.0,0.0,0.0,0.0,0.0,0.0,0.0,0.0
2025/05/20 12:49:34.670631071,1747738174,670367807,mA1/imu,-0.707379228285308,-0.7068336863931713,0.0008730994067937454,-6.976924889608865e-05,0.0,0.0,0.0,0.0,0.0,0.0,0.0,0.0,0.0,0.0005474872162567584,0.0010506612865218493,0.0009405076668194243,0.0,0.0,0.0,0.0,0.0,0.0,0.0,0.0,0.0,0.019192357120494254,-0.4233461657098355,9.800855957762353,0.0,0.0,0.0,0.0,0.0,0.0,0.0,0.0,0.0
2025/05/20 12:49:34.715854556,1747738174,712669959,mA1/imu,-0.7073924793267659,-0.7068204424322794,0.0008589290941672474,-6.776857181006138e-05,0.0,0.0,0.0,0.0,0.0,0.0,0.0,0.0,0.0,-0.00022187371072981938,-0.00036455209534131566,0.00031494761485018237,0.0,0.0,0.0,0.0,0.0,0.0,0.0,0.0,0.0,-0.10235049891333954,-0.2978940933377278,9.762253497597035,0.0,0.0,0.0,0.0,0.0,0.0,0.0,0.0,0.0
2025/05/20 12:49:34.762827922,1747738174,762444951,mA1/imu,-0.7073933378745446,-0.706819573649956,0.0008652573600283629,-8.465049148233359e-05,0.0,0.0,0.0,0.0,0.0,0.0,0.0,0.0,0.0,-0.0004789786194452112,-0.001612061519519724,-0.0004109040734031896,0.0,0.0,0.0,0.0,0.0,0.0,0.0,0.0,0.0,-0.05273505931833466,-0.29029051632826774,9.805501393630731,0.0,0.0,0.0,0.0,0.0,0.0,0.0,0.0,0.0
2025/05/20 12:49:34.813869077,1747738174,813640324,mA1/imu,-0.7073857983140591,-0.7068270991102326,0.000878799595077883,-0.00010962785394908825,0.0,0.0,0.0,0.0,0.0,0.0,0.0,0.0,0.0,-0.0006747820381229458,-0.0003182744850853021,-0.00027188083085255354,0.0,0.0,0.0,0.0,0.0,0.0,0.0,0.0,0.0,-0.034551361989380414,0.09149255999396709,9.854073910699402,0.0,0.0,0.0,0.0,0.0,0.0,0.0,0.0,0.0
2025/05/20 12:49:34.865090446,1747738174,863707635,mA1/imu,-0.7073905987347896,-0.7068223087396798,0.0008692867981816151,-9.502635078267738e-05,0.0,0.0,0.0,0.0,0.0,0.0,0.0,0.0,0.0,0.00048586876945888824,0.0008330421547402466,0.00023996411982640873,0.0,0.0,0.0,0.0,0.0,0.0,0.0,0.0,0.0,0.015158354841662685,0.1893548078764733,9.803431932452833,0.0,0.0,0.0,0.0,0.0,0.0,0.0,0.0,0.0
2025/05/20 12:49:34.918396594,1747738174,917987853,mA1/imu,-0.7073863278074208,-0.7068265763129619,0.0008742267634150108,-9.988190476163927e-05,0.0,0.0,0.0,0.0,0.0,0.0,0.0,0.0,0.0,0.0016677741723695636,-0.000372717866256628,-0.0004742354054720562,0.0,0.0,0.0,0.0,0.0,0.0,0.0,0.0,0.0,0.014745659140759272,-0.3590417894476602,9.80077264408673,0.0,0.0,0.0,0.0,0.0,0.0,0.0,0.0,0.0
2025/05/20 12:49:34.970594348,1747738174,969514470,mA1/imu,-0.7073816950833447,-0.7068312380773455,0.0008522072920043661,-0.00010991720576316308,0.0,0.0,0.0,0.0,0.0,0.0,0.0,0.0,0.0,-0.00037250918193725485,0.000762007413749259,-4.942349709792993e-06,0.0,0.0,0.0,0.0,0.0,0.0,0.0,0.0,0.0,0.053068735359109234,0.023298652378702274,9.784949122726982,0.0,0.0,0.0,0.0,0.0,0.0,0.0,0.0,0.0
2025/05/20 12:49:35.23234566,1747738175,21788282,mA1/imu,-0.7073900134919505,-0.7068229402224672,0.0008302419218980666,-0.00010337057459013977,0.0,0.0,0.0,0.0,0.0,0.0,0.0,0.0,0.0,-5.3937198198924296e-05,6.653117528554399e-05,0.0007123480280543182,0.0,0.0,0.0,0.0,0.0,0.0,0.0,0.0,0.0,0.012151536824849214,-0.12167991586885003,9.799174943268444,0.0,0.0,0.0,0.0,0.0,0.0,0.0,0.0,0.0
2025/05/20 12:49:35.63052200,1747738175,61630709,mA1/imu,-0.7074010439448732,-0.706811898509839,0.000832031871726151,-0.00010427648353809253,0.0,0.0,0.0,0.0,0.0,0.0,0.0,0.0,0.0,-0.0002711548396761624,-0.0006847598036916012,0.00021742724933475888,0.0,0.0,0.0,0.0,0.0,0.0,0.0,0.0,0.0,-0.07090527854325664,-0.3789965234063927,9.802190497547944,0.0,0.0,0.0,0.0,0.0,0.0,0.0,0.0,0.0
2025/05/20 12:49:35.117157205,1747738175,114080209,mA1/imu,-0.707403521171599,-0.7068094031043775,0.0008434718146538493,-0.0001203019308330245,0.0,0.0,0.0,0.0,0.0,0.0,0.0,0.0,0.0,-0.000989312458331486,-0.0013778904213427477,-2.3511292637283033e-05,0.0,0.0,0.0,0.0,0.0,0.0,0.0,0.0,0.0,-0.019843717605514778,-0.23107312716159767,9.832078126156915,0.0,0.0,0.0,0.0,0.0,0.0,0.0,0.0,0.0
2025/05/20 12:49:35.166062372,1747738175,165514125,mA1/imu,-0.7073967172822806,-0.7068161780527833,0.0008665590905626477,-0.00015458477276235685,0.0,0.0,0.0,0.0,0.0,0.0,0.0,0.0,0.0,-0.001883345088473085,-0.001475934085418618,-0.00036846431223126703,0.0,0.0,0.0,0.0,0.0,0.0,0.0,0.0,0.0,0.016652108277042676,0.6868484858360915,9.799035727123426,0.0,0.0,0.0,0.0,0.0,0.0,0.0,0.0,0.0
2025/05/20 12:49:35.216019979,1747738175,215623425,mA1/imu,-0.7073845670082369,-0.7068282907647235,0.0008944955561213636,-0.00020398747181155053,0.0,0.0,0.0,0.0,0.0,0.0,0.0,0.0,0.0,-0.0017642554880259924,-0.0020364217998381237,-0.0006788248486929615,0.0,0.0,0.0,0.0,0.0,0.0,0.0,0.0,0.0,0.018172343289308196,0.713614241760106,9.798740491233541,0.0,0.0,0.0,0.0,0.0,0.0,0.0,0.0,0.0
2025/05/20 12:49:35.266115060,1747738175,265783011,mA1/imu,-0.7073953300550198,-0.7068175419922241,0.0008786034955084948,-0.00019340196008803696,0.0,0.0,0.0,0.0,0.0,0.0,0.0,0.0,0.0,-0.0012496756127042185,0.0009378910805851324,0.0006265389107888564,0.0,0.0,0.0,0.0,0.0,0.0,0.0,0.0,0.0,0.01686193323477248,0.6947927380282792,9.798103731349398,0.0,0.0,0.0,0.0,0.0,0.0,0.0,0.0,0.0
2025/05/20 12:49:35.317238537,1747738175,316892305,mA1/imu,-0.7074068655820134,-0.7068060385447577,0.0008463981056801735,-0.00018442978269591574,0.0,0.0,0.0,0.0,0.0,0.0,0.0,0.0,0.0,-0.0006216215731727255,0.0013192137995902892,0.0006683324388464991,0.0,0.0,0.0,0.0,0.0,0.0,0.0,0.0,0.0,0.01648931942218676,0.16758573180939848,9.797216428545372,0.0,0.0,0.0,0.0,0.0,0.0,0.0,0.0,0.0
2025/05/20 12:49:35.368070194,1747738175,367408063,mA1/imu,-0.7074049378835572,-0.7068079573890595,0.0008504488354126975,-0.00020485664296724797,0.0,0.0,0.0,0.0,0.0,0.0,0.0,0.0,0.0,-0.00031912395727824977,-0.00043183818705082343,-0.00014425804094568329,0.0,0.0,0.0,0.0,0.0,0.0,0.0,0.0,0.0,0.017818666899362182,0.15047003375161666,9.798905311856446,0.0,0.0,0.0,0.0,0.0,0.0,0.0,0.0,0.0
2025/05/20 12:49:35.419132630,1747738175,418920288,mA1/imu,-0.7073967784442693,-0.7068161130970416,0.0008501438569906453,-0.00023951718476955254,0.0,0.0,0.0,0.0,0.0,0.0,0.0,0.0,0.0,-0.0010257670546374284,-0.002237747186286556,-0.0009976375625603735,0.0,0.0,0.0,0.0,0.0,0.0,0.0,0.0,0.0,0.03729222190446704,0.020111036962534204,9.826632851425943,0.0,0.0,0.0,0.0,0.0,0.0,0.0,0.0,0.0
2025/05/20 12:49:35.469552930,1747738175,468573303,mA1/imu,-0.7073804771902746,-0.706832383324614,0.0008735770258066006,-0.00028149047123094393,0.0,0.0,0.0,0.0,0.0,0.0,0.0,0.0,0.0,-0.001851950318237351,-0.0012088737062200343,-0.0007917903858684199,0.0,0.0,0.0,0.0,0.0,0.0,0.0,0.0,0.0,-0.015971217658727197,0.01955468458527687,9.830250827464276,0.0,0.0,0.0,0.0,0.0,0.0,0.0,0.0,0.0
2025/05/20 12:49:35.519810249,1747738175,519460244,mA1/imu,-0.7073767403978436,-0.706836132362658,0.0008682035763073563,-0.0002745055019703969,0.0,0.0,0.0,0.0,0.0,0.0,0.0,0.0,0.0,-0.00034111408904925256,0.0005725306426045502,7.447408178931151e-05,0.0,0.0,0.0,0.0,0.0,0.0,0.0,0.0,0.0,0.052915068856060295,0.02162655984568191,9.782301564749668,0.0,0.0,0.0,0.0,0.0,0.0,0.0,0.0,0.0
2025/05/20 12:49:35.569956303,1747738175,569292840,mA1/imu,-0.7073919397055602,-0.7068209789804115,0.0008307403633088025,-0.00023913014566469975,0.0,0.0,0.0,0.0,0.0,0.0,0.0,0.0,0.0,-0.0003500715272293377,0.0023404755934966037,0.0008932335878388626,0.0,0.0,0.0,0.0,0.0,0.0,0.0,0.0,0.0,0.016368630414094577,0.7594072188594571,9.800313119623013,0.0,0.0,0.0,0.0,0.0,0.0,0.0,0.0,0.0
2025/05/20 12:49:35.620750715,1747738175,620355297,mA1/imu,-0.7074042848276114,-0.7068086524550983,0.000809215463441895,-0.00022757960723201933,0.0,0.0,0.0,0.0,0.0,0.0,0.0,0.0,0.0,0.0006104264675961522,0.00011277326202566673,0.00047902637715879504,0.0,0.0,0.0,0.0,0.0,0.0,0.0,0.0,0.0,0.01905728879887553,0.020119888827694575,9.825268701562564,0.0,0.0,0.0,0.0,0.0,0.0,0.0,0.0,0.0
2025/05/20 12:49:35.671515448,1747738175,670089040,mA1/imu,-0.7074030711611361,-0.7068098637358909,0.0008116394871202216,-0.00022951859889463387,0.0,0.0,0.0,0.0,0.0,0.0,0.0,0.0,0.0,0.000925303060407724,-0.0006269875988396868,-0.0003598469449761712,0.0,0.0,0.0,0.0,0.0,0.0,0.0,0.0,0.0,0.017477610985505092,-0.46197424488315814,9.799582854803488,0.0,0.0,0.0,0.0,0.0,0.0,0.0,0.0,0.0
2025/05/20 12:49:35.711982001,1747738175,711348192,mA1/imu,-0.7073974964895867,-0.7068154367619713,0.0008138136455240955,-0.0002408788060297678,0.0,0.0,0.0,0.0,0.0,0.0,0.0,0.0,0.0,-0.00018008914094697488,-0.00022992793242365277,-0.0002847879072659776,0.0,0.0,0.0,0.0,0.0,0.0,0.0,0.0,0.0,0.01691484337158982,-0.4834291174339434,9.800492819920734,0.0,0.0,0.0,0.0,0.0,0.0,0.0,0.0,0.0
2025/05/20 12:49:35.762408783,1747738175,761723424,mA1/imu,-0.7073873356726273,-0.7068255839828158,0.0008259650442566106,-0.0002625625231309416,0.0,0.0,0.0,0.0,0.0,0.0,0.0,0.0,0.0,-0.0009135647411387881,-0.0015388236957539372,-0.0011661457863980003,0.0,0.0,0.0,0.0,0.0,0.0,0.0,0.0,0.0,-0.06680029504733907,0.021284003859092453,9.825512977689478,0.0,0.0,0.0,0.0,0.0,0.0,0.0,0.0,0.0
2025/05/20 12:49:35.813135008,1747738175,812776960,mA1/imu,-0.7073692111128139,-0.7068436848548213,0.0008526923904139557,-0.0002779679487557319,0.0,0.0,0.0,0.0,0.0,0.0,0.0,0.0,0.0,0.00029815319495194353,-0.0004470893124386689,-0.0006988889402895198,0.0,0.0,0.0,0.0,0.0,0.0,0.0,0.0,0.0,0.052403191015231734,-0.2038740781406206,9.807643600255048,0.0,0.0,0.0,0.0,0.0,0.0,0.0,0.0,0.0
2025/05/20 12:49:35.862626989,1747738175,862397880,mA1/imu,-0.7073618607787482,-0.7068510412371515,0.0008541683702772925,-0.0002716872780592024,0.0,0.0,0.0,0.0,0.0,0.0,0.0,0.0,0.0,0.0004924171208989364,0.00028954170537554415,-0.0004264616532294391,0.0,0.0,0.0,0.0,0.0,0.0,0.0,0.0,0.0,0.03295953356756311,-0.40928884636570795,9.800185225027237,0.0,0.0,0.0,0.0,0.0,0.0,0.0,0.0,0.0
2025/05/20 12:49:35.913710712,1747738175,913476616,mA1/imu,-0.7073668140246522,-0.7068461193973861,0.0008298725671275568,-0.00025538400876731564,0.0,0.0,0.0,0.0,0.0,0.0,0.0,0.0,0.0,-0.0009135517151015529,0.0017946165870566717,0.0006191335226006386,0.0,0.0,0.0,0.0,0.0,0.0,0.0,0.0,0.0,0.024245954794709753,0.4286326525868753,9.824718690281934,0.0,0.0,0.0,0.0,0.0,0.0,0.0,0.0,0.0
2025/05/20 12:49:35.964113446,1747738175,963529157,mA1/imu,-0.7073823947881097,-0.7068305922703771,0.0007828200804783794,-0.00022037982751168378,0.0,0.0,0.0,0.0,0.0,0.0,0.0,0.0,0.0,-0.00042169201237648145,0.002637987848684349,0.0010582780316673048,0.0,0.0,0.0,0.0,0.0,0.0,0.0,0.0,0.0,0.019034653616242132,-0.2393764652212535,9.796844455230996,0.0,0.0,0.0,0.0,0.0,0.0,0.0,0.0,0.0
2025/05/20 12:49:36.14860209,1747738176,14631200,mA1/imu,-0.7073907577024049,-0.7068222475227506,0.0007648051542748373,-0.00020346297163673717,0.0,0.0,0.0,0.0,0.0,0.0,0.0,0.0,0.0,-0.00014165342724435003,0.0008227463719480281,0.00023523871286409807,0.0,0.0,0.0,0.0,0.0,0.0,0.0,0.0,0.0,-0.01559313962808495,0.008584811949143156,9.789423460823238,0.0,0.0,0.0,0.0,0.0,0.0,0.0,0.0,0.0
2025/05/20 12:49:36.64460749,1747738176,64276947,mA1/imu,-0.7073900388639016,-0.7068229770788551,0.0007566332982830327,-0.00019873490946261134,0.0,0.0,0.0,0.0,0.0,0.0,0.0,0.0,0.0,-0.00044017139512646534,0.0001920029498119345,-0.0003013873860398869,0.0,0.0,0.0,0.0,0.0,0.0,0.0,0.0,0.0,-0.016206411413356575,0.007093938688787798,9.786275644699971,0.0,0.0,0.0,0.0,0.0,0.0,0.0,0.0,0.0
2025/05/20 12:49:36.115930233,1747738176,115276337,mA1/imu,-0.7073874300265061,-0.7068256057574218,0.0007417767672812008,-0.00019145071524670856,0.0,0.0,0.0,0.0,0.0,0.0,0.0,0.0,0.0,-0.0006133804007427817,8.50093953565197e-07,0.00028411458040302374,0.0,0.0,0.0,0.0,0.0,0.0,0.0,0.0,0.0,0.18186320665892083,-0.3969985396925041,9.806152541644634,0.0,0.0,0.0,0.0,0.0,0.0,0.0,0.0,0.0
2025/05/20 12:49:36.165312299,1747738176,165026776,mA1/imu,-0.7073933095527475,-0.7068197343121471,0.0007296556491208435,-0.0001907604523728455,0.0,0.0,0.0,0.0,0.0,0.0,0.0,0.0,0.0,-0.0007448560042963647,0.0006109266777230512,0.000360879335865078,0.0,0.0,0.0,0.0,0.0,0.0,0.0,0.0,0.0,0.004563907423288998,-0.5260635074634316,9.800963104254318,0.0,0.0,0.0,0.0,0.0,0.0,0.0,0.0,0.0
2025/05/20 12:49:36.217571356,1747738176,216097118,mA1/imu,-0.7073982669469786,-0.7068147929711931,0.000712258756377347,-0.000181782740636695,0.0,0.0,0.0,0.0,0.0,0.0,0.0,0.0,0.0,-0.00029695577581505077,0.0003020185619009822,-3.750676800513671e-05,0.0,0.0,0.0,0.0,0.0,0.0,0.0,0.0,0.0,-0.01870436972349529,-0.24172825647120086,9.827991826397058,0.0,0.0,0.0,0.0,0.0,0.0,0.0,0.0,0.0
2025/05/20 12:49:36.266065951,1747738176,265730892,mA1/imu,-0.707398682303301,-0.7068143880085177,0.0007053535342960902,-0.00016630120093711275,0.0,0.0,0.0,0.0,0.0,0.0,0.0,0.0,0.0,-0.002143486741784579,0.0008877692124839675,6.533891965607822e-05,0.0,0.0,0.0,0.0,0.0,0.0,0.0,0.0,0.0,0.0033067444519120134,0.6092284865680387,9.801674068151014,0.0,0.0,0.0,0.0,0.0,0.0,0.0,0.0,0.0
2025/05/20 12:49:36.316811402,1747738176,316675768,mA1/imu,-0.7073970096786221,-0.7068160746554631,0.000693779445802067,-0.00016117216464370135,0.0,0.0,0.0,0.0,0.0,0.0,0.0,0.0,0.0,0.0006604862525099815,-0.00039777887976161707,-0.0004072880319273289,0.0,0.0,0.0,0.0,0.0,0.0,0.0,0.0,0.0,0.007484929409681149,-0.4758873542031142,9.799257750716125,0.0,0.0,0.0,0.0,0.0,0.0,0.0,0.0,0.0
2025/05/20 12:49:36.366802603,1747738176,366448666,mA1/imu,-0.7073813818715908,-0.7068317014730271,0.0007047865687366953,-0.00017219197620875438,0.0,0.0,0.0,0.0,0.0,0.0,0.0,0.0,0.0,0.0005384830340330278,-0.0006982542304175732,-0.0010419204598431588,0.0,0.0,0.0,0.0,0.0,0.0,0.0,0.0,0.0,0.008921125333546658,0.09215056477779522,9.799417157471543,0.0,0.0,0.0,0.0,0.0,0.0,0.0,0.0,0.0
2025/05/20 12:49:36.418197510,1747738176,417600438,mA1/imu,-0.7073698475413979,-0.7068432577685654,0.0006903454174536887,-0.0001765207797463912,0.0,0.0,0.0,0.0,0.0,0.0,0.0,0.0,0.0,-0.0011429869665148698,0.0014262841934171216,-0.00015055233786478916,0.0,0.0,0.0,0.0,0.0,0.0,0.0,0.0,0.0,0.0542845310826819,0.18550124334219345,9.838199496402995,0.0,0.0,0.0,0.0,0.0,0.0,0.0,0.0,0.0
2025/05/20 12:49:36.467528075,1747738176,467213982,mA1/imu,-0.7073724194371008,-0.7068407301314726,0.0006485947036631482,-0.00014755276817135087,0.0,0.0,0.0,0.0,0.0,0.0,0.0,0.0,0.0,-0.0018081575067693321,0.0021271721537922984,0.00014025978317290644,0.0,0.0,0.0,0.0,0.0,0.0,0.0,0.0,0.0,0.010713231970628005,0.6576453963338569,9.800000003021099,0.0,0.0,0.0,0.0,0.0,0.0,0.0,0.0,0.0
2025/05/20 12:49:36.518531507,1747738176,518178922,mA1/imu,-0.7073749967060938,-0.7068382030990479,0.0005948503671000244,-0.00012176946954287778,0.0,0.0,0.0,0.0,0.0,0.0,0.0,0.0,0.0,-0.001699489507403556,0.0023505288668960018,0.00015755144464861805,0.0,0.0,0.0,0.0,0.0,0.0,0.0,0.0,0.0,0.008366125992584236,0.5643315778040372,9.79828047701158,0.0,0.0,0.0,0.0,0.0,0.0,0.0,0.0,0.0
2025/05/20 12:49:36.568635705,1747738176,568026063,mA1/imu,-0.707393719048807,-0.7068195153278505,0.0005386222110828328,-9.427679229560254e-05,0.0,0.0,0.0,0.0,0.0,0.0,0.0,0.0,0.0,0.0009757942613068999,0.0010791571171131374,0.0011383114488820597,0.0,0.0,0.0,0.0,0.0,0.0,0.0,0.0,0.0,0.007809738767236406,-0.4821707838593645,9.800116226964255,0.0,0.0,0.0,0.0,0.0,0.0,0.0,0.0,0.0
2025/05/20 12:49:36.619541422,1747738176,618920929,mA1/imu,-0.7074139728644008,-0.7067992595844068,0.0005223774644160892,-6.905739323385607e-05,0.0,0.0,0.0,0.0,0.0,0.0,0.0,0.0,0.0,0.000789998053784072,0.0012199818469291034,0.0011506704187658305,0.0,0.0,0.0,0.0,0.0,0.0,0.0,0.0,0.0,0.0060326035817133625,-0.3737701003036028,9.797568599433001,0.0,0.0,0.0,0.0,0.0,0.0,0.0,0.0,0.0
2025/05/20 12:49:36.669671641,1747738176,668763605,mA1/imu,-0.70742670878298,-0.706786518713772,0.0005136271873883399,-6.965673162342262e-05,0.0,0.0,0.0,0.0,0.0,0.0,0.0,0.0,0.0,-4.646893353084325e-05,-0.00013710562147559396,0.0005035846551979271,0.0,0.0,0.0,0.0,0.0,0.0,0.0,0.0,0.0,0.009420850992432882,0.23367275394114798,9.798547307331948,0.0,0.0,0.0,0.0,0.0,0.0,0.0,0.0,0.0
2025/05/20 12:49:36.719974528,1747738176,719730238,mA1/imu,-0.7074284600317619,-0.7067847550307789,0.0005246755534819445,-9.33206049970841e-05,0.0,0.0,0.0,0.0,0.0,0.0,0.0,0.0,0.0,-0.0012442733143133234,-0.0010886410423590859,8.54547855187256e-05,0.0,0.0,0.0,0.0,0.0,0.0,0.0,0.0,0.0,0.018058191229791777,0.4702484526069725,9.810150278512848,0.0,0.0,0.0,0.0,0.0,0.0,0.0,0.0,0.0
2025/05/20 12:49:36.769717936,1747738176,769531016,mA1/imu,-0.7074205619448092,-0.7067926336738478,0.0005535641643173302,-0.00012283644556379837,0.0,0.0,0.0,0.0,0.0,0.0,0.0,0.0,0.0,0.0007637014623524604,-0.00195794231359792,-0.0007383496759821937,0.0,0.0,0.0,0.0,0.0,0.0,0.0,0.0,0.0,0.0077494247321785075,-0.12043503030196952,9.79861599511391,0.0,0.0,0.0,0.0,0.0,0.0,0.0,0.0,0.0
2025/05/20 12:49:36.820780424,1747738176,820540203,mA1/imu,-0.7074082306567571,-0.7068049506601666,0.0005736107800752806,-0.00016700906820651297,0.0,0.0,0.0,0.0,0.0,0.0,0.0,0.0,0.0,0.0012872010972303216,-0.0017183666087143854,-0.000667296580864622,0.0,0.0,0.0,0.0,0.0,0.0,0.0,0.0,0.0,0.0056728353717635386,-0.35379758909901,9.79882804934182,0.0,0.0,0.0,0.0,0.0,0.0,0.0,0.0,0.0
2025/05/20 12:49:36.871471366,1747738176,870312284,mA1/imu,-0.7073853974483233,-0.70682775062551,0.0006099169890169952,-0.00024171021019564403,0.0,0.0,0.0,0.0,0.0,0.0,0.0,0.0,0.0,0.0006842634365198016,-0.004486715709875131,-0.0019255699349704045,0.0,0.0,0.0,0.0,0.0,0.0,0.0,0.0,0.0,0.06589365722754018,-0.4511281780297131,9.79678264084231,0.0,0.0,0.0,0.0,0.0,0.0,0.0,0.0,0.0
2025/05/20 12:49:36.911689611,1747738176,911314909,mA1/imu,-0.7073615873210799,-0.7068515029339689,0.0006706574254466306,-0.0002963126885787646,0.0,0.0,0.0,0.0,0.0,0.0,0.0,0.0,0.0,0.0004708894372805334,-0.0019611069438098543,-0.0007045044485396436,0.0,0.0,0.0,0.0,0.0,0.0,0.0,0.0,0.0,-0.005742591439328971,0.0035435738510838917,9.827268473677195,0.0,0.0,0.0,0.0,0.0,0.0,0.0,0.0,0.0
2025/05/20 12:49:36.962436624,1747738176,961031575,mA1/imu,-0.7073580063528195,-0.7068550623709966,0.0006946481393455943,-0.00029851804245194474,0.0,0.0,0.0,0.0,0.0,0.0,0.0,0.0,0.0,0.0012528434121661654,-0.0004349224398337676,-9.904155048456085e-05,0.0,0.0,0.0,0.0,0.0,0.0,0.0,0.0,0.0,0.0030537912492816423,0.024566058260753608,9.800365309283244,0.0,0.0,0.0,0.0,0.0,0.0,0.0,0.0,0.0
2025/05/20 12:49:37.12358682,1747738177,11962174,mA1/imu,-0.7073577728094772,-0.7068553014644412,0.0006869161062221433,-0.0003036180047178414,0.0,0.0,0.0,0.0,0.0,0.0,0.0,0.0,0.0,-0.00016905229210476943,0.00038365556747779707,2.0951269347735616e-05,0.0,0.0,0.0,0.0,0.0,0.0,0.0,0.0,0.0,0.003966294221047228,0.04338691058920013,9.799547150247411,0.0,0.0,0.0,0.0,0.0,0.0,0.0,0.0,0.0
2025/05/20 12:49:37.62250953,1747738177,61967244,mA1/imu,-0.7073688360196516,-0.7068442750886973,0.0006506856525857973,-0.0002778681677606273,0.0,0.0,0.0,0.0,0.0,0.0,0.0,0.0,0.0,-0.0003960294441005126,0.002678296151011365,0.0011004250880808032,0.0,0.0,0.0,0.0,0.0,0.0,0.0,0.0,0.0,0.005232477489172089,-0.1581825576971327,9.800279348221753,0.0,0.0,0.0,0.0,0.0,0.0,0.0,0.0,0.0
2025/05/20 12:49:37.113087072,1747738177,112854250,mA1/imu,-0.7073894777695944,-0.7068236898251347,0.0005856711361107044,-0.00023501523945952896,0.0,0.0,0.0,0.0,0.0,0.0,0.0,0.0,0.0,-0.0022086601427580934,0.0032269678774589005,0.0011831138298807478,0.0,0.0,0.0,0.0,0.0,0.0,0.0,0.0,0.0,0.010768581700490346,0.4848179976677446,9.801695870678742,0.0,0.0,0.0,0.0,0.0,0.0,0.0,0.0,0.0
2025/05/20 12:49:37.163356077,1747738177,162867081,mA1/imu,-0.707401497773568,-0.7068116823220499,0.0005686268576733319,-0.00020819289828350474,0.0,0.0,0.0,0.0,0.0,0.0,0.0,0.0,0.0,0.0002012365540084738,0.00043728371644804413,0.0002484285830968293,0.0,0.0,0.0,0.0,0.0,0.0,0.0,0.0,0.0,-0.04260620714382412,-0.24687456012421413,9.813474483347045,0.0,0.0,0.0,0.0,0.0,0.0,0.0,0.0,0.0
2025/05/20 12:49:37.214074963,1747738177,213657832,mA1/imu,-0.707401036613849,-0.706812146040601,0.000567790325518409,-0.00020303023894577027,0.0,0.0,0.0,0.0,0.0,0.0,0.0,0.0,0.0,0.0005982316908405149,3.872655245405216e-05,-0.00020483730505769374,0.0,0.0,0.0,0.0,0.0,0.0,0.0,0.0,0.0,0.007013170409172227,-0.29712093469853074,9.801362006489166,0.0,0.0,0.0,0.0,0.0,0.0,0.0,0.0,0.0
2025/05/20 12:49:37.264092448,1747738177,263551579,mA1/imu,-0.7073964212540188,-0.7068167707043089,0.0005580522100598566,-0.0002107744523932001,0.0,0.0,0.0,0.0,0.0,0.0,0.0,0.0,0.0,-0.0018746699937151258,-0.0001958452006340524,-0.0004958362387356192,0.0,0.0,0.0,0.0,0.0,0.0,0.0,0.0,0.0,0.05267257336485709,0.6483170793446845,9.804907515530868,0.0,0.0,0.0,0.0,0.0,0.0,0.0,0.0,0.0
2025/05/20 12:49:37.318081348,1747738177,314659496,mA1/imu,-0.7073862506804616,-0.706826943944064,0.0005628623888112368,-0.00021644598832595138,0.0,0.0,0.0,0.0,0.0,0.0,0.0,0.0,0.0,-0.00011357994275521629,-0.0004823798717720124,-0.0004683459464183672,0.0,0.0,0.0,0.0,0.0,0.0,0.0,0.0,0.0,0.03568310333872991,-0.06300063494079655,9.787490143028391,0.0,0.0,0.0,0.0,0.0,0.0,0.0,0.0,0.0
2025/05/20 12:49:37.364509864,1747738177,364220542,mA1/imu,-0.7073812892642918,-0.7068319101311432,0.0005639472271231484,-0.00021067195558606986,0.0,0.0,0.0,0.0,0.0,0.0,0.0,0.0,0.0,0.0009820768996183667,0.000423245808773904,-9.463926157507109e-05,0.0,0.0,0.0,0.0,0.0,0.0,0.0,0.0,0.0,0.005814199238526487,-0.4492492336126184,9.80009552127188,0.0,0.0,0.0,0.0,0.0,0.0,0.0,0.0,0.0
2025/05/20 12:49:37.416454405,1747738177,415186232,mA1/imu,-0.707385390903728,-0.7068278358021791,0.0005323201616105808,-0.00018948992933887147,0.0,0.0,0.0,0.0,0.0,0.0,0.0,0.0,0.0,-0.0003246041734201827,0.0018304919625963603,0.00032654710057707206,0.0,0.0,0.0,0.0,0.0,0.0,0.0,0.0,0.0,0.005490632028561398,0.20277771309217096,9.802537051139227,0.0,0.0,0.0,0.0,0.0,0.0,0.0,0.0,0.0
2025/05/20 12:49:37.465330667,1747738177,465153807,mA1/imu,-0.7073880778076039,-0.706825176992801,0.0005000755990200556,-0.00016269343567022575,0.0,0.0,0.0,0.0,0.0,0.0,0.0,0.0,0.0,9.515569624039676e-05,0.000548651892391294,-0.0002587023103242667,0.0,0.0,0.0,0.0,0.0,0.0,0.0,0.0,0.0,0.025815171466919994,0.014725321002320853,9.82782317074471,0.0,0.0,0.0,0.0,0.0,0.0,0.0,0.0,0.0
2025/05/20 12:49:37.516109145,1747738177,515935835,mA1/imu,-0.7073879992274412,-0.7068252664965121,0.0004890497676176501,-0.00014839628484966162,0.0,0.0,0.0,0.0,0.0,0.0,0.0,0.0,0.0,0.0007858522460433175,0.0009240788207829559,0.00029399463079705956,0.0,0.0,0.0,0.0,0.0,0.0,0.0,0.0,0.0,0.0058300764528584365,-0.4830530671947023,9.798993611895831,0.0,0.0,0.0,0.0,0.0,0.0,0.0,0.0,0.0
2025/05/20 12:49:37.566251351,1747738177,565794389,mA1/imu,-0.7073938637285472,-0.7068194168711811,0.0004633313706188699,-0.0001371755165110918,0.0,0.0,0.0,0.0,0.0,0.0,0.0,0.0,0.0,-0.0003414647542342303,0.0011049442783408227,0.0003563536909583946,0.0,0.0,0.0,0.0,0.0,0.0,0.0,0.0,0.0,0.005213895841874531,-0.5081329871643391,9.799808639221514,0.0,0.0,0.0,0.0,0.0,0.0,0.0,0.0,0.0
2025/05/20 12:49:37.617836885,1747738177,616878323,mA1/imu,-0.7073926573094664,-0.7068206306940721,0.0004511096500882984,-0.00014460279960337174,0.0,0.0,0.0,0.0,0.0,0.0,0.0,0.0,0.0,-0.0011220886074902962,-0.0009426799972947765,-0.0007939555873243806,0.0,0.0,0.0,0.0,0.0,0.0,0.0,0.0,0.0,-0.08463329895542747,0.01670428173711673,9.823972557485352,0.0,0.0,0.0,0.0,0.0,0.0,0.0,0.0,0.0
2025/05/20 12:49:37.667028258,1747738177,666602896,mA1/imu,-0.7073782231622485,-0.7068350587519215,0.0004679590543662369,-0.00017357796868177535,0.0,0.0,0.0,0.0,0.0,0.0,0.0,0.0,0.0,-0.0022042434339773287,-0.0012359330156348268,-0.0008052771368712776,0.0,0.0,0.0,0.0,0.0,0.0,0.0,0.0,0.0,0.008718685611172314,0.6133600674255999,9.800451063890854,0.0,0.0,0.0,0.0,0.0,0.0,0.0,0.0,0.0
2025/05/20 12:49:37.716398953,1747738177,714914421,mA1/imu,-0.7073693922457615,-0.7068438971672641,0.0004626596491563113,-0.0001841122082867983,0.0,0.0,0.0,0.0,0.0,0.0,0.0,0.0,0.0,-0.0005700996204860814,0.0006456900540510874,-0.00012225675450996593,0.0,0.0,0.0,0.0,0.0,0.0,0.0,0.0,0.0,0.034052551694451386,0.012517904688383236,9.782247988399815,0.0,0.0,0.0,0.0,0.0,0.0,0.0,0.0,0.0
2025/05/20 12:49:37.765669964,1747738177,765301392,mA1/imu,-0.7073691093726053,-0.7068441995237018,0.0004364748075660493,-0.00017376664404078547,0.0,0.0,0.0,0.0,0.0,0.0,0.0,0.0,0.0,-0.000641953728059957,0.0011271962392905225,7.640953877942668e-05,0.0,0.0,0.0,0.0,0.0,0.0,0.0,0.0,0.0,0.028818792022333086,0.011169198442475974,9.785468886293245,0.0,0.0,0.0,0.0,0.0,0.0,0.0,0.0,0.0
2025/05/20 12:49:37.819876231,1747738177,818600476,mA1/imu,-0.7073783658796498,-0.7068349711400348,0.00038499473955269355,-0.0001511223116831861,0.0,0.0,0.0,0.0,0.0,0.0,0.0,0.0,0.0,-0.0017015455520371634,0.0027129464983899824,0.001117175131872061,0.0,0.0,0.0,0.0,0.0,0.0,0.0,0.0,0.0,0.09558922963390837,0.02512329531394787,9.823520958776326,0.0,0.0,0.0,0.0,0.0,0.0,0.0,0.0,0.0
2025/05/20 12:49:37.868601985,1747738177,868196150,mA1/imu,-0.7073994813092357,-0.7068138799763174,0.0003183690397033809,-0.0001075053628560973,0.0,0.0,0.0,0.0,0.0,0.0,0.0,0.0,0.0,-0.002371527485429584,0.00307501240159115,0.0011963993401783767,0.0,0.0,0.0,0.0,0.0,0.0,0.0,0.0,0.0,0.008987202284998747,0.6227068470119891,9.8010774739904,0.0,0.0,0.0,0.0,0.0,0.0,0.0,0.0,0.0
2025/05/20 12:49:37.919456228,1747738177,919259922,mA1/imu,-0.7074148390718973,-0.7067985295779876,0.00027585904616135413,-8.915751745742629e-05,0.0,0.0,0.0,0.0,0.0,0.0,0.0,0.0,0.0,-0.0005646326258171152,9.508051543801392e-05,0.00028981586348652535,0.0,0.0,0.0,0.0,0.0,0.0,0.0,0.0,0.0,-0.06386223509895712,-0.3463363752105858,9.76659202042139,0.0,0.0,0.0,0.0,0.0,0.0,0.0,0.0,0.0
2025/05/20 12:49:37.969654476,1747738177,969437107,mA1/imu,-0.7074210481373892,-0.7067923146133159,0.0002768177997274252,-8.959718182620625e-05,0.0,0.0,0.0,0.0,0.0,0.0,0.0,0.0,0.0,0.000247930637377691,-0.0001292307842071114,0.00039201917296330987,0.0,0.0,0.0,0.0,0.0,0.0,0.0,0.0,0.0,0.005599317884844821,-0.36543076582024026,9.800020859940307,0.0,0.0,0.0,0.0,0.0,0.0,0.0,0.0,0.0
2025/05/20 12:49:38.24180546,1747738178,22037354,mA1/imu,-0.7074243082086158,-0.7067890462037663,0.00028082636358106735,-0.00011601071146766218,0.0,0.0,0.0,0.0,0.0,0.0,0.0,0.0,0.0,-0.0008070510201839081,-0.0015264638413768439,-0.00022425291849826386,0.0,0.0,0.0,0.0,0.0,0.0,0.0,0.0,0.0,-0.05882402047234028,0.30900209922098504,9.802460497581423,0.0,0.0,0.0,0.0,0.0,0.0,0.0,0.0,0.0
2025/05/20 12:49:38.62279523,1747738178,61184117,mA1/imu,-0.7074152759532478,-0.7067980664301028,0.0003067502848563844,-0.00016291998326988248,0.0,0.0,0.0,0.0,0.0,0.0,0.0,0.0,0.0,-0.001400283556856806,-0.0028979809988791258,-0.0008795528470214304,0.0,0.0,0.0,0.0,0.0,0.0,0.0,0.0,0.0,-0.012532709952202847,0.2321908615534095,9.844123099975167,0.0,0.0,0.0,0.0,0.0,0.0,0.0,0.0,0.0
2025/05/20 12:49:38.112420006,1747738178,111985109,mA1/imu,-0.7074021607808788,-0.706811156077802,0.0003524943004868381,-0.00021980507885188265,0.0,0.0,0.0,0.0,0.0,0.0,0.0,0.0,0.0,-0.0018011555345318008,-0.0029245708276335095,-0.0006779679663565831,0.0,0.0,0.0,0.0,0.0,0.0,0.0,0.0,0.0,0.01180394977200165,0.5571007819962212,9.802795434363953,0.0,0.0,0.0,0.0,0.0,0.0,0.0,0.0,0.0
2025/05/20 12:49:38.162928913,1747738178,162553904,mA1/imu,-0.7073881753962811,-0.7068251198432572,0.00037625042760309666,-0.00027875383556187595,0.0,0.0,0.0,0.0,0.0,0.0,0.0,0.0,0.0,-0.0008732490984751245,-1.5852433764805932e-06,-0.0005319608065012786,0.0,0.0,0.0,0.0,0.0,0.0,0.0,0.0,0.0,-0.05547648584795786,-0.029199138729734606,9.926879850990034,0.0,0.0,0.0,0.0,0.0,0.0,0.0,0.0,0.0
2025/05/20 12:49:38.213473241,1747738178,213291511,mA1/imu,-0.707380413395497,-0.7068328880062735,0.00037826238371510085,-0.0002758526705226515,0.0,0.0,0.0,0.0,0.0,0.0,0.0,0.0,0.0,-0.0008142498819841406,5.4342311751009945e-05,-0.0003785149082454728,0.0,0.0,0.0,0.0,0.0,0.0,0.0,0.0,0.0,0.00987917714012815,0.03351092313696211,9.802020942055893,0.0,0.0,0.0,0.0,0.0,0.0,0.0,0.0,0.0
2025/05/20 12:49:38.263973686,1747738178,263530483,mA1/imu,-0.7073733312207718,-0.7068399751871469,0.0003731150368019408,-0.0002837961079599395,0.0,0.0,0.0,0.0,0.0,0.0,0.0,0.0,0.0,-0.0017417883595478778,-0.00041945059405503794,-0.0006038394387902894,0.0,0.0,0.0,0.0,0.0,0.0,0.0,0.0,0.0,0.052539154108226974,0.6439529680404635,9.804411395746259,0.0,0.0,0.0,0.0,0.0,0.0,0.0,0.0,0.0
2025/05/20 12:49:38.315280830,1747738178,314896289,mA1/imu,-0.7073670662142669,-0.70684624138284,0.0003673948598679248,-0.0002994985636508651,0.0,0.0,0.0,0.0,0.0,0.0,0.0,0.0,0.0,-0.001047499962582154,0.0010979501198098585,0.0008068291426567686,0.0,0.0,0.0,0.0,0.0,0.0,0.0,0.0,0.0,0.13384586985983474,-0.12112216239385426,9.812901498005687,0.0,0.0,0.0,0.0,0.0,0.0,0.0,0.0,0.0
2025/05/20 12:49:38.365570168,1747738178,364272794,mA1/imu,-0.7073825058757423,-0.7068308130443702,0.0003450818424915661,-0.00027024158094815997,0.0,0.0,0.0,0.0,0.0,0.0,0.0,0.0,0.0,-0.0005180218421411718,0.0015003414608744101,0.0008716590970458004,0.0,0.0,0.0,0.0,0.0,0.0,0.0,0.0,0.0,0.009775867512598757,0.17253241527241472,9.802281266530617,0.0,0.0,0.0,0.0,0.0,0.0,0.0,0.0,0.0
2025/05/20 12:49:38.415681453,1747738178,415213701,mA1/imu,-0.7073982060942359,-0.7068151235433966,0.00030585836032764917,-0.0002561164840800856,0.0,0.0,0.0,0.0,0.0,0.0,0.0,0.0,0.0,-0.000731769810845142,0.0015229270007990454,0.0009100957986729884,0.0,0.0,0.0,0.0,0.0,0.0,0.0,0.0,0.0,0.0072311187977853264,0.08217154214883167,9.802473737982545,0.0,0.0,0.0,0.0,0.0,0.0,0.0,0.0,0.0
2025/05/20 12:49:38.468459088,1747738178,466713088,mA1/imu,-0.7074073805791186,-0.7068059474137158,0.0002925949349536609,-0.00025493331218984683,0.0,0.0,0.0,0.0,0.0,0.0,0.0,0.0,0.0,0.00023313828432496237,-0.0007989452257520051,0.00014965005435028277,0.0,0.0,0.0,0.0,0.0,0.0,0.0,0.0,0.0,0.019647165212975055,0.01063096442689433,9.82568044476958,0.0,0.0,0.0,0.0,0.0,0.0,0.0,0.0,0.0
2025/05/20 12:49:38.519535127,1747738178,519164852,mA1/imu,-0.7074039510452612,-0.7068093703149662,0.00030231238976180107,-0.00026960662760394324,0.0,0.0,0.0,0.0,0.0,0.0,0.0,0.0,0.0,0.000325432544308889,-0.0005415810000728657,-0.00016858195942000604,0.0,0.0,0.0,0.0,0.0,0.0,0.0,0.0,0.0,0.009031636894550376,0.13653151912617142,9.805112055857325,0.0,0.0,0.0,0.0,0.0,0.0,0.0,0.0,0.0
2025/05/20 12:49:38.569447113,1747738178,569261741,mA1/imu,0.7073988248479472,0.7068144887677289,-0.0002998679716837954,0.00030191216715815737,0.0,0.0,0.0,0.0,0.0,0.0,0.0,0.0,0.0,-0.0005454223088168326,-0.0013116504128165441,-0.000531015431540396,0.0,0.0,0.0,0.0,0.0,0.0,0.0,0.0,0.0,0.012695728317629176,-0.16168642577752818,9.80507940115735,0.0,0.0,0.0,0.0,0.0,0.0,0.0,0.0,0.0
2025/05/20 12:49:38.621529302,1747738178,620663433,mA1/imu,0.707387947567545,0.7068253538389164,-0.00031464922764198,0.00033436885380691897,0.0,0.0,0.0,0.0,0.0,0.0,0.0,0.0,0.0,-0.0009223584028828492,-0.0011907000767485832,-0.0008740949852043055,0.0,0.0,0.0,0.0,0.0,0.0,0.0,0.0,0.0,-0.025520969267027807,-0.036920867735543136,9.78760174018141,0.0,0.0,0.0,0.0,0.0,0.0,0.0,0.0,0.0
2025/05/20 12:49:38.675067436,1747738178,672363759,mA1/imu,0.7073803995097893,0.7068329153870193,-0.00030456571352280564,0.00032765009383137623,0.0,0.0,0.0,0.0,0.0,0.0,0.0,0.0,0.0,-0.00034900736388631266,0.00030549634783141297,-0.00029623217485113336,0.0,0.0,0.0,0.0,0.0,0.0,0.0,0.0,0.0,0.042745670879389276,0.011127372762667617,9.785779521809175,0.0,0.0,0.0,0.0,0.0,0.0,0.0,0.0,0.0
2025/05/20 12:49:38.713503958,1747738178,713139120,mA1/imu,0.7073790479543508,0.7068342792602417,-0.00029021048456240783,0.00031615775458606373,0.0,0.0,0.0,0.0,0.0,0.0,0.0,0.0,0.0,0.0002108744413798322,0.0010079029640991393,1.5973139263340427e-05,0.0,0.0,0.0,0.0,0.0,0.0,0.0,0.0,0.0,0.010072068139150387,0.11085485577123044,9.804268256559803,0.0,0.0,0.0,0.0,0.0,0.0,0.0,0.0,0.0
2025/05/20 12:49:38.763100488,1747738178,762975547,mA1/imu,0.7073894993188794,0.7068238435675867,-0.00026015536506380094,0.00028764025232567536,0.0,0.0,0.0,0.0,0.0,0.0,0.0,0.0,0.0,0.0018229400502774596,0.001935884957656447,0.0008203255907705878,0.0,0.0,0.0,0.0,0.0,0.0,0.0,0.0,0.0,0.00023852654754227473,-0.4159822562280273,9.804244134258704,0.0,0.0,0.0,0.0,0.0,0.0,0.0,0.0,0.0
2025/05/20 12:49:38.815373569,1747738178,814694062,mA1/imu,0.7074060372223254,0.7068073191417517,-0.00021340023477687035,0.00025801045635330126,0.0,0.0,0.0,0.0,0.0,0.0,0.0,0.0,0.0,0.0007310069328545068,0.002251447437462308,0.0010928355741487686,0.0,0.0,0.0,0.0,0.0,0.0,0.0,0.0,0.0,-0.0039590106621830625,-0.2105860437629565,9.806273728566087,0.0,0.0,0.0,0.0,0.0,0.0,0.0,0.0,0.0
2025/05/20 12:49:38.864842945,1747738178,864637294,mA1/imu,0.7074090789135603,0.7068042840908866,-0.0002056441332498367,0.0002382686047580914,0.0,0.0,0.0,0.0,0.0,0.0,0.0,0.0,0.0,0.0007629272197475031,0.00019650299092479774,-0.0002214085935144451,0.0,0.0,0.0,0.0,0.0,0.0,0.0,0.0,0.0,0.008930444897727641,0.009136240682144407,9.735590922597245,0.0,0.0,0.0,0.0,0.0,0.0,0.0,0.0,0.0
2025/05/20 12:49:38.915725357,1747738178,915492580,mA1/imu,0.7073944904842602,0.7068188733635298,-0.00022153175533467167,0.00025693054615183225,0.0,0.0,0.0,0.0,0.0,0.0,0.0,0.0,0.0,0.0010102234267170467,-0.001435672374125027,-0.0010836519377236359,0.0,0.0,0.0,0.0,0.0,0.0,0.0,0.0,0.0,0.012503801515940601,-0.21917298012169362,9.805160633271234,0.0,0.0,0.0,0.0,0.0,0.0,0.0,0.0,0.0
2025/05/20 12:49:38.965843056,1747738178,965432790,mA1/imu,0.7073755888740432,0.7068377692071625,-0.00024713793399702255,0.00028846175563033586,0.0,0.0,0.0,0.0,0.0,0.0,0.0,0.0,0.0,-0.0009344708622015716,-0.0018326090124503014,-0.0012093154765488556,0.0,0.0,0.0,0.0,0.0,0.0,0.0,0.0,0.0,-0.010499847464297296,-0.13413140114755176,9.810496319073653,0.0,0.0,0.0,0.0,0.0,0.0,0.0,0.0,0.0
2025/05/20 12:49:39.16794065,1747738179,16383131,mA1/imu,0.7073646327868719,0.7068487187299926,-0.00028020753505046247,0.000294271641848878,0.0,0.0,0.0,0.0,0.0,0.0,0.0,0.0,0.0,0.0007781334831482549,-0.00047518767848551215,-0.00030895877205982657,0.0,0.0,0.0,0.0,0.0,0.0,0.0,0.0,0.0,-0.001691106400386123,0.005551678425302147,9.818872691869993,0.0,0.0,0.0,0.0,0.0,0.0,0.0,0.0,0.0
2025/05/20 12:49:39.66280332,1747738179,66120346,mA1/imu,-0.7073611288340019,-0.7068522103536768,0.00031027713895964443,-0.0002997680848739401,0.0,0.0,0.0,0.0,0.0,0.0,0.0,0.0,0.0,0.0004368037233068539,-0.000942296326197494,-0.00016208542020167095,0.0,0.0,0.0,0.0,0.0,0.0,0.0,0.0,0.0,0.0033263050384003444,0.11460632751763075,9.817358684924624,0.0,0.0,0.0,0.0,0.0,0.0,0.0,0.0,0.0
2025/05/20 12:49:39.117300324,1747738179,116928262,mA1/imu,-0.7073731140371461,-0.7068402177370788,0.000324463011777582,-0.0002808033892795267,0.0,0.0,0.0,0.0,0.0,0.0,0.0,0.0,0.0,0.00047414171932296016,0.00022326161010487527,0.0007122381482902531,0.0,0.0,0.0,0.0,0.0,0.0,0.0,0.0,0.0,0.002352480067792943,0.5606354158951454,9.808458142792158,0.0,0.0,0.0,0.0,0.0,0.0,0.0,0.0,0.0
2025/05/20 12:49:39.167518548,1747738179,166783128,mA1/imu,-0.7073862073544399,-0.7068271181821099,0.00033188083182146956,-0.00026172922744521575,0.0,0.0,0.0,0.0,0.0,0.0,0.0,0.0,0.0,0.0007847304237087666,0.00036573589261769526,0.0007405656908313274,0.0,0.0,0.0,0.0,0.0,0.0,0.0,0.0,0.0,0.007515855461376253,0.0409521119509721,9.809623617089745,0.0,0.0,0.0,0.0,0.0,0.0,0.0,0.0,0.0
2025/05/20 12:49:39.219314349,1747738179,217982830,mA1/imu,-0.7073843542893323,-0.7068289753909269,0.00033429368111725737,-0.0002512015352795808,0.0,0.0,0.0,0.0,0.0,0.0,0.0,0.0,0.0,-1.532725192240305e-05,-1.798320793956239e-07,-0.000750664382861359,0.0,0.0,0.0,0.0,0.0,0.0,0.0,0.0,0.0,-0.03046034723823745,-0.003984920246239046,9.872733337249212,0.0,0.0,0.0,0.0,0.0,0.0,0.0,0.0,0.0
2025/05/20 12:49:39.267865359,1747738179,267619674,mA1/imu,-0.7073843473052759,-0.7068289828698182,0.00032989070554442307,-0.00025560678670740383,0.0,0.0,0.0,0.0,0.0,0.0,0.0,0.0,0.0,-0.00045864767745387643,3.649677109982068e-07,-7.407364479858506e-08,0.0,0.0,0.0,0.0,0.0,0.0,0.0,0.0,0.0,0.004379827193781414,-0.021652321770282566,9.876020667560368,0.0,0.0,0.0,0.0,0.0,0.0,0.0,0.0,0.0
2025/05/20 12:49:39.319056235,1747738179,318600875,mA1/imu,-0.7073843417266662,-0.7068289897196224,0.0003148257589321908,-0.00027065958396264573,0.0,0.0,0.0,0.0,0.0,0.0,0.0,0.0,0.0,-0.0008704829890036897,6.929443380792893e-07,1.1361802109225682e-09,0.0,0.0,0.0,0.0,0.0,0.0,0.0,0.0,0.0,0.008123163945085428,0.0009035670614916915,9.809089272029004,0.0,0.0,0.0,0.0,0.0,0.0,0.0,0.0,0.0
2025/05/20 12:49:39.368906696,1747738179,368716192,mA1/imu,0.7073843318680808,0.7068290002742219,-0.00029008397377226026,0.0002953814163590439,0.0,0.0,0.0,0.0,0.0,0.0,0.0,0.0,0.0,-0.0014680095264778712,1.1692138417041218e-06,1.9031288435667313e-09,0.0,0.0,0.0,0.0,0.0,0.0,0.0,0.0,0.0,0.00812459280233754,0.0027971465462417666,9.801084198101547,0.0,0.0,0.0,0.0,0.0,0.0,0.0,0.0,0.0
2025/05/20 12:49:39.420336736,1747738179,419665929,mA1/imu,0.707384317865741,0.7068290126180001,-0.0002581560133190269,0.00032728360192497383,0.0,0.0,0.0,0.0,0.0,0.0,0.0,0.0,0.0,-0.0019796895791438056,1.5768604388187731e-06,2.44056305076527e-09,0.0,0.0,0.0,0.0,0.0,0.0,0.0,0.0,0.0,0.008126682070553969,0.005359424654737061,9.790389578242186,0.0,0.0,0.0,0.0,0.0,0.0,0.0,0.0,0.0
2025/05/20 12:49:39.469821255,1747738179,469542164,mA1/imu,0.7073842998199242,0.7068290251302956,-0.00022111807223249144,0.00036429168207473544,0.0,0.0,0.0,0.0,0.0,0.0,0.0,0.0,0.0,-0.0023903209159008686,1.901875204763211e-06,3.0944558292968422e-09,0.0,0.0,0.0,0.0,0.0,0.0,0.0,0.0,0.0,0.008111033139360574,-0.014432839438621243,9.848712610408807,0.0,0.0,0.0,0.0,0.0,0.0,0.0,0.0,0.0
2025/05/20 12:49:39.521191374,1747738179,520489436,mA1/imu,0.7073842782905976,0.7068290364061469,-0.0001813629444347657,0.00040401476530823124,0.0,0.0,0.0,0.0,0.0,0.0,0.0,0.0,0.0,-0.0024049217077756558,1.9140670301168013e-06,3.0503814941868907e-09,0.0,0.0,0.0,0.0,0.0,0.0,0.0,0.0,0.0,0.008111321774106056,-0.014038763150587056,9.844062271278792,0.0,0.0,0.0,0.0,0.0,0.0,0.0,0.0,0.0
2025/05/20 12:49:39.570620530,1747738179,570332181,mA1/imu,0.707384253815399,0.7068290456746124,-0.00014047100699231908,0.0004448737393408538,0.0,0.0,0.0,0.0,0.0,0.0,0.0,0.0,0.0,-0.002267577201684995,1.8047650587852209e-06,2.906534698500629e-09,0.0,0.0,0.0,0.0,0.0,0.0,0.0,0.0,0.0,0.008110497068596963,-0.015052493557409263,9.843677607732761,0.0,0.0,0.0,0.0,0.0,0.0,0.0,0.0,0.0
2025/05/20 12:49:39.611413645,1747738179,611202812,mA1/imu,0.707384440866619,0.7068288480522734,-0.00011707177341864342,0.00046762711297985743,0.0,0.0,0.0,0.0,0.0,0.0,0.0,0.0,0.0,0.00030377984702090465,4.507458339784526e-05,2.983027827735626e-05,0.0,0.0,0.0,0.0,0.0,0.0,0.0,0.0,0.0,0.005531692152833791,-0.42330903878050774,9.765845903350652,0.0,0.0,0.0,0.0,0.0,0.0,0.0,0.0,0.0
2025/05/20 12:49:39.662145210,1747738179,660776681,mA1/imu,0.7073855339626063,0.7068277443866229,-9.415204114294887e-05,0.00048707407064012157,0.0,0.0,0.0,0.0,0.0,0.0,0.0,0.0,0.0,0.00032190678251609815,0.00011118617116709261,8.458545543384345e-05,0.0,0.0,0.0,0.0,0.0,0.0,0.0,0.0,0.0,0.006635527468740342,-0.44665657193122543,9.761939739628021,0.0,0.0,0.0,0.0,0.0,0.0,0.0,0.0,0.0
2025/05/20 12:49:39.712343206,1747738179,712040952,mA1/imu,0.7073794769614148,0.7068338069276813,-9.460504598338067e-05,0.00048580634220371055,0.0,0.0,0.0,0.0,0.0,0.0,0.0,0.0,0.0,0.0013846113364221792,0.00013549790037622133,-0.0005250801835057455,0.0,0.0,0.0,0.0,0.0,0.0,0.0,0.0,0.0,0.007914962684621869,-0.47547039682883513,9.76006159490273,0.0,0.0,0.0,0.0,0.0,0.0,0.0,0.0,0.0
2025/05/20 12:49:39.765558120,1747738179,762706490,mA1/imu,0.707370952899081,0.7068423478990619,-0.00010742550275561643,0.0004676226566288225,0.0,0.0,0.0,0.0,0.0,0.0,0.0,0.0,0.0,0.0008081783924461931,0.00016385603391554709,-0.0004552943716453564,0.0,0.0,0.0,0.0,0.0,0.0,0.0,0.0,0.0,0.007458269862097561,0.0935052600897375,9.762883519917729,0.0,0.0,0.0,0.0,0.0,0.0,0.0,0.0,0.0
2025/05/20 12:49:39.815463156,1747738179,815205708,mA1/imu,0.7073674403587343,0.7068458793621519,-0.00011961381256821944,0.0004391373527980997,0.0,0.0,0.0,0.0,0.0,0.0,0.0,0.0,0.0,0.0008942535870704183,0.0010920836096903546,0.0004555851680317645,0.0,0.0,0.0,0.0,0.0,0.0,0.0,0.0,0.0,0.10356606478063214,0.03128344409956929,9.786329037785771,0.0,0.0,0.0,0.0,0.0,0.0,0.0,0.0,0.0
2025/05/20 12:49:39.865191746,1747738179,864845433,mA1/imu,0.7073760138567511,0.7068373283247561,-0.00013519647430357764,0.0003847450679474038,0.0,0.0,0.0,0.0,0.0,0.0,0.0,0.0,0.0,0.0027471712914515375,0.0010955678529134146,0.0005008417818463932,0.0,0.0,0.0,0.0,0.0,0.0,0.0,0.0,0.0,0.0057540210717342615,-0.473669601429821,9.773654593548413,0.0,0.0,0.0,0.0,0.0,0.0,0.0,0.0,0.0
2025/05/20 12:49:39.917239757,1747738179,917008438,mA1/imu,0.7073832262378527,0.7068301330490654,-0.0001703085468717117,0.0003244166554750534,0.0,0.0,0.0,0.0,0.0,0.0,0.0,0.0,0.0,0.004395897552656309,3.761505619174159e-05,0.0002553260047224925,0.0,0.0,0.0,0.0,0.0,0.0,0.0,0.0,0.0,0.0052991689911291995,-0.41476684093367544,9.785236720055737,0.0,0.0,0.0,0.0,0.0,0.0,0.0,0.0,0.0
2025/05/20 12:49:39.967047657,1747738179,966740582,mA1/imu,0.7073762544617789,0.7068371162839894,-0.00023012959754555764,0.00026964296221441503,0.0,0.0,0.0,0.0,0.0,0.0,0.0,0.0,0.0,0.004735758279791645,-0.0001325271310686578,-0.0007696027774022821,0.0,0.0,0.0,0.0,0.0,0.0,0.0,0.0,0.0,0.013040304162577784,-0.4642840209169483,9.794653732455897,0.0,0.0,0.0,0.0,0.0,0.0,0.0,0.0,0.0
2025/05/20 12:49:40.18119837,1747738180,17724406,mA1/imu,-0.7073629326135366,-0.7068504423300503,0.0003014526232007962,-0.00020704710899031967,0.0,0.0,0.0,0.0,0.0,0.0,0.0,0.0,0.0,0.0036678503443344493,-0.00030859745155404294,-0.0007301030071656656,0.0,0.0,0.0,0.0,0.0,0.0,0.0,0.0,0.0,0.009356446734048616,0.11088086369537584,9.809326390902925,0.0,0.0,0.0,0.0,0.0,0.0,0.0,0.0,0.0
2025/05/20 12:49:40.68001819,1747738180,67711420,mA1/imu,-0.7073505992314238,-0.7068627665745005,0.0003675653463787568,-0.00015457459229416016,0.0,0.0,0.0,0.0,0.0,0.0,0.0,0.0,0.0,0.003548472646242651,-0.000454105891441143,-0.0006937669864126479,0.0,0.0,0.0,0.0,0.0,0.0,0.0,0.0,0.0,0.012084326827634197,-0.12115122393438911,9.817754847124961,0.0,0.0,0.0,0.0,0.0,0.0,0.0,0.0,0.0
2025/05/20 12:49:40.118908395,1747738180,118627443,mA1/imu,-0.7073542830989201,-0.7068590603417985,0.0004215066584693563,-9.657359508147861e-05,0.0,0.0,0.0,0.0,0.0,0.0,0.0,0.0,0.0,0.002432709061740909,0.00023561055805529886,0.00037922417522718584,0.0,0.0,0.0,0.0,0.0,0.0,0.0,0.0,0.0,0.006948442200220742,0.6461746811427196,9.829774004091627,0.0,0.0,0.0,0.0,0.0,0.0,0.0,0.0,0.0
2025/05/20 12:49:40.169231529,1747738180,168553160,mA1/imu,-0.7073614162952438,-0.7068519013352198,0.0004627127787387841,-4.703675241747276e-05,0.0,0.0,0.0,0.0,0.0,0.0,0.0,0.0,0.0,0.0017383086714028496,0.0003468417351410282,0.00044541505597430235,0.0,0.0,0.0,0.0,0.0,0.0,0.0,0.0,0.0,0.02002699640790944,-0.04476912230241837,9.8433031470297,0.0,0.0,0.0,0.0,0.0,0.0,0.0,0.0,0.0
2025/05/20 12:49:40.219777983,1747738180,219482635,mA1/imu,-0.7073781723461317,-0.7068351108829182,0.0004973036075761834,-7.077834754613387e-07,0.0,0.0,0.0,0.0,0.0,0.0,0.0,0.0,0.0,0.0027974639168623027,0.00040972850782607193,0.0012258133140579614,0.0,0.0,0.0,0.0,0.0,0.0,0.0,0.0,0.0,0.004870716135807009,-0.46314033048207315,9.845246338629565,0.0,0.0,0.0,0.0,0.0,0.0,0.0,0.0,0.0
2025/05/20 12:49:40.269418047,1747738180,269251464,mA1/imu,-0.7073957395509889,-0.7068175104167027,0.0005232215755065634,2.9540260619715633e-05,0.0,0.0,0.0,0.0,0.0,0.0,0.0,0.0,0.0,0.0016410145682985624,-8.0691197738458e-05,0.0008422565491955397,0.0,0.0,0.0,0.0,0.0,0.0,0.0,0.0,0.0,0.006377472593879222,0.25217238973950407,9.85046705552653,0.0,0.0,0.0,0.0,0.0,0.0,0.0,0.0,0.0
2025/05/20 12:49:40.320487539,1747738180,320166126,mA1/imu,-0.7074000192180877,-0.7068132148083887,0.0005392925339502878,3.6688453210452455e-05,0.0,0.0,0.0,0.0,0.0,0.0,0.0,0.0,0.0,-0.000541103729239694,-0.00018146093900343776,0.00022135299972636692,0.0,0.0,0.0,0.0,0.0,0.0,0.0,0.0,0.0,0.007796617940875502,0.6688737655480177,9.852163498865462,0.0,0.0,0.0,0.0,0.0,0.0,0.0,0.0,0.0
2025/05/20 12:49:40.370835838,1747738180,370075138,mA1/imu,-0.7074018545277929,-0.706811372624218,0.0005467096098826936,2.9125771276160793e-05,0.0,0.0,0.0,0.0,0.0,0.0,0.0,0.0,0.0,0.00035393607164545173,-0.0007468048795573572,-8.597214890286132e-05,0.0,0.0,0.0,0.0,0.0,0.0,0.0,0.0,0.0,0.007319530846744097,-0.48237726381401963,9.850693660895296,0.0,0.0,0.0,0.0,0.0,0.0,0.0,0.0,0.0
2025/05/20 12:49:40.421747083,1747738180,421048286,mA1/imu,-0.7073928623357143,-0.7068203747299749,0.0005441881484073629,6.505534078524969e-06,0.0,0.0,0.0,0.0,0.0,0.0,0.0,0.0,0.0,-0.0009044309633535605,-0.00043800220235457656,-0.0006565523592173136,0.0,0.0,0.0,0.0,0.0,0.0,0.0,0.0,0.0,0.009107009387829117,0.1354800607349373,9.849120072306798,0.0,0.0,0.0,0.0,0.0,0.0,0.0,0.0,0.0
2025/05/20 12:49:40.462121268,1747738180,460731310,mA1/imu,-0.7073786978890144,-0.7068345651436393,0.0005244021416858206,-1.7130052922717878e-05,0.0,0.0,0.0,0.0,0.0,0.0,0.0,0.0,0.0,-0.0009570570450292584,-5.11433842484613e-05,-0.0008233099336964782,0.0,0.0,0.0,0.0,0.0,0.0,0.0,0.0,0.0,0.010065908223265274,0.11518186020436078,9.84242702051067,0.0,0.0,0.0,0.0,0.0,0.0,0.0,0.0,0.0
2025/05/20 12:49:40.512294390,1747738180,511856348,mA1/imu,-0.7073649601489561,-0.7068483259723466,0.0005050179270968192,-4.6695291766566446e-05,0.0,0.0,0.0,0.0,0.0,0.0,0.0,0.0,0.0,-0.0022676804186552877,-0.0010170284263327281,-0.0007090538196414648,0.0,0.0,0.0,0.0,0.0,0.0,0.0,0.0,0.0,0.11004560270345981,-0.07625299709099691,9.771676983273139,0.0,0.0,0.0,0.0,0.0,0.0,0.0,0.0,0.0
2025/05/20 12:49:40.562515889,1747738180,562312273,mA1/imu,-0.7073681090346514,-0.7068451993144536,0.00046322721121485705,-8.914820734899279e-05,0.0,0.0,0.0,0.0,0.0,0.0,0.0,0.0,0.0,-0.0028679991894671533,5.60510538482512e-05,0.00020311801309071248,0.0,0.0,0.0,0.0,0.0,0.0,0.0,0.0,0.0,0.007310768159465398,0.43664734663559623,9.826358124170865,0.0,0.0,0.0,0.0,0.0,0.0,0.0,0.0,0.0
2025/05/20 12:49:40.612975549,1747738180,612581238,mA1/imu,-0.7073720045999887,-0.706841324345278,0.00041258350641748466,-0.0001381334770794823,0.0,0.0,0.0,0.0,0.0,0.0,0.0,0.0,0.0,-0.0034840468478466737,4.95381697253228e-05,0.00023262092332482554,0.0,0.0,0.0,0.0,0.0,0.0,0.0,0.0,0.0,0.007338150962087034,0.3967339625755992,9.813588280543792,0.0,0.0,0.0,0.0,0.0,0.0,0.0,0.0,0.0
2025/05/20 12:49:40.662738136,1747738180,662386469,mA1/imu,-0.7073859376983112,-0.7068274031651182,0.00035046379745138213,-0.0001856250599692098,0.0,0.0,0.0,0.0,0.0,0.0,0.0,0.0,0.0,-0.00358301918118282,0.0005152081791535035,0.0010130808583398347,0.0,0.0,0.0,0.0,0.0,0.0,0.0,0.0,0.0,0.06965905742892879,-0.15860985184084855,9.789743390659838,0.0,0.0,0.0,0.0,0.0,0.0,0.0,0.0,0.0
2025/05/20 12:49:40.715543618,1747738180,713827070,mA1/imu,-0.7073952654826224,-0.706818071363103,0.000304698417651079,-0.00024397989263872768,0.0,0.0,0.0,0.0,0.0,0.0,0.0,0.0,0.0,-0.0029350398544892966,-0.0002779156603544138,0.0004050929474656181,0.0,0.0,0.0,0.0,0.0,0.0,0.0,0.0,0.0,-0.03875633668059301,-0.20544086343866821,9.761941101983993,0.0,0.0,0.0,0.0,0.0,0.0,0.0,0.0,0.0
2025/05/20 12:49:40.764079586,1747738180,763446412,mA1/imu,0.7073966901005915,0.7068166338090777,-0.000274634936813219,0.0003059104173152663,0.0,0.0,0.0,0.0,0.0,0.0,0.0,0.0,0.0,-0.0029641150639396737,-0.0011515550449055366,-6.784901536031374e-05,0.0,0.0,0.0,0.0,0.0,0.0,0.0,0.0,0.0,0.008900563409215268,0.5685775338194312,9.786168211486775,0.0,0.0,0.0,0.0,0.0,0.0,0.0,0.0,0.0
2025/05/20 12:49:40.814613931,1747738180,814352707,mA1/imu,0.7073919754450467,0.7068213248665862,-0.0002555912895704313,0.00037744256631079434,0.0,0.0,0.0,0.0,0.0,0.0,0.0,0.0,0.0,-0.0029089046960804822,-0.001543972650990845,-0.0002956119555530814,0.0,0.0,0.0,0.0,0.0,0.0,0.0,0.0,0.0,0.00799405261718996,0.425805545551391,9.776550267677152,0.0,0.0,0.0,0.0,0.0,0.0,0.0,0.0,0.0
2025/05/20 12:49:40.867068600,1747738180,865330237,mA1/imu,0.7073818707309286,0.7068314291747692,-0.0002246675674059886,0.0004113592706091754,0.0,0.0,0.0,0.0,0.0,0.0,0.0,0.0,0.0,-0.00015517097816931981,0.0008107396169205668,-0.00047444059077917126,0.0,0.0,0.0,0.0,0.0,0.0,0.0,0.0,0.0,0.010124217481567976,-0.4359495383240905,9.771584215789526,0.0,0.0,0.0,0.0,0.0,0.0,0.0,0.0,0.0
2025/05/20 12:49:40.917871946,1747738180,917287237,mA1/imu,0.7073787179290482,0.706834594821162,-0.00018269665086242677,0.000414254745036361,0.0,0.0,0.0,0.0,0.0,0.0,0.0,0.0,0.0,3.9486938128759444e-05,0.001153796414194216,2.7825502319857315e-05,0.0,0.0,0.0,0.0,0.0,0.0,0.0,0.0,0.0,0.009348361786194434,-0.44374924004813027,9.767647769856573,0.0,0.0,0.0,0.0,0.0,0.0,0.0,0.0,0.0
2025/05/20 12:49:40.967887989,1747738180,967115357,mA1/imu,0.7073864747709533,0.7068268566229509,-0.00013576070692772173,0.0003894055371335221,0.0,0.0,0.0,0.0,0.0,0.0,0.0,0.0,0.0,0.0011934385793169458,0.002577199289285682,0.0007089964333431158,0.0,0.0,0.0,0.0,0.0,0.0,0.0,0.0,0.0,0.009912064597265218,-0.4383816209951824,9.766059571767391,0.0,0.0,0.0,0.0,0.0,0.0,0.0,0.0,0.0
2025/05/20 12:49:41.18819663,1747738181,18070983,mA1/imu,0.70739925273894,0.7068140958796982,-8.860476647330566e-05,0.0003510546245706909,0.0,0.0,0.0,0.0,0.0,0.0,0.0,0.0,0.0,0.0008616052725444807,0.0020740312465297147,0.0006877373677434458,0.0,0.0,0.0,0.0,0.0,0.0,0.0,0.0,0.0,0.02866055033658531,-0.48799049301467307,9.784416787389908,0.0,0.0,0.0,0.0,0.0,0.0,0.0,0.0,0.0
2025/05/20 12:49:41.69330283,1747738181,68516872,mA1/imu,0.7074006091388901,0.7068127498432126,-9.900446480543705e-05,0.0003241097333139098,0.0,0.0,0.0,0.0,0.0,0.0,0.0,0.0,0.0,0.0008940633090567381,-2.926473454571686e-05,-0.0002818292049846302,0.0,0.0,0.0,0.0,0.0,0.0,0.0,0.0,0.0,-0.02160818085217911,0.005670898598405917,9.75097888822553,0.0,0.0,0.0,0.0,0.0,0.0,0.0,0.0,0.0
2025/05/20 12:49:41.120780930,1747738181,119372856,mA1/imu,0.7073951998023282,0.7068181669881974,-0.00013389282262713556,0.00030361946663177855,0.0,0.0,0.0,0.0,0.0,0.0,0.0,0.0,0.0,0.002305440964690832,-0.0008122818864155954,-0.0003770296751041804,0.0,0.0,0.0,0.0,0.0,0.0,0.0,0.0,0.0,0.015216805702634926,-0.31459143229697617,9.777177082050745,0.0,0.0,0.0,0.0,0.0,0.0,0.0,0.0,0.0
2025/05/20 12:49:41.169514203,1747738181,169203013,mA1/imu,0.7073830198459892,0.7068303491436868,-0.00018730851594706856,0.0002927089038842378,0.0,0.0,0.0,0.0,0.0,0.0,0.0,0.0,0.0,0.002574639526444471,-0.0004606983045901434,-0.0006311097079043157,0.0,0.0,0.0,0.0,0.0,0.0,0.0,0.0,0.0,-0.03162807031864081,0.04914547383462761,9.843742785912571,0.0,0.0,0.0,0.0,0.0,0.0,0.0,0.0,0.0
2025/05/20 12:49:41.220865290,1747738181,220273092,mA1/imu,0.7073798860898125,0.7068334879142194,-0.00023394818408211418,0.00024977355818621926,0.0,0.0,0.0,0.0,0.0,0.0,0.0,0.0,0.0,0.002841502256603081,0.00020864595875557296,1.864536588444162e-06,0.0,0.0,0.0,0.0,0.0,0.0,0.0,0.0,0.0,0.020188754113420186,-0.04096051526632917,9.813426020510747,0.0,0.0,0.0,0.0,0.0,0.0,0.0,0.0,0.0
2025/05/20 12:49:41.270938778,1747738181,270664181,mA1/imu,-0.7073845865302432,-0.7068287817177772,0.000281053143231391,-0.0002026917128042862,0.0,0.0,0.0,0.0,0.0,0.0,0.0,0.0,0.0,0.002665505932311125,7.764070247659181e-05,0.0004595937791652111,0.0,0.0,0.0,0.0,0.0,0.0,0.0,0.0,0.0,0.049067697874446745,0.016380006463319514,9.781331996701269,0.0,0.0,0.0,0.0,0.0,0.0,0.0,0.0,0.0
2025/05/20 12:49:41.312042784,1747738181,311710896,mA1/imu,-0.7073896092675006,-0.7068237396169585,0.0003364440792223351,-0.0001691734388352853,0.0,0.0,0.0,0.0,0.0,0.0,0.0,0.0,0.0,0.002246952812956546,-0.0005288088018241778,0.0001143869584880383,0.0,0.0,0.0,0.0,0.0,0.0,0.0,0.0,0.0,-0.025358348116912538,0.00033349581858369785,9.791738163747315,0.0,0.0,0.0,0.0,0.0,0.0,0.0,0.0,0.0
2025/05/20 12:49:41.361831185,1747738181,361499327,mA1/imu,-0.7073876419995712,-0.7068256835631171,0.00039504779437312526,-0.00014470334716454336,0.0,0.0,0.0,0.0,0.0,0.0,0.0,0.0,0.0,0.002500002952754308,-0.00020058730291450526,-0.00012942346381352154,0.0,0.0,0.0,0.0,0.0,0.0,0.0,0.0,0.0,-0.035074030479524274,0.022856889989351165,9.876830991771035,0.0,0.0,0.0,0.0,0.0,0.0,0.0,0.0,0.0
2025/05/20 12:49:41.413664306,1747738181,412395792,mA1/imu,-0.7073879899559095,-0.7068253182839271,0.0004367982306115256,-0.00010151979498308197,0.0,0.0,0.0,0.0,0.0,0.0,0.0,0.0,0.0,0.0025324953147526563,-4.900865006085071e-07,2.9418482840262942e-05,0.0,0.0,0.0,0.0,0.0,0.0,0.0,0.0,0.0,0.014440580526429856,0.004598685688200391,9.866013046732112,0.0,0.0,0.0,0.0,0.0,0.0,0.0,0.0,0.0
2025/05/20 12:49:41.462534588,1747738181,462210496,mA1/imu,-0.7073879833236678,-0.7068253081247696,0.00046997742150865947,-6.296683365156796e-05,0.0,0.0,0.0,0.0,0.0,0.0,0.0,0.0,0.0,0.0018626971721468146,0.00030082228875235055,6.217968004163741e-06,0.0,0.0,0.0,0.0,0.0,0.0,0.0,0.0,0.0,-0.030641519315861024,-0.003049627930340067,9.809638479481343,0.0,0.0,0.0,0.0,0.0,0.0,0.0,0.0,0.0
2025/05/20 12:49:41.513763524,1747738181,513265064,mA1/imu,-0.7073877865428239,-0.7068254928490018,0.0004910063357848044,-3.196229415230602e-05,0.0,0.0,0.0,0.0,0.0,0.0,0.0,0.0,0.0,0.001052773208218986,0.000556069246203748,-4.9548958266847235e-05,0.0,0.0,0.0,0.0,0.0,0.0,0.0,0.0,0.0,-0.02707381734236,-0.00332104252480047,9.817775054679904,0.0,0.0,0.0,0.0,0.0,0.0,0.0,0.0,0.0
2025/05/20 12:49:41.565063115,1747738181,563489828,mA1/imu,-0.7073875748939188,-0.706825696716359,0.0005031506602320242,-1.3658224470827719e-05,0.0,0.0,0.0,0.0,0.0,0.0,0.0,0.0,0.0,0.0005714224196701738,-5.603964865984817e-07,-4.165293841831499e-05,0.0,0.0,0.0,0.0,0.0,0.0,0.0,0.0,0.0,0.054250289350643646,-0.003976722865777709,9.859900655228364,0.0,0.0,0.0,0.0,0.0,0.0,0.0,0.0,0.0
2025/05/20 12:49:41.614477823,1747738181,614202041,mA1/imu,-0.7073876439173281,-0.7068256272479476,0.0005038617282689909,-4.689936990904945e-06,0.0,0.0,0.0,0.0,0.0,0.0,0.0,0.0,0.0,0.00019885739892353937,0.00022998871552611493,4.284606915735783e-05,0.0,0.0,0.0,0.0,0.0,0.0,0.0,0.0,0.0,0.007723997154402537,-0.005672977046325481,9.858427986073556,0.0,0.0,0.0,0.0,0.0,0.0,0.0,0.0,0.0
2025/05/20 12:49:41.664492613,1747738181,663978984,mA1/imu,-0.7073878550950986,-0.7068254217575066,0.0004955322652065336,-8.309804622264668e-06,0.0,0.0,0.0,0.0,0.0,0.0,0.0,0.0,0.0,-0.0006967727333567754,5.511772193837296e-07,-3.597847847110685e-07,0.0,0.0,0.0,0.0,0.0,0.0,0.0,0.0,0.0,-0.006712832350793605,-0.011567395953717663,9.816244063115741,0.0,0.0,0.0,0.0,0.0,0.0,0.0,0.0,0.0
2025/05/20 12:49:41.718250555,1747738181,714813076,mA1/imu,-0.707387822605021,-0.706825467431143,0.00047595300665018825,-2.212711011327241e-05,0.0,0.0,0.0,0.0,0.0,0.0,0.0,0.0,0.0,-0.0004913455450009075,0.00024317045003488763,1.3900167829591688e-05,0.0,0.0,0.0,0.0,0.0,0.0,0.0,0.0,0.0,0.014636762003420753,-0.2703575858793771,9.837784818583161,0.0,0.0,0.0,0.0,0.0,0.0,0.0,0.0,0.0
2025/05/20 12:49:41.765880708,1747738181,765570511,mA1/imu,-0.707386829499665,-0.7068264734353003,0.00045606674974015134,-4.3641134959503586e-05,0.0,0.0,0.0,0.0,0.0,0.0,0.0,0.0,0.0,-0.0014992053785096208,-0.0001974536674202556,-5.1925557440344896e-05,0.0,0.0,0.0,0.0,0.0,0.0,0.0,0.0,0.0,0.014753353920609422,0.36310643674463355,9.833584404805173,0.0,0.0,0.0,0.0,0.0,0.0,0.0,0.0,0.0
2025/05/20 12:49:41.817397051,1747738181,816723697,mA1/imu,-0.7073877301176527,-0.7068255862249714,0.00042775406397295944,-8.344567714776681e-05,0.0,0.0,0.0,0.0,0.0,0.0,0.0,0.0,0.0,-0.0020821299565342197,-0.00029640738465633006,-4.244409194284373e-05,0.0,0.0,0.0,0.0,0.0,0.0,0.0,0.0,0.0,0.011372780947042735,0.012259624813606193,9.849920173836397,0.0,0.0,0.0,0.0,0.0,0.0,0.0,0.0,0.0
2025/05/20 12:49:41.866579256,1747738181,866356510,mA1/imu,-0.7073877218076753,-0.7068256100363389,0.0003902340450972483,-0.00012549858233206173,0.0,0.0,0.0,0.0,0.0,0.0,0.0,0.0,0.0,-0.0024350036162887933,-0.0002595253130975451,3.40221528390718e-05,0.0,0.0,0.0,0.0,0.0,0.0,0.0,0.0,0.0,0.014733835067401023,0.10446652779466065,9.818527592061065,0.0,0.0,0.0,0.0,0.0,0.0,0.0,0.0,0.0
2025/05/20 12:49:41.919139543,1747738181,917382117,mA1/imu,-0.707387843442793,-0.7068255008497629,0.00034806097797823786,-0.0001707377869495161,0.0,0.0,0.0,0.0,0.0,0.0,0.0,0.0,0.0,-0.0022010343774301385,-5.550736701664785e-05,2.330384038171772e-05,0.0,0.0,0.0,0.0,0.0,0.0,0.0,0.0,0.0,0.014082528618054362,-0.0828317802562377,9.807064439515123,0.0,0.0,0.0,0.0,0.0,0.0,0.0,0.0,0.0
2025/05/20 12:49:41.969394888,1747738181,968793304,mA1/imu,-0.7073860824507437,-0.7068272670957751,0.000316716378375101,-0.00021103469688726656,0.0,0.0,0.0,0.0,0.0,0.0,0.0,0.0,0.0,-0.001677715934211968,-0.0005115113683059214,-0.00024893427496066917,0.0,0.0,0.0,0.0,0.0,0.0,0.0,0.0,0.0,0.03260635616993608,0.12956750105622886,9.799423451719624,0.0,0.0,0.0,0.0,0.0,0.0,0.0,0.0,0.0
2025/05/20 12:49:42.19967529,1747738182,19773295,mA1/imu,-0.7073906019688715,-0.7068227456705264,0.0002827571578632535,-0.000249994571177953,0.0,0.0,0.0,0.0,0.0,0.0,0.0,0.0,0.0,-0.0027335981917891885,-0.00012543655830979213,0.0003001936645668905,0.0,0.0,0.0,0.0,0.0,0.0,0.0,0.0,0.0,0.012499013011584051,0.6877082083593237,9.791254913499012,0.0,0.0,0.0,0.0,0.0,0.0,0.0,0.0,0.0
2025/05/20 12:49:42.70584191,1747738182,70458510,mA1/imu,0.7073912202901949,0.706822119891467,-0.00026356756090682265,0.0002877857232220988,0.0,0.0,0.0,0.0,0.0,0.0,0.0,0.0,0.0,-0.0016618849146730927,-0.00044487187753344625,5.0971204956446865e-05,0.0,0.0,0.0,0.0,0.0,0.0,0.0,0.0,0.0,0.01290825725611558,0.7704693022164705,9.78638925041711,0.0,0.0,0.0,0.0,0.0,0.0,0.0,0.0,0.0
2025/05/20 12:49:42.111631422,1747738182,111423747,mA1/imu,0.7073915689753275,0.7068217660273852,-0.0002224312927459803,0.00033126556224775776,0.0,0.0,0.0,0.0,0.0,0.0,0.0,0.0,0.0,-0.0019588931078406823,1.5765035125993649e-06,-0.00011647520979417013,0.0,0.0,0.0,0.0,0.0,0.0,0.0,0.0,0.0,0.010931228500189091,-0.005964513401514987,9.827863265503435,0.0,0.0,0.0,0.0,0.0,0.0,0.0,0.0,0.0
2025/05/20 12:49:42.161756777,1747738182,161255686,mA1/imu,0.7073900341999204,0.7068232947462749,-0.0001867109695854244,0.0003669573136662633,0.0,0.0,0.0,0.0,0.0,0.0,0.0,0.0,0.0,-0.0019384184097799085,1.56596191865654e-06,-6.877953914279077e-05,0.0,0.0,0.0,0.0,0.0,0.0,0.0,0.0,0.0,0.009609359487483772,0.00888563960903345,9.777001801923575,0.0,0.0,0.0,0.0,0.0,0.0,0.0,0.0,0.0
2025/05/20 12:49:42.213228931,1747738182,212384420,mA1/imu,0.7073891194011112,0.7068241996620032,-0.0001517874533128673,0.0004018527820210371,0.0,0.0,0.0,0.0,0.0,0.0,0.0,0.0,0.0,-0.0019859456969480395,1.5983023754418582e-06,-4.060928770062669e-05,0.0,0.0,0.0,0.0,0.0,0.0,0.0,0.0,0.0,0.008808983165784202,-0.010379563156813378,9.832887706640557,0.0,0.0,0.0,0.0,0.0,0.0,0.0,0.0,0.0
2025/05/20 12:49:42.262844541,1747738182,262260995,mA1/imu,0.7073885718517848,0.7068247350922087,-0.00012023371095444148,0.00043338109821950446,0.0,0.0,0.0,0.0,0.0,0.0,0.0,0.0,0.0,-0.0016872826964609334,1.3574971466987443e-06,-2.3978822292716482e-05,0.0,0.0,0.0,0.0,0.0,0.0,0.0,0.0,0.0,0.00836048457762656,0.011196587508515182,9.762543001670824,0.0,0.0,0.0,0.0,0.0,0.0,0.0,0.0,0.0
2025/05/20 12:49:42.313240937,1747738182,313062025,mA1/imu,0.7073890256318714,0.7068242701992669,-0.00010041341605616724,0.0004554009346450496,0.0,0.0,0.0,0.0,0.0,0.0,0.0,0.0,0.0,-0.0009154706698584693,7.232121215002181e-07,-2.26118642181186e-05,0.0,0.0,0.0,0.0,0.0,0.0,0.0,0.0,0.0,0.01631441925389244,0.005716325889604487,9.800424405381763,0.0,0.0,0.0,0.0,0.0,0.0,0.0,0.0,0.0
2025/05/20 12:49:42.365277858,1747738182,363601523,mA1/imu,0.7073879150083768,0.706825379516959,-9.593927069004643e-05,0.00045974608672790635,0.0,0.0,0.0,0.0,0.0,0.0,0.0,0.0,0.0,0.00039580593220126973,-3.592365877855631e-07,4.3080973842918335e-05,0.0,0.0,0.0,0.0,0.0,0.0,0.0,0.0,0.0,0.08378739779012176,-0.008766437657735628,9.72600798233871,0.0,0.0,0.0,0.0,0.0,0.0,0.0,0.0,0.0
2025/05/20 12:49:42.414654106,1747738182,414452942,mA1/imu,0.7073892878370462,0.7068240092609429,-0.00010788825799078373,0.00045138210733270724,0.0,0.0,0.0,0.0,0.0,0.0,0.0,0.0,0.0,0.00017634475602596274,-0.00029986957852188326,7.825957196460315e-05,0.0,0.0,0.0,0.0,0.0,0.0,0.0,0.0,0.0,0.01654732480109592,0.6840696722946404,9.756108935686758,0.0,0.0,0.0,0.0,0.0,0.0,0.0,0.0,0.0
2025/05/20 12:49:42.464614594,1747738182,464416003,mA1/imu,0.7073873486466123,0.7068259559627,-0.00013244362584991773,0.0004352135309462961,0.0,0.0,0.0,0.0,0.0,0.0,0.0,0.0,0.0,0.0007031864819541169,0.0011506575397259478,0.0004771139406781402,0.0,0.0,0.0,0.0,0.0,0.0,0.0,0.0,0.0,0.04431400030053916,-0.014991332433856083,9.861190464175571,0.0,0.0,0.0,0.0,0.0,0.0,0.0,0.0,0.0
2025/05/20 12:49:42.518235897,1747738182,515395777,mA1/imu,0.7073966484480104,0.7068166794556909,-0.00016370068702789862,0.0003696076812203848,0.0,0.0,0.0,0.0,0.0,0.0,0.0,0.0,0.0,0.0016238895862544832,0.0008623282703962644,0.0005555167457440976,0.0,0.0,0.0,0.0,0.0,0.0,0.0,0.0,0.0,0.015113608086784911,0.21293410455760076,9.76903610810758,0.0,0.0,0.0,0.0,0.0,0.0,0.0,0.0,0.0
2025/05/20 12:49:42.565263949,1747738182,565132155,mA1/imu,0.707403660192248,0.706809674355574,-0.00021495725274728436,0.00031555880238064366,0.0,0.0,0.0,0.0,0.0,0.0,0.0,0.0,0.0,0.0036184150311463284,-0.0008913546353205773,0.00010654640467511303,0.0,0.0,0.0,0.0,0.0,0.0,0.0,0.0,0.0,0.007162725505653267,-0.5319884189903237,9.768965780341853,0.0,0.0,0.0,0.0,0.0,0.0,0.0,0.0,0.0
2025/05/20 12:49:42.616523020,1747738182,616310693,mA1/imu,-0.7073983364047263,-0.7068149896578602,0.00029824611314202993,-0.0002740365681540629,0.0,0.0,0.0,0.0,0.0,0.0,0.0,0.0,0.0,0.0029361818371152724,-0.0013802841876502095,-0.000558186377929457,0.0,0.0,0.0,0.0,0.0,0.0,0.0,0.0,0.0,0.014565901129782115,0.5013350254515497,9.791833158748561,0.0,0.0,0.0,0.0,0.0,0.0,0.0,0.0,0.0
2025/05/20 12:49:42.666276586,1747738182,666085442,mA1/imu,-0.7073873666210104,-0.706825938862188,0.0003835494195268833,-0.00024204632047452305,0.0,0.0,0.0,0.0,0.0,0.0,0.0,0.0,0.0,0.00414547309861071,-0.0015861273158171276,-0.0007677003757505874,0.0,0.0,0.0,0.0,0.0,0.0,0.0,0.0,0.0,0.014386336352362038,-0.37166325497966546,9.798896284957877,0.0,0.0,0.0,0.0,0.0,0.0,0.0,0.0,0.0
2025/05/20 12:49:42.718398414,1747738182,717067485,mA1/imu,-0.7073853713093825,-0.7068279182192785,0.00044649125173101486,-0.00017643369927053572,0.0,0.0,0.0,0.0,0.0,0.0,0.0,0.0,0.0,0.0029587784259799605,5.535294036189511e-05,5.269010711165471e-05,0.0,0.0,0.0,0.0,0.0,0.0,0.0,0.0,0.0,0.014697041020175081,0.6842800252217843,9.816056817756749,0.0,0.0,0.0,0.0,0.0,0.0,0.0,0.0,0.0
2025/05/20 12:49:42.767984511,1747738182,767659428,mA1/imu,-0.7073885000132573,-0.7068247595105035,0.000506136578062521,-0.000114968157108875,0.0,0.0,0.0,0.0,0.0,0.0,0.0,0.0,0.0,0.0032981753904902217,0.0002732274759973956,0.00023230560652828764,0.0,0.0,0.0,0.0,0.0,0.0,0.0,0.0,0.0,-0.023163096932509078,-0.04627781279592017,9.804223368904225,0.0,0.0,0.0,0.0,0.0,0.0,0.0,0.0,0.0
2025/05/20 12:49:42.819489577,1747738182,818637442,mA1/imu,-0.7073876493977952,-0.7068255738950532,0.0005633342793278879,-6.497599859048867e-05,0.0,0.0,0.0,0.0,0.0,0.0,0.0,0.0,0.0,0.002772330805427659,-0.0004894937222483651,-0.000266889470676842,0.0,0.0,0.0,0.0,0.0,0.0,0.0,0.0,0.0,0.0016751279094671693,0.010681175282884078,9.859369692320989,0.0,0.0,0.0,0.0,0.0,0.0,0.0,0.0,0.0
2025/05/20 12:49:42.870252352,1747738182,868397467,mA1/imu,-0.7073874554366842,-0.7068257314356698,0.0006105825762826946,-2.1451361454799436e-05,0.0,0.0,0.0,0.0,0.0,0.0,0.0,0.0,0.0,0.0020597429190894138,0.00031044776677015105,9.13696537214411e-05,0.0,0.0,0.0,0.0,0.0,0.0,0.0,0.0,0.0,-0.03554857423549461,-0.02277511122542948,9.819987041197491,0.0,0.0,0.0,0.0,0.0,0.0,0.0,0.0,0.0
2025/05/20 12:49:42.919457039,1747738182,919182369,mA1/imu,-0.707387205923755,-0.7068259525120455,0.0006431415804536841,1.0942125694487267e-05,0.0,0.0,0.0,0.0,0.0,0.0,0.0,0.0,0.0,0.0014095035320238955,-2.2419232810202245e-05,-6.175323130476541e-05,0.0,0.0,0.0,0.0,0.0,0.0,0.0,0.0,0.0,0.013094728631249284,-0.06174070190712308,9.852621646027103,0.0,0.0,0.0,0.0,0.0,0.0,0.0,0.0,0.0
2025/05/20 12:49:42.971834211,1747738182,970534757,mA1/imu,-0.7073874877191928,-0.706825657377425,0.0006567645308634793,3.084883482906849e-05,0.0,0.0,0.0,0.0,0.0,0.0,0.0,0.0,0.0,0.0008336343243975597,0.00021328944428462653,5.7108395300571745e-05,0.0,0.0,0.0,0.0,0.0,0.0,0.0,0.0,0.0,0.02420963185517634,-0.01061285672683875,9.87786874226569,0.0,0.0,0.0,0.0,0.0,0.0,0.0,0.0,0.0
2025/05/20 12:49:43.12716454,1747738183,12569219,mA1/imu,-0.7073874056844758,-0.7068257354533032,0.0006606146462148244,3.960016537203246e-05,0.0,0.0,0.0,0.0,0.0,0.0,0.0,0.0,0.0,0.0009069915491665424,-2.2546143406451953e-05,-1.5149182004489801e-05,0.0,0.0,0.0,0.0,0.0,0.0,0.0,0.0,0.0,0.012416403575914673,-0.4664548500287392,9.853742669414904,0.0,0.0,0.0,0.0,0.0,0.0,0.0,0.0,0.0
2025/05/20 12:49:43.62570335,1747738183,62139717,mA1/imu,-0.7073880627565393,-0.7068250894321262,0.0006488474428510168,2.4815579475614274e-05,0.0,0.0,0.0,0.0,0.0,0.0,0.0,0.0,0.0,-0.001478705189917883,-0.00012571841474729606,7.185757563713671e-05,0.0,0.0,0.0,0.0,0.0,0.0,0.0,0.0,0.0,0.012916298402689484,0.43441661021252603,9.85327075997084,0.0,0.0,0.0,0.0,0.0,0.0,0.0,0.0,0.0
2025/05/20 12:49:43.113539219,1747738183,113217714,mA1/imu,-0.7073875326388186,-0.7068256496558334,0.0006161620220316154,3.68840809675025e-07,0.0,0.0,0.0,0.0,0.0,0.0,0.0,0.0,0.0,-0.0023248140781004212,2.0498506002255437e-06,1.3498019116903212e-05,0.0,0.0,0.0,0.0,0.0,0.0,0.0,0.0,0.0,0.03957434147706252,-0.2025989505171741,9.835112253881594,0.0,0.0,0.0,0.0,0.0,0.0,0.0,0.0,0.0
2025/05/20 12:49:43.165166739,1747738183,164991829,mA1/imu,-0.7073876656936409,-0.7068255489958151,0.0005764666269444097,-3.738307550912661e-05,0.0,0.0,0.0,0.0,0.0,0.0,0.0,0.0,0.0,-0.002583095840644754,0.0002903222480398872,1.1247031717076779e-05,0.0,0.0,0.0,0.0,0.0,0.0,0.0,0.0,0.0,-0.01891759481757229,-0.0026198120461043417,9.818382242490976,0.0,0.0,0.0,0.0,0.0,0.0,0.0,0.0,0.0
2025/05/20 12:49:43.217353316,1747738183,216041759,mA1/imu,-0.7073877467021418,-0.7068255029696885,0.0005262082626858603,-8.527706353547173e-05,0.0,0.0,0.0,0.0,0.0,0.0,0.0,0.0,0.0,-0.002955536095527959,7.202846028417335e-05,5.085738624183145e-05,0.0,0.0,0.0,0.0,0.0,0.0,0.0,0.0,0.0,0.015760926926238598,0.023250453623641847,9.873365416145697,0.0,0.0,0.0,0.0,0.0,0.0,0.0,0.0,0.0
2025/05/20 12:49:43.265792571,1747738183,265605287,mA1/imu,-0.7073869769400841,-0.7068263060140041,0.0004686312649536779,-0.00013552455135094636,0.0,0.0,0.0,0.0,0.0,0.0,0.0,0.0,0.0,-0.003619385797353787,0.00026028855433520996,-3.4813643665532875e-05,0.0,0.0,0.0,0.0,0.0,0.0,0.0,0.0,0.0,0.010490958515348484,0.40251888279808645,9.81964054261617,0.0,0.0,0.0,0.0,0.0,0.0,0.0,0.0,0.0
2025/05/20 12:49:43.316850214,1747738183,316651787,mA1/imu,-0.7073869792151105,-0.7068263287666815,0.000410481092093106,-0.0001846737908777641,0.0,0.0,0.0,0.0,0.0,0.0,0.0,0.0,0.0,-0.0031364030314907153,-3.985549083252895e-05,-3.762373425436355e-05,0.0,0.0,0.0,0.0,0.0,0.0,0.0,0.0,0.0,0.010348234471282625,0.7341357175158241,9.805945313258054,0.0,0.0,0.0,0.0,0.0,0.0,0.0,0.0,0.0
2025/05/20 12:49:43.366546487,1747738183,366385442,mA1/imu,-0.7073868327884878,-0.7068264886406435,0.00034939660485491325,-0.0002483453705095895,0.0,0.0,0.0,0.0,0.0,0.0,0.0,0.0,0.0,-0.004594067619360601,-8.70220750915568e-05,1.3196004202930806e-05,0.0,0.0,0.0,0.0,0.0,0.0,0.0,0.0,0.0,0.010594925278206985,0.6636454453553979,9.795667173950356,0.0,0.0,0.0,0.0,0.0,0.0,0.0,0.0,0.0
2025/05/20 12:49:43.417954231,1747738183,417491091,mA1/imu,0.7073874550727833,0.7068258674463996,-0.00029265161919920466,0.0003096277210229203,0.0,0.0,0.0,0.0,0.0,0.0,0.0,0.0,0.0,-0.003661003987355336,-0.00013008820779451387,2.8775182828173677e-05,0.0,0.0,0.0,0.0,0.0,0.0,0.0,0.0,0.0,0.013812031989071943,0.06512431350282301,9.874607647460227,0.0,0.0,0.0,0.0,0.0,0.0,0.0,0.0,0.0
2025/05/20 12:49:43.470990838,1747738183,469822083,mA1/imu,0.7073881099458021,0.7068252099435559,-0.00024594949560186616,0.0003521425840075324,0.0,0.0,0.0,0.0,0.0,0.0,0.0,0.0,0.0,-0.0013906779515311793,0.00031424048685478145,3.275735866148854e-05,0.0,0.0,0.0,0.0,0.0,0.0,0.0,0.0,0.0,0.007067609036294199,-0.44627987545469416,9.773085858467752,0.0,0.0,0.0,0.0,0.0,0.0,0.0,0.0,0.0
2025/05/20 12:49:43.522176363,1747738183,520954034,mA1/imu,0.7073876955283236,0.7068256159680469,-0.00020640524747425067,0.0003927128627328733,0.0,0.0,0.0,0.0,0.0,0.0,0.0,0.0,0.0,-0.0016431534642945562,-9.403444596786752e-05,5.216103177976234e-05,0.0,0.0,0.0,0.0,0.0,0.0,0.0,0.0,0.0,0.040711396580047035,-0.35076658371783487,9.807300672482743,0.0,0.0,0.0,0.0,0.0,0.0,0.0,0.0,0.0
2025/05/20 12:49:43.562848284,1747738183,560679892,mA1/imu,0.7073892538797149,0.7068240514208061,-0.0001962660162424968,0.0004065811464048158,0.0,0.0,0.0,0.0,0.0,0.0,0.0,0.0,0.0,-0.0021118024405765608,-0.00010282712027060787,0.00011081815518651682,0.0,0.0,0.0,0.0,0.0,0.0,0.0,0.0,0.0,0.010067712062311229,0.6485171615905408,9.76434469860627,0.0,0.0,0.0,0.0,0.0,0.0,0.0,0.0,0.0
2025/05/20 12:49:43.611909513,1747738183,611626670,mA1/imu,0.7073854395332109,0.7068278567694105,-0.0002045833129530936,0.0004230565397987622,0.0,0.0,0.0,0.0,0.0,0.0,0.0,0.0,0.0,-0.0001304079153486515,-0.000831614973225469,-0.00028055504592933487,0.0,0.0,0.0,0.0,0.0,0.0,0.0,0.0,0.0,0.009285670450123629,0.7503501910479659,9.75996307707197,0.0,0.0,0.0,0.0,0.0,0.0,0.0,0.0,0.0
2025/05/20 12:49:43.661712458,1747738183,661440260,mA1/imu,0.7073875927386408,0.7068257006246806,-0.00020683953659460418,0.00042402036094331776,0.0,0.0,0.0,0.0,0.0,0.0,0.0,0.0,0.0,0.0006514629354749504,0.00010118079038587063,0.00023646399376546043,0.0,0.0,0.0,0.0,0.0,0.0,0.0,0.0,0.0,0.009621204957041562,0.15122436782007434,9.760423610988113,0.0,0.0,0.0,0.0,0.0,0.0,0.0,0.0,0.0
2025/05/20 12:49:43.712610505,1747738183,712375881,mA1/imu,0.7073850585044643,0.7068282352558497,-0.00022536036229356963,0.00041720791463680266,0.0,0.0,0.0,0.0,0.0,0.0,0.0,0.0,0.0,0.0016826805043441088,-0.0004996473492506191,-0.00042452139111800243,0.0,0.0,0.0,0.0,0.0,0.0,0.0,0.0,0.0,0.012304610415567165,-0.22530077276761676,9.763771515289928,0.0,0.0,0.0,0.0,0.0,0.0,0.0,0.0,0.0
2025/05/20 12:49:43.762510353,1747738183,762151937,mA1/imu,0.7073786488655793,0.7068346489156385,-0.0002664163821730819,0.0003940098030436525,0.0,0.0,0.0,0.0,0.0,0.0,0.0,0.0,0.0,0.0010240403630542272,-0.0005108762846774668,-0.00032447797327703366,0.0,0.0,0.0,0.0,0.0,0.0,0.0,0.0,0.0,0.012445507213373853,0.4686425469779956,9.769925196395091,0.0,0.0,0.0,0.0,0.0,0.0,0.0,0.0,0.0
2025/05/20 12:49:43.814664437,1747738183,813096685,mA1/imu,0.7073807938066016,0.7068325154226354,-0.00029685010681367437,0.00034579598986399815,0.0,0.0,0.0,0.0,0.0,0.0,0.0,0.0,0.0,0.0027223342425061856,0.001031103909977516,0.00045953067887105934,0.0,0.0,0.0,0.0,0.0,0.0,0.0,0.0,0.0,0.010836095130948107,-0.18254242607938184,9.77861974885354,0.0,0.0,0.0,0.0,0.0,0.0,0.0,0.0,0.0
2025/05/20 12:49:43.864395214,1747738183,863784380,mA1/imu,-0.7073897029685171,-0.7068236137709176,0.0003249982910975916,-0.0002855276592587507,0.0,0.0,0.0,0.0,0.0,0.0,0.0,0.0,0.0,0.002751033503416382,0.0006743197233703049,0.0005232006294698017,0.0,0.0,0.0,0.0,0.0,0.0,0.0,0.0,0.0,0.01938845374893381,-0.12148721411283402,9.787372993020021,0.0,0.0,0.0,0.0,0.0,0.0,0.0,0.0,0.0
2025/05/20 12:49:43.916261167,1747738183,914729849,mA1/imu,-0.7073904777024665,-0.7068228267008412,0.00038407245018112486,-0.00023706299181718124,0.0,0.0,0.0,0.0,0.0,0.0,0.0,0.0,0.0,0.002484923466964604,-0.0002951143604433648,5.064415273746154e-05,0.0,0.0,0.0,0.0,0.0,0.0,0.0,0.0,0.0,0.00894136387470325,0.3865462553487266,9.799522166612157,0.0,0.0,0.0,0.0,0.0,0.0,0.0,0.0,0.0
2025/05/20 12:49:43.964906883,1747738183,964651650,mA1/imu,-0.7073920182990903,-0.7068212675792649,0.00043805419751215453,-0.00019040194548566007,0.0,0.0,0.0,0.0,0.0,0.0,0.0,0.0,0.0,0.0028278015035609434,-2.201468585459705e-05,0.00012987918339662661,0.0,0.0,0.0,0.0,0.0,0.0,0.0,0.0,0.0,-0.001160834475691517,0.11361393167777215,9.817841346816019,0.0,0.0,0.0,0.0,0.0,0.0,0.0,0.0,0.0
2025/05/20 12:49:44.15825904,1747738184,15472264,mA1/imu,-0.70739030357734,-0.7068229568593223,0.0004994081766909589,-0.00012904602422451585,0.0,0.0,0.0,0.0,0.0,0.0,0.0,0.0,0.0,0.004069473506365062,8.734878233859471e-06,-6.992637692182784e-05,0.0,0.0,0.0,0.0,0.0,0.0,0.0,0.0,0.0,0.009028499366558664,0.1471132523101127,9.81983540739545,0.0,0.0,0.0,0.0,0.0,0.0,0.0,0.0,0.0
2025/05/20 12:49:44.65390045,1747738184,65266264,mA1/imu,-0.7073898738308352,-0.7068233563741192,0.0005500159973260259,-8.226799407400396e-05,0.0,0.0,0.0,0.0,0.0,0.0,0.0,0.0,0.0,0.0020414283747456474,-0.00033617623482006025,1.4254362371656668e-05,0.0,0.0,0.0,0.0,0.0,0.0,0.0,0.0,0.0,0.033112838525162565,0.06901107806455806,9.825287767998562,0.0,0.0,0.0,0.0,0.0,0.0,0.0,0.0,0.0
2025/05/20 12:49:44.116668970,1747738184,116328949,mA1/imu,-0.707386315315406,-0.7068268829044793,0.0005966087941281407,-5.065547651080595e-05,0.0,0.0,0.0,0.0,0.0,0.0,0.0,0.0,0.0,0.0015781259615630485,-0.000178733900378104,-0.00044189898581995825,0.0,0.0,0.0,0.0,0.0,0.0,0.0,0.0,0.0,0.03318531775147123,-0.05347760295437379,9.800407457229184,0.0,0.0,0.0,0.0,0.0,0.0,0.0,0.0,0.0
2025/05/20 12:49:44.166240208,1747738184,165997503,mA1/imu,-0.7073819901936742,-0.7068311773204422,0.0006370339753503417,-3.008567891276163e-05,0.0,0.0,0.0,0.0,0.0,0.0,0.0,0.0,0.0,0.00035407720001531085,-0.0004351713825732945,-4.82101999644407e-05,0.0,0.0,0.0,0.0,0.0,0.0,0.0,0.0,0.0,-0.00398061837145958,0.5772816856672685,9.841400167884368,0.0,0.0,0.0,0.0,0.0,0.0,0.0,0.0,0.0
2025/05/20 12:49:44.217747403,1747738184,217111966,mA1/imu,-0.7073875094836541,-0.7068256384495682,0.0006542150664636957,-1.6109632488369395e-05,0.0,0.0,0.0,0.0,0.0,0.0,0.0,0.0,0.0,0.00023999602931087236,-6.43298215446535e-08,6.202087880114117e-05,0.0,0.0,0.0,0.0,0.0,0.0,0.0,0.0,0.0,0.17530130421889759,0.216136002897129,9.905026481575824,0.0,0.0,0.0,0.0,0.0,0.0,0.0,0.0,0.0
2025/05/20 12:49:44.267011816,1747738184,266691513,mA1/imu,-0.7073885830903668,-0.7068245605647814,0.0006580947434308704,-2.667550486731428e-06,0.0,0.0,0.0,0.0,0.0,0.0,0.0,0.0,0.0,-0.0003380471005128333,5.772995861854523e-05,3.93644556468254e-05,0.0,0.0,0.0,0.0,0.0,0.0,0.0,0.0,0.0,0.03725228695883739,0.24298210598130587,9.84567976774181,0.0,0.0,0.0,0.0,0.0,0.0,0.0,0.0,0.0
2025/05/20 12:49:44.319073955,1747738184,318855443,mA1/imu,-0.7073877272535465,-0.7068254193104412,0.0006555189859565678,-1.557370374325037e-05,0.0,0.0,0.0,0.0,0.0,0.0,0.0,0.0,0.0,-0.00024249016005217083,-0.0003479467268736383,-5.609538122396827e-05,0.0,0.0,0.0,0.0,0.0,0.0,0.0,0.0,0.0,0.0213404486801057,0.16265407217863384,9.844446814954912,0.0,0.0,0.0,0.0,0.0,0.0,0.0,0.0,0.0
2025/05/20 12:49:44.369228633,1747738184,368678894,mA1/imu,-0.707397705975585,-0.7068154677848608,0.0006160819686726561,-2.2881349944353646e-05,0.0,0.0,0.0,0.0,0.0,0.0,0.0,0.0,0.0,-0.0016237199760205632,0.001105697968222178,0.0007357820247245733,0.0,0.0,0.0,0.0,0.0,0.0,0.0,0.0,0.0,0.02491519526635179,0.6953667516261661,9.84082908074332,0.0,0.0,0.0,0.0,0.0,0.0,0.0,0.0,0.0
2025/05/20 12:49:44.415854765,1747738184,414168888,mA1/imu,-0.7074068989956289,-0.7068062954032766,0.0005810329756457519,-4.931901616475262e-05,0.0,0.0,0.0,0.0,0.0,0.0,0.0,0.0,0.0,-0.002527298039061496,4.1224603142866635e-05,0.00014618216917663122,0.0,0.0,0.0,0.0,0.0,0.0,0.0,0.0,0.0,-0.05023154423679523,-0.17268873135943566,9.799079610997644,0.0,0.0,0.0,0.0,0.0,0.0,0.0,0.0,0.0
2025/05/20 12:49:44.463650505,1747738184,463528331,mA1/imu,-0.7074107854528807,-0.7068024316595226,0.0005423050345006364,-9.555299049820602e-05,0.0,0.0,0.0,0.0,0.0,0.0,0.0,0.0,0.0,-0.0021943498202470673,-0.00038974413219543773,0.0002686536206168649,0.0,0.0,0.0,0.0,0.0,0.0,0.0,0.0,0.0,0.0228354150854466,-0.48992112594959947,9.823549843293918,0.0,0.0,0.0,0.0,0.0,0.0,0.0,0.0,0.0
2025/05/20 12:49:44.514854507,1747738184,514565710,mA1/imu,-0.7074101123649829,-0.706803112843389,0.0005138927683034311,-0.00016885757487365187,0.0,0.0,0.0,0.0,0.0,0.0,0.0,0.0,0.0,-0.0020196094566418605,-0.001708973449494599,-0.0002346986504422139,0.0,0.0,0.0,0.0,0.0,0.0,0.0,0.0,0.0,0.022746735799947803,-0.4574471695160869,9.812686855714254,0.0,0.0,0.0,0.0,0.0,0.0,0.0,0.0,0.0
2025/05/20 12:49:44.564918641,1747738184,564558431,mA1/imu,-0.7074055447358025,-0.7068076735145149,0.0004852560700017411,-0.0002691924740015781,0.0,0.0,0.0,0.0,0.0,0.0,0.0,0.0,0.0,-0.0036170869999277567,-0.002203255237140745,-0.0003558560634803542,0.0,0.0,0.0,0.0,0.0,0.0,0.0,0.0,0.0,-0.017017462410370734,-0.002418561243906462,9.78713094813269,0.0,0.0,0.0,0.0,0.0,0.0,0.0,0.0,0.0
2025/05/20 12:49:44.615744346,1747738184,615358075,mA1/imu,-0.7073913171001213,-0.7068218684475279,0.0004691882840357905,-0.0003881211865013012,0.0,0.0,0.0,0.0,0.0,0.0,0.0,0.0,0.0,-0.004385538466553028,-0.002951535399119807,-0.0007471524838288087,0.0,0.0,0.0,0.0,0.0,0.0,0.0,0.0,0.0,0.022031165317636367,0.2059599273929154,9.79582758278031,0.0,0.0,0.0,0.0,0.0,0.0,0.0,0.0,0.0
2025/05/20 12:49:44.665641064,1747738184,665260227,mA1/imu,0.7073830101004756,0.7068301414704761,-0.0004407558309796218,0.0004835951971092023,0.0,0.0,0.0,0.0,0.0,0.0,0.0,0.0,0.0,-0.0026000152057907675,1.22013980022155e-06,5.5400343502467306e-05,0.0,0.0,0.0,0.0,0.0,0.0,0.0,0.0,0.0,0.058085650799373695,-0.07495056838513317,9.807322748527689,0.0,0.0,0.0,0.0,0.0,0.0,0.0,0.0,0.0
2025/05/20 12:49:44.717787649,1747738184,716188023,mA1/imu,0.7073890988409325,0.7068240475608647,-0.00039064262478193535,0.000525384649059314,0.0,0.0,0.0,0.0,0.0,0.0,0.0,0.0,0.0,-0.002586133827240972,0.0004115274974891598,0.0005408591799743557,0.0,0.0,0.0,0.0,0.0,0.0,0.0,0.0,0.0,0.046278726116545786,0.013317932309897137,9.761839365278549,0.0,0.0,0.0,0.0,0.0,0.0,0.0,0.0,0.0
2025/05/20 12:49:44.766136967,1747738184,765875297,mA1/imu,0.7073930815946601,0.7068200426707836,-0.00035992802238257905,0.0005708263317777267,0.0,0.0,0.0,0.0,0.0,0.0,0.0,0.0,0.0,-0.0019195578541577978,-0.0004277663028352979,0.00019126867651143964,0.0,0.0,0.0,0.0,0.0,0.0,0.0,0.0,0.0,0.019796798033378735,-0.05161008856341918,9.77201818990716,0.0,0.0,0.0,0.0,0.0,0.0,0.0,0.0,0.0
2025/05/20 12:49:44.817135252,1747738184,816886005,mA1/imu,0.7073916745323632,0.7068214089148827,-0.0003579058319366715,0.0006217759201052106,0.0,0.0,0.0,0.0,0.0,0.0,0.0,0.0,0.0,-0.0008132844842207883,-0.0016136928347657705,-6.260928585736942e-05,0.0,0.0,0.0,0.0,0.0,0.0,0.0,0.0,0.0,0.01927243703349659,0.06554554994420693,9.76728198484206,0.0,0.0,0.0,0.0,0.0,0.0,0.0,0.0,0.0
2025/05/20 12:49:44.866820344,1747738184,866638652,mA1/imu,0.7073865518503251,0.7068264752662783,-0.0003718902341283755,0.0006795745805016845,0.0,0.0,0.0,0.0,0.0,0.0,0.0,0.0,0.0,-0.0006913839513906814,-0.002045674356196542,-0.0003372673582505304,0.0,0.0,0.0,0.0,0.0,0.0,0.0,0.0,0.0,0.01940935099637545,-0.008312582969741765,9.764613532069587,0.0,0.0,0.0,0.0,0.0,0.0,0.0,0.0,0.0
2025/05/20 12:49:44.917743907,1747738184,917613631,mA1/imu,0.7073884510421088,0.7068245593788944,-0.0003796906562774589,0.0006909602618079182,0.0,0.0,0.0,0.0,0.0,0.0,0.0,0.0,0.0,-0.000491041779011927,-0.00014401963561964947,0.00027429604203097933,0.0,0.0,0.0,0.0,0.0,0.0,0.0,0.0,0.0,0.019270224170048374,0.6775293293006623,9.766480534948139,0.0,0.0,0.0,0.0,0.0,0.0,0.0,0.0,0.0
2025/05/20 12:49:44.968130458,1747738184,967577342,mA1/imu,0.7073892200077447,0.7068237765193077,-0.0003970020802998472,0.0006948044087492609,0.0,0.0,0.0,0.0,0.0,0.0,0.0,0.0,0.0,0.00015108878759947914,-0.0012784393378900212,-0.0004787692477707531,0.0,0.0,0.0,0.0,0.0,0.0,0.0,0.0,0.0,-0.06523572383143394,0.01021442907445921,9.812693350639146,0.0,0.0,0.0,0.0,0.0,0.0,0.0,0.0,0.0
2025/05/20 12:49:45.20902362,1747738185,19066690,mA1/imu,0.7073796473567376,0.706833341289833,-0.0004320515066570741,0.0006895491305630725,0.0,0.0,0.0,0.0,0.0,0.0,0.0,0.0,0.0,0.0011602909295194814,-0.0005257035049860976,-0.0005874099179152627,0.0,0.0,0.0,0.0,0.0,0.0,0.0,0.0,0.0,0.007518689536167765,0.09313471847474333,9.772413727142702,0.0,0.0,0.0,0.0,0.0,0.0,0.0,0.0,0.0
2025/05/20 12:49:45.69260736,1747738185,68995257,mA1/imu,0.7073733699838692,0.7068396444207964,-0.000442952826888676,0.0006605342831183031,0.0,0.0,0.0,0.0,0.0,0.0,0.0,0.0,0.0,0.0015352335698747466,0.0017877773359308777,0.00013358872445783286,0.0,0.0,0.0,0.0,0.0,0.0,0.0,0.0,0.0,0.029859204394366255,-0.10042169593519684,9.793499824488851,0.0,0.0,0.0,0.0,0.0,0.0,0.0,0.0,0.0
2025/05/20 12:49:45.121418454,1747738185,119920773,mA1/imu,0.7073788813463345,0.7068341978404189,-0.00042691824186480366,0.0005939101907073567,0.0,0.0,0.0,0.0,0.0,0.0,0.0,0.0,0.0,0.0008063167160425853,0.0031442035972845256,0.0007963104397730563,0.0,0.0,0.0,0.0,0.0,0.0,0.0,0.0,0.0,0.12239836772494087,-0.27779591888867444,9.764887551219164,0.0,0.0,0.0,0.0,0.0,0.0,0.0,0.0,0.0
2025/05/20 12:49:45.169827916,1747738185,169566550,mA1/imu,0.7073931689465498,0.7068199942663792,-0.00039541332809506875,0.0004938434303628231,0.0,0.0,0.0,0.0,0.0,0.0,0.0,0.0,0.0,0.0015913193814388008,0.004078761504529088,0.0008084710253104515,0.0,0.0,0.0,0.0,0.0,0.0,0.0,0.0,0.0,-0.0030037346843588084,0.08635471394404061,9.794371643191955,0.0,0.0,0.0,0.0,0.0,0.0,0.0,0.0,0.0
2025/05/20 12:49:45.221119530,1747738185,220570006,mA1/imu,0.7074069021936334,0.7068063392693531,-0.0003452672126549193,0.0003927951312501218,0.0,0.0,0.0,0.0,0.0,0.0,0.0,0.0,0.0,0.0021399380617580796,0.004369333152107277,0.0007490061588309338,0.0,0.0,0.0,0.0,0.0,0.0,0.0,0.0,0.0,-0.0011421028577766838,0.1368153021058739,9.807976933440758,0.0,0.0,0.0,0.0,0.0,0.0,0.0,0.0,0.0
2025/05/20 12:49:45.270617088,1747738185,270421436,mA1/imu,-0.7073997527376222,-0.7068135156284399,0.0003792132310101061,-0.0003164633337607289,0.0,0.0,0.0,0.0,0.0,0.0,0.0,0.0,0.0,0.0036878107797784928,0.0013222921110856755,-0.00048088090309534925,0.0,0.0,0.0,0.0,0.0,0.0,0.0,0.0,0.0,-0.0021963261170038235,-0.0008605815531008625,9.815788795980982,0.0,0.0,0.0,0.0,0.0,0.0,0.0,0.0,0.0
2025/05/20 12:49:45.312548072,1747738185,311172054,mA1/imu,-0.7073921104734086,-0.7068211842879735,0.00039529442420878656,-0.00024335990177738905,0.0,0.0,0.0,0.0,0.0,0.0,0.0,0.0,0.0,0.0016852686279261945,0.0017943607889056668,-0.00039876551692806105,0.0,0.0,0.0,0.0,0.0,0.0,0.0,0.0,0.0,-0.0011815579253992414,0.4762765837392742,9.824166552974042,0.0,0.0,0.0,0.0,0.0,0.0,0.0,0.0,0.0
2025/05/20 12:49:45.361301044,1747738185,360969333,mA1/imu,-0.707386121310426,-0.7068271997613826,0.00039444948499761147,-0.0001716521993931115,0.0,0.0,0.0,0.0,0.0,0.0,0.0,0.0,0.0,0.00034989086050950485,0.00223536648138326,-0.0002995102620598761,0.0,0.0,0.0,0.0,0.0,0.0,0.0,0.0,0.0,-0.003935231580849406,0.44206850593565356,9.830123694354771,0.0,0.0,0.0,0.0,0.0,0.0,0.0,0.0,0.0
2025/05/20 12:49:45.412323473,1747738185,412136614,mA1/imu,-0.7073817618098942,-0.7068315818257688,0.0003782784009557659,-0.00012205680241015579,0.0,0.0,0.0,0.0,0.0,0.0,0.0,0.0,0.0,0.0008616680579783553,0.002015982076965833,-6.719917434093389e-05,0.0,0.0,0.0,0.0,0.0,0.0,0.0,0.0,0.0,-0.005298488212337209,-0.006282985111735752,9.859053032907456,0.0,0.0,0.0,0.0,0.0,0.0,0.0,0.0,0.0
2025/05/20 12:49:45.462735013,1747738185,461913479,mA1/imu,-0.7073927680227889,-0.7068205971334276,0.00033551117401700234,-5.147090096227453e-05,0.0,0.0,0.0,0.0,0.0,0.0,0.0,0.0,0.0,0.002370660982767394,0.0034420608072143898,0.0007735196482582956,0.0,0.0,0.0,0.0,0.0,0.0,0.0,0.0,0.0,-0.0072174138925683905,-0.4174706012841604,9.839339254920985,0.0,0.0,0.0,0.0,0.0,0.0,0.0,0.0,0.0
2025/05/20 12:49:45.513236627,1747738185,512849889,mA1/imu,-0.7074067344420933,-0.7068066498260335,0.0002679637166992789,4.808243563993381e-06,0.0,0.0,0.0,0.0,0.0,0.0,0.0,0.0,0.0,0.0005485246798576492,0.003483980997319609,0.000795868304981388,0.0,0.0,0.0,0.0,0.0,0.0,0.0,0.0,0.0,-0.002946835027819925,-0.14495037034226652,9.840283763297878,0.0,0.0,0.0,0.0,0.0,0.0,0.0,0.0,0.0
2025/05/20 12:49:45.562974174,1747738185,562632205,mA1/imu,-0.7074077643328677,-0.7068056278342078,0.00024102637028003394,3.646579286877832e-05,0.0,0.0,0.0,0.0,0.0,0.0,0.0,0.0,0.0,0.0008230472222826511,0.0009243800194806866,-0.00027649068793953564,0.0,0.0,0.0,0.0,0.0,0.0,0.0,0.0,0.0,-0.002899193238796648,-0.2699678512367253,9.840073309611578,0.0,0.0,0.0,0.0,0.0,0.0,0.0,0.0,0.0
2025/05/20 12:49:45.617390567,1747738185,617046238,mA1/imu,-0.7074014045225916,-0.7068119981102251,0.00022395562107014,4.528548832192142e-05,0.0,0.0,0.0,0.0,0.0,0.0,0.0,0.0,0.0,-0.0014863267910228343,0.0002809770415486025,-0.0007904387811347665,0.0,0.0,0.0,0.0,0.0,0.0,0.0,0.0,0.0,-0.04275662766701125,0.22782600306623993,9.848623401888432,0.0,0.0,0.0,0.0,0.0,0.0,0.0,0.0,0.0
2025/05/20 12:49:45.668356950,1747738185,666734988,mA1/imu,-0.7073842765515986,-0.7068291481297779,0.0001971127037556449,4.2288129784162176e-05,0.0,0.0,0.0,0.0,0.0,0.0,0.0,0.0,0.0,-0.0023508782706713922,0.00043766835418224516,-0.0010432191937605523,0.0,0.0,0.0,0.0,0.0,0.0,0.0,0.0,0.0,0.014627284150967144,0.6369876304058666,9.834014342645695,0.0,0.0,0.0,0.0,0.0,0.0,0.0,0.0,0.0
2025/05/20 12:49:45.718150646,1747738185,717852111,mA1/imu,-0.7073705486295537,-0.7068428956213954,0.00016665567126827592,8.183682737471578e-06,0.0,0.0,0.0,0.0,0.0,0.0,0.0,0.0,0.0,-0.0026726697581331955,0.00011163518725774343,-0.00022269967040472298,0.0,0.0,0.0,0.0,0.0,0.0,0.0,0.0,0.0,0.09262993378613676,0.02012807025381165,9.844111522989309,0.0,0.0,0.0,0.0,0.0,0.0,0.0,0.0,0.0
2025/05/20 12:49:45.767935724,1747738185,767500238,mA1/imu,-0.7073677468677657,-0.7068457082223643,0.00012411935183137887,-7.295976929224254e-06,0.0,0.0,0.0,0.0,0.0,0.0,0.0,0.0,0.0,-0.001452561168582796,0.0008238336986546936,-0.00019362604889584006,0.0,0.0,0.0,0.0,0.0,0.0,0.0,0.0,0.0,-0.008780481566359404,0.12003517605086078,9.815828880733315,0.0,0.0,0.0,0.0,0.0,0.0,0.0,0.0,0.0
2025/05/20 12:49:45.818977241,1747738185,818517928,mA1/imu,-0.7073632116236893,-0.7068502535036317,6.572236714875868e-05,-4.0544317772718577e-05,0.0,0.0,0.0,0.0,0.0,0.0,0.0,0.0,0.0,-0.0019592061554327316,0.0006316138948084892,-0.0002713443884445686,0.0,0.0,0.0,0.0,0.0,0.0,0.0,0.0,0.0,-0.005602172998080735,0.12757049368526882,9.807135873432516,0.0,0.0,0.0,0.0,0.0,0.0,0.0,0.0,0.0
2025/05/20 12:49:45.868757179,1747738185,868398885,mA1/imu,0.7073657725249269,0.7068476917421099,1.8959125312452505e-06,6.734589813260751e-05,0.0,0.0,0.0,0.0,0.0,0.0,0.0,0.0,0.0,-0.0029352080948763454,0.0016590037569219997,0.0004533356448289689,0.0,0.0,0.0,0.0,0.0,0.0,0.0,0.0,0.0,0.0013571030521553678,0.016969939956593405,9.787431366548923,0.0,0.0,0.0,0.0,0.0,0.0,0.0,0.0,0.0
2025/05/20 12:49:45.919619077,1747738185,919364522,mA1/imu,0.7073752454360754,0.7068382057625282,8.03055473763021e-05,8.105356807450069e-05,0.0,0.0,0.0,0.0,0.0,0.0,0.0,0.0,0.0,-0.003311003848455861,0.0025728980715300363,0.0005013894644620998,0.0,0.0,0.0,0.0,0.0,0.0,0.0,0.0,0.0,0.005045558066397715,-0.20011213005354542,9.843683476753718,0.0,0.0,0.0,0.0,0.0,0.0,0.0,0.0,0.0
2025/05/20 12:49:45.969378165,1747738185,969185562,mA1/imu,0.7073860876720295,0.7068273435001158,0.00015047937629161833,8.248991652943148e-05,0.0,0.0,0.0,0.0,0.0,0.0,0.0,0.0,0.0,-0.0036623112966282755,0.002339716238264348,0.0006473605099393786,0.0,0.0,0.0,0.0,0.0,0.0,0.0,0.0,0.0,-0.008820819992678721,0.48746580498369035,9.857762340292192,0.0,0.0,0.0,0.0,0.0,0.0,0.0,0.0,0.0
2025/05/20 12:49:46.12008254,1747738186,11439111,mA1/imu,0.7073949317595637,0.7068184896737159,0.00015190860312262928,0.0001004988844085922,0.0,0.0,0.0,0.0,0.0,0.0,0.0,0.0,0.0,-0.0012995193684188088,-0.0008674178922689438,0.0006121467128736969,0.0,0.0,0.0,0.0,0.0,0.0,0.0,0.0,0.0,0.00940825731530079,0.697059638973012,9.783187784389385,0.0,0.0,0.0,0.0,0.0,0.0,0.0,0.0,0.0
2025/05/20 12:49:46.61482318,1747738186,61133372,mA1/imu,0.7074077620142597,0.7068056423159367,0.0001452561744620564,0.00014537185596728676,0.0,0.0,0.0,0.0,0.0,0.0,0.0,0.0,0.0,0.0003903325344596426,-0.0018587694196174076,0.0007799621750122803,0.0,0.0,0.0,0.0,0.0,0.0,0.0,0.0,0.0,0.011772555222288157,0.08885225632385049,9.778078258623896,0.0,0.0,0.0,0.0,0.0,0.0,0.0,0.0,0.0
2025/05/20 12:49:46.112490203,1747738186,112072983,mA1/imu,0.7074119001520254,0.7068014890264968,0.0001155988052015902,0.0002127678177154208,0.0,0.0,0.0,0.0,0.0,0.0,0.0,0.0,0.0,0.001080150255323134,-0.0033189003974698674,-0.00010803897655818767,0.0,0.0,0.0,0.0,0.0,0.0,0.0,0.0,0.0,0.011546010091287402,-0.423905349382779,9.774065478346959,0.0,0.0,0.0,0.0,0.0,0.0,0.0,0.0,0.0
2025/05/20 12:49:46.163065083,1747738186,162582121,mA1/imu,0.7074069159029088,0.7068064551111046,6.51987797868641e-05,0.0002934197132421343,0.0,0.0,0.0,0.0,0.0,0.0,0.0,0.0,0.0,-2.5601366028621784e-05,-0.004314306166953765,-0.0005327617117043947,0.0,0.0,0.0,0.0,0.0,0.0,0.0,0.0,0.0,0.0195239103280071,-0.5281569758555474,9.777476936305506,0.0,0.0,0.0,0.0,0.0,0.0,0.0,0.0,0.0
2025/05/20 12:49:46.213855817,1747738186,213675398,mA1/imu,0.7073951605058295,0.7068181832253156,-1.1877001188708239e-06,0.00037782745423269807,0.0,0.0,0.0,0.0,0.0,0.0,0.0,0.0,0.0,-0.0013882249900825738,-0.005067706833913401,-0.0008640118410646097,0.0,0.0,0.0,0.0,0.0,0.0,0.0,0.0,0.0,-0.0194346794568453,-0.3647362444656403,9.816494940182578,0.0,0.0,0.0,0.0,0.0,0.0,0.0,0.0,0.0
2025/05/20 12:49:46.266047637,1747738186,265658703,mA1/imu,0.7073767957217034,0.7068365290407523,-8.989996263567677e-05,0.000426621745479407,0.0,0.0,0.0,0.0,0.0,0.0,0.0,0.0,0.0,-0.0004095218966895997,-0.0030710586049092097,-0.0011787250128829166,0.0,0.0,0.0,0.0,0.0,0.0,0.0,0.0,0.0,0.017121555891520965,0.6262850603546096,9.782594791590851,0.0,0.0,0.0,0.0,0.0,0.0,0.0,0.0,0.0
2025/05/20 12:49:46.316830556,1747738186,316634413,mA1/imu,0.7073750947404177,0.7068382211095958,-0.00015979782895713274,0.00042306531510502066,0.0,0.0,0.0,0.0,0.0,0.0,0.0,0.0,0.0,0.0030601219477476593,-0.0016082135031845997,0.0002067735851554817,0.0,0.0,0.0,0.0,0.0,0.0,0.0,0.0,0.0,0.012787596560388262,0.531195095689511,9.788909901028774,0.0,0.0,0.0,0.0,0.0,0.0,0.0,0.0,0.0
2025/05/20 12:49:46.366693208,1747738186,366504680,mA1/imu,0.707379983039681,0.706833313275156,-0.00022114471209702446,0.0004218225479608341,0.0,0.0,0.0,0.0,0.0,0.0,0.0,0.0,0.0,0.0028220771912495436,-0.0017871438179708212,0.00030918292074668833,0.0,0.0,0.0,0.0,0.0,0.0,0.0,0.0,0.0,0.016938787861480092,0.14174129048755232,9.79315503615949,0.0,0.0,0.0,0.0,0.0,0.0,0.0,0.0,0.0
2025/05/20 12:49:46.419963119,1747738186,419399032,mA1/imu,0.7073938266157439,0.706819453336588,-0.00026866136446819755,0.00040282995533425176,0.0,0.0,0.0,0.0,0.0,0.0,0.0,0.0,0.0,0.0017302126713920026,-0.00019227687132825137,0.0008335441155897441,0.0,0.0,0.0,0.0,0.0,0.0,0.0,0.0,0.0,-0.058108591520027855,-0.1052241647723581,9.761747125532285,0.0,0.0,0.0,0.0,0.0,0.0,0.0,0.0,0.0
2025/05/20 12:49:46.469534440,1747738186,469086651,mA1/imu,0.7074051147148189,0.7068081467678384,-0.0003198381530364629,0.00038084312195818006,0.0,0.0,0.0,0.0,0.0,0.0,0.0,0.0,0.0,0.002473448685389975,-0.0017826991907677573,0.00029495098830536353,0.0,0.0,0.0,0.0,0.0,0.0,0.0,0.0,0.0,0.01599816998144505,-0.5550401948322313,9.807182473860875,0.0,0.0,0.0,0.0,0.0,0.0,0.0,0.0,0.0
2025/05/20 12:49:46.520210636,1747738186,520039479,mA1/imu,-0.7074109430801756,-0.7068022812485684,0.0003990198648670042,-0.00036553438084699125,0.0,0.0,0.0,0.0,0.0,0.0,0.0,0.0,0.0,0.003623110019943068,-0.0017939932477550997,0.0003620069996945872,0.0,0.0,0.0,0.0,0.0,0.0,0.0,0.0,0.0,0.013384967417023264,-0.3870858493154499,9.815457312995871,0.0,0.0,0.0,0.0,0.0,0.0,0.0,0.0,0.0
2025/05/20 12:49:46.570066022,1747738186,569826391,mA1/imu,-0.7074168665829849,-0.706796321881015,0.0004506783248860118,-0.00036488138830191623,0.0,0.0,0.0,0.0,0.0,0.0,0.0,0.0,0.0,0.0010150882111061394,-0.0011740573966805487,0.0003145510693352134,0.0,0.0,0.0,0.0,0.0,0.0,0.0,0.0,0.0,0.010729823224510469,0.688811241148837,9.823040008716106,0.0,0.0,0.0,0.0,0.0,0.0,0.0,0.0,0.0
2025/05/20 12:49:46.612954540,1747738186,612352911,mA1/imu,-0.7074105864004607,-0.7068025635004455,0.0005085839465862337,-0.00037392529215028703,0.0,0.0,0.0,0.0,0.0,0.0,0.0,0.0,0.0,0.0018595512405514155,-0.0018310892613170923,-0.0003220355761166178,0.0,0.0,0.0,0.0,0.0,0.0,0.0,0.0,0.0,0.01663635256426567,-0.508080023635858,9.827819467375292,0.0,0.0,0.0,0.0,0.0,0.0,0.0,0.0,0.0
2025/05/20 12:49:46.661982471,1747738186,661722550,mA1/imu,-0.7074050474166725,-0.7068080664761776,0.0005538432743114167,-0.0003864081390572803,0.0,0.0,0.0,0.0,0.0,0.0,0.0,0.0,0.0,0.001392519043541815,-0.0014364459561251033,-0.000339317541644912,0.0,0.0,0.0,0.0,0.0,0.0,0.0,0.0,0.0,0.017807901276562507,-0.20338590303169066,9.832016336965971,0.0,0.0,0.0,0.0,0.0,0.0,0.0,0.0,0.0
2025/05/20 12:49:46.713067417,1747738186,712815983,mA1/imu,-0.7073946402486989,-0.706818443029432,0.0005885254172285215,-0.00040642182124815457,0.0,0.0,0.0,0.0,0.0,0.0,0.0,0.0,0.0,0.00040599397619984817,-0.0018593504857240155,-0.0007559158346455044,0.0,0.0,0.0,0.0,0.0,0.0,0.0,0.0,0.0,0.02150586087683502,0.005379688687548954,9.855679951025134,0.0,0.0,0.0,0.0,0.0,0.0,0.0,0.0,0.0
2025/05/20 12:49:46.762748470,1747738186,762431208,mA1/imu,-0.7073734250559215,-0.7068396267179438,0.000634232281187549,-0.00042115947800907915,0.0,0.0,0.0,0.0,0.0,0.0,0.0,0.0,0.0,0.0006114130473502862,-0.0014435354066722713,-0.0011496356296800216,0.0,0.0,0.0,0.0,0.0,0.0,0.0,0.0,0.0,0.02201270574986626,0.7084594769648769,9.838558443623361,0.0,0.0,0.0,0.0,0.0,0.0,0.0,0.0,0.0
2025/05/20 12:49:46.813596165,1747738186,813413289,mA1/imu,-0.7073537569819663,-0.7068592735548567,0.0006622795118667848,-0.0004373315054462201,0.0,0.0,0.0,0.0,0.0,0.0,0.0,0.0,0.0,0.00015946345852098161,-0.001093630244981505,-0.001077318522277976,0.0,0.0,0.0,0.0,0.0,0.0,0.0,0.0,0.0,0.018578939394086075,0.2649611024155528,9.834580637995666,0.0,0.0,0.0,0.0,0.0,0.0,0.0,0.0,0.0
2025/05/20 12:49:46.865477796,1747738186,863492264,mA1/imu,-0.7073516652480828,-0.7068613515364798,0.0006690190386196452,-0.00045142918753761705,0.0,0.0,0.0,0.0,0.0,0.0,0.0,0.0,0.0,0.00048723712233458545,-0.00014874211465229584,0.00010186853635641568,0.0,0.0,0.0,0.0,0.0,0.0,0.0,0.0,0.0,0.017420757384460746,0.05392335345365907,9.83305031403614,0.0,0.0,0.0,0.0,0.0,0.0,0.0,0.0,0.0
2025/05/20 12:49:46.915157228,1747738186,914819813,mA1/imu,-0.7073540966622082,-0.7068589265032331,0.0006532061836880454,-0.00046182201122632095,0.0,0.0,0.0,0.0,0.0,0.0,0.0,0.0,0.0,-0.0018250072373697458,0.0003514296995399569,0.0001616227628354939,0.0,0.0,0.0,0.0,0.0,0.0,0.0,0.0,0.0,0.01707545323844453,0.6540860426327906,9.829102909063772,0.0,0.0,0.0,0.0,0.0,0.0,0.0,0.0,0.0
2025/05/20 12:49:46.965157933,1747738186,964950818,mA1/imu,-0.7073632892311824,-0.7068497503498542,0.0006165210195485722,-0.00047684402475039523,0.0,0.0,0.0,0.0,0.0,0.0,0.0,0.0,0.0,-0.0021501591268650736,0.0005330607934541562,0.0011418677011860014,0.0,0.0,0.0,0.0,0.0,0.0,0.0,0.0,0.0,0.1058818350616374,-0.22873905870452757,9.784124953643433,0.0,0.0,0.0,0.0,0.0,0.0,0.0,0.0,0.0
2025/05/20 12:49:47.16563562,1747738187,15732619,mA1/imu,-0.7073834483335016,-0.7068296022673017,0.0005712151869728897,-0.0004940603834061343,0.0,0.0,0.0,0.0,0.0,0.0,0.0,0.0,0.0,-0.0025560576535260575,0.0009878832737021538,0.00115017854833062,0.0,0.0,0.0,0.0,0.0,0.0,0.0,0.0,0.0,0.015381692704868765,0.10992242897043746,9.81618170056881,0.0,0.0,0.0,0.0,0.0,0.0,0.0,0.0,0.0
2025/05/20 12:49:47.66035575,1747738187,65643066,mA1/imu,-0.7073993291255588,-0.7068137348347676,0.0005281600970231703,-0.0005044289328075339,0.0,0.0,0.0,0.0,0.0,0.0,0.0,0.0,0.0,-0.0007794372494424078,0.0009622100230649281,0.0007057218652510406,0.0,0.0,0.0,0.0,0.0,0.0,0.0,0.0,0.0,0.019417347982576993,-0.322834085122684,9.809105160374898,0.0,0.0,0.0,0.0,0.0,0.0,0.0,0.0,0.0
2025/05/20 12:49:47.116970193,1747738187,116793195,mA1/imu,0.7074099048821826,0.7068031696064317,-0.00048242581070344917,0.0005226607121407991,0.0,0.0,0.0,0.0,0.0,0.0,0.0,0.0,0.0,-0.001723929857829861,0.0006093084409304228,0.0004920750024715108,0.0,0.0,0.0,0.0,0.0,0.0,0.0,0.0,0.0,0.036415803201933925,0.008538754575928889,9.82931640471643,0.0,0.0,0.0,0.0,0.0,0.0,0.0,0.0,0.0
2025/05/20 12:49:47.166857774,1747738187,166549152,mA1/imu,0.7074175967245544,0.706795480039585,-0.0004445507548253057,0.0005437046023670703,0.0,0.0,0.0,0.0,0.0,0.0,0.0,0.0,0.0,-0.0024174191407771387,5.761777011321904e-05,-3.8268843166272974e-05,0.0,0.0,0.0,0.0,0.0,0.0,0.0,0.0,0.0,-0.09599577742619905,-0.19449810048923794,9.790772889449066,0.0,0.0,0.0,0.0,0.0,0.0,0.0,0.0,0.0
2025/05/20 12:49:47.217966425,1747738187,217464815,mA1/imu,0.7074175753462868,0.7067954884055364,-0.00042643814405556214,0.000574291972053968,0.0,0.0,0.0,0.0,0.0,0.0,0.0,0.0,0.0,-0.003064470187771041,-0.0003347516391316024,4.931951382523348e-05,0.0,0.0,0.0,0.0,0.0,0.0,0.0,0.0,0.0,0.02530671989251066,0.6090182168159112,9.791573624348846,0.0,0.0,0.0,0.0,0.0,0.0,0.0,0.0,0.0
2025/05/20 12:49:47.267276617,1747738187,267117970,mA1/imu,0.7074187572936773,0.7067942891019864,-0.00040381485513436106,0.0006096355058572728,0.0,0.0,0.0,0.0,0.0,0.0,0.0,0.0,0.0,-0.0025263179784066857,-0.00041903579141317295,-6.560835176810191e-06,0.0,0.0,0.0,0.0,0.0,0.0,0.0,0.0,0.0,0.03617632551681309,0.6624449444942645,9.789389883632145,0.0,0.0,0.0,0.0,0.0,0.0,0.0,0.0,0.0
2025/05/20 12:49:47.318620043,1747738187,318217827,mA1/imu,0.7074152785861625,0.7067977256289517,-0.0004035353268314715,0.0006601725856798496,0.0,0.0,0.0,0.0,0.0,0.0,0.0,0.0,0.0,-0.0012801253033012147,-0.0015624628941076368,-0.00028212471441883434,0.0,0.0,0.0,0.0,0.0,0.0,0.0,0.0,0.0,-0.01529837488606742,-0.0007324735889258816,9.763294843420086,0.0,0.0,0.0,0.0,0.0,0.0,0.0,0.0,0.0
2025/05/20 12:49:47.368757202,1747738187,368416812,mA1/imu,0.7074068479954251,0.7068061048267541,-0.0004150656804955494,0.0007136590850950375,0.0,0.0,0.0,0.0,0.0,0.0,0.0,0.0,0.0,-0.000999500079725113,-0.0018892656214623308,-0.0005496859900314798,0.0,0.0,0.0,0.0,0.0,0.0,0.0,0.0,0.0,0.02386910217665463,-0.025282062725592185,9.782108301364925,0.0,0.0,0.0,0.0,0.0,0.0,0.0,0.0,0.0
2025/05/20 12:49:47.420792600,1747738187,420477062,mA1/imu,0.7073957316673478,0.7068171619040796,-0.0004392374412837804,0.000765197457950816,0.0,0.0,0.0,0.0,0.0,0.0,0.0,0.0,0.0,-0.0006101426171738571,-0.002269793729556447,-0.0007141987365621,0.0,0.0,0.0,0.0,0.0,0.0,0.0,0.0,0.0,0.0350052695161683,0.011708323241419159,9.810433321733136,0.0,0.0,0.0,0.0,0.0,0.0,0.0,0.0,0.0
2025/05/20 12:49:47.470750017,1747738187,470436711,mA1/imu,0.7073828123764191,0.7068300335054779,-0.00047201795864011947,0.0007985537675254805,0.0,0.0,0.0,0.0,0.0,0.0,0.0,0.0,0.0,0.0009909196240925292,-0.0006262954567382772,-0.000518223533977925,0.0,0.0,0.0,0.0,0.0,0.0,0.0,0.0,0.0,-0.017063660879478755,-0.047084958376274355,9.837918601689303,0.0,0.0,0.0,0.0,0.0,0.0,0.0,0.0,0.0
2025/05/20 12:49:47.511673185,1747738187,511315867,mA1/imu,0.7073795049425369,0.7068333383216755,-0.0004929054172475597,0.0007904862659374904,0.0,0.0,0.0,0.0,0.0,0.0,0.0,0.0,0.0,0.0008668271255807316,-7.976328040410357e-05,5.102728652098186e-05,0.0,0.0,0.0,0.0,0.0,0.0,0.0,0.0,0.0,0.05837879298807004,0.016351779135755834,9.76447722220601,0.0,0.0,0.0,0.0,0.0,0.0,0.0,0.0,0.0
2025/05/20 12:49:47.561398183,1747738187,561221740,mA1/imu,0.7073865583448755,0.7068262950547985,-0.000504160041118944,0.0007690999622207553,0.0,0.0,0.0,0.0,0.0,0.0,0.0,0.0,0.0,0.0007974306636948342,0.00026778384434069454,0.0006026646566675212,0.0,0.0,0.0,0.0,0.0,0.0,0.0,0.0,0.0,0.054878759215123925,0.014905959492118752,9.769748840594287,0.0,0.0,0.0,0.0,0.0,0.0,0.0,0.0,0.0
2025/05/20 12:49:47.612591614,1747738187,612043460,mA1/imu,0.7073928156194705,0.7068200315288977,-0.0005326587370073664,0.0007508089739537272,0.0,0.0,0.0,0.0,0.0,0.0,0.0,0.0,0.0,0.0014269493685363677,-0.00033201324496162697,0.00027021998219200967,0.0,0.0,0.0,0.0,0.0,0.0,0.0,0.0,0.0,0.033518039288316516,0.010450984973555653,9.822509255078272,0.0,0.0,0.0,0.0,0.0,0.0,0.0,0.0,0.0
2025/05/20 12:49:47.662195221,1747738187,662004138,mA1/imu,0.7073955341340984,0.7068173027856047,-0.0005688679555984049,0.0007315458053278077,0.0,0.0,0.0,0.0,0.0,0.0,0.0,0.0,0.0,0.0017826171601981208,-0.0007244605144978405,2.7725970915409526e-05,0.0,0.0,0.0,0.0,0.0,0.0,0.0,0.0,0.0,0.03061317141999801,0.010551488272547673,9.823154228565699,0.0,0.0,0.0,0.0,0.0,0.0,0.0,0.0,0.0
2025/05/20 12:49:47.713971080,1747738187,713228391,mA1/imu,0.707394350549625,0.7068184812898102,-0.0006036251151863549,0.000709192753234805,0.0,0.0,0.0,0.0,0.0,0.0,0.0,0.0,0.0,0.0016310781516917202,-0.00030380165161576945,-0.00014388179547924758,0.0,0.0,0.0,0.0,0.0,0.0,0.0,0.0,0.0,-0.017235337854845174,-0.002268593599424675,9.78533583794087,0.0,0.0,0.0,0.0,0.0,0.0,0.0,0.0,0.0
2025/05/20 12:49:47.763828077,1747738187,763419162,mA1/imu,0.7073901298325775,0.7068227029883092,-0.0006353774714243803,0.0006834114560257007,0.0,0.0,0.0,0.0,0.0,0.0,0.0,0.0,0.0,0.001455999491281483,0.00017955670658799386,-0.00029056394745676054,0.0,0.0,0.0,0.0,0.0,0.0,0.0,0.0,0.0,-0.014879571288685146,-0.0020365506695215947,9.792557242531627,0.0,0.0,0.0,0.0,0.0,0.0,0.0,0.0,0.0
2025/05/20 12:49:47.814324146,1747738187,814016613,mA1/imu,-0.7073866027266728,-0.7068262249911056,0.0006701868736845119,-0.0006578732354489184,0.0,0.0,0.0,0.0,0.0,0.0,0.0,0.0,0.0,0.0016389588659238897,-6.217917502396098e-05,2.5987306717430453e-05,0.0,0.0,0.0,0.0,0.0,0.0,0.0,0.0,0.0,0.020445303522803583,-0.004638683892532006,9.838805507255962,0.0,0.0,0.0,0.0,0.0,0.0,0.0,0.0,0.0
2025/05/20 12:49:47.865317838,1747738187,865036786,mA1/imu,-0.7073884009654541,-0.7068244416377963,0.0006898895421032621,-0.000618817723700144,0.0,0.0,0.0,0.0,0.0,0.0,0.0,0.0,0.0,0.0017939925309940015,0.00027787803261523035,-7.970464066351658e-06,0.0,0.0,0.0,0.0,0.0,0.0,0.0,0.0,0.0,0.02616306864986056,0.0072025975754326475,9.844299154454138,0.0,0.0,0.0,0.0,0.0,0.0,0.0,0.0,0.0
2025/05/20 12:49:47.916254910,1747738187,915974443,mA1/imu,-0.7073875491949554,-0.7068253125331194,0.0007019517169836089,-0.000583155381869019,0.0,0.0,0.0,0.0,0.0,0.0,0.0,0.0,0.0,0.0010367807679024133,0.00010700512812935983,5.911002141433508e-06,0.0,0.0,0.0,0.0,0.0,0.0,0.0,0.0,0.0,0.09173711469668981,-0.02504463521545836,9.785743206617354,0.0,0.0,0.0,0.0,0.0,0.0,0.0,0.0,0.0
2025/05/20 12:49:47.966743063,1747738187,966553469,mA1/imu,-0.7073878325298582,-0.7068250362334378,0.0007122639392712012,-0.0005614466934608323,0.0,0.0,0.0,0.0,0.0,0.0,0.0,0.0,0.0,0.000636814739539104,0.0007928197956540436,2.1519061499847497e-05,0.0,0.0,0.0,0.0,0.0,0.0,0.0,0.0,0.0,-0.017444299632722204,-0.004308612795592966,9.808795218528108,0.0,0.0,0.0,0.0,0.0,0.0,0.0,0.0,0.0
2025/05/20 12:49:48.19209571,1747738188,18996051,mA1/imu,-0.7073874948197938,-0.7068253835040353,0.00071623914427707,-0.0005444340526846983,0.0,0.0,0.0,0.0,0.0,0.0,0.0,0.0,0.0,0.0003973622515938816,2.2569501264429687e-05,-3.8390227686597715e-05,0.0,0.0,0.0,0.0,0.0,0.0,0.0,0.0,0.0,0.057523138946448144,-0.002777037901167741,9.84701784899749,0.0,0.0,0.0,0.0,0.0,0.0,0.0,0.0,0.0
2025/05/20 12:49:48.69361764,1747738188,68828533,mA1/imu,-0.7073876794676277,-0.7068252023730683,0.0007170127250531141,-0.0005386282834416382,0.0,0.0,0.0,0.0,0.0,0.0,0.0,0.0,0.0,0.00022459660494390376,0.00011996431027980773,6.25586745339894e-05,0.0,0.0,0.0,0.0,0.0,0.0,0.0,0.0,0.0,0.03565358888553628,0.0018507471525812554,9.862964517596259,0.0,0.0,0.0,0.0,0.0,0.0,0.0,0.0,0.0
2025/05/20 12:49:48.120516934,1747738188,119702335,mA1/imu,-0.7073877456109302,-0.7068251539954068,0.0007034075638837499,-0.0005331572511530874,0.0,0.0,0.0,0.0,0.0,0.0,0.0,0.0,0.0,-0.00032918751117136613,0.0006382331859436221,1.433079035778384e-05,0.0,0.0,0.0,0.0,0.0,0.0,0.0,0.0,0.0,-0.009147730713367476,0.012866741285943636,9.827448643986205,0.0,0.0,0.0,0.0,0.0,0.0,0.0,0.0,0.0
2025/05/20 12:49:48.170680194,1747738188,169408826,mA1/imu,-0.7073875720488262,-0.7068253511871858,0.0006797898352550005,-0.0005326497518418365,0.0,0.0,0.0,0.0,0.0,0.0,0.0,0.0,0.0,-0.0008937200918826115,0.0010519821364286515,-4.113961186913018e-05,0.0,0.0,0.0,0.0,0.0,0.0,0.0,0.0,0.0,-0.029376930724436184,-0.00039487926962637797,9.810207723111102,0.0,0.0,0.0,0.0,0.0,0.0,0.0,0.0,0.0
2025/05/20 12:49:48.220635686,1747738188,220417868,mA1/imu,-0.7073874727092142,-0.7068254746325572,0.0006498880377140105,-0.0005380613992538982,0.0,0.0,0.0,0.0,0.0,0.0,0.0,0.0,0.0,-0.0011743613987984184,0.00041849657327996644,-2.596169914271026e-05,0.0,0.0,0.0,0.0,0.0,0.0,0.0,0.0,0.0,0.07763150619564123,-0.01826814169773909,9.824530799029695,0.0,0.0,0.0,0.0,0.0,0.0,0.0,0.0,0.0
2025/05/20 12:49:48.270551658,1747738188,270188656,mA1/imu,-0.7073878251546248,-0.7068251471024836,0.0006140214591111995,-0.0005470139029502864,0.0,0.0,0.0,0.0,0.0,0.0,0.0,0.0,0.0,-0.0010640651874753433,0.0007695273596654228,-2.9971706936746564e-06,0.0,0.0,0.0,0.0,0.0,0.0,0.0,0.0,0.0,0.006594504012065964,0.004463029516617532,9.851800440855328,0.0,0.0,0.0,0.0,0.0,0.0,0.0,0.0,0.0
2025/05/20 12:49:48.321750221,1747738188,321077104,mA1/imu,-0.7073870877430909,-0.7068259185176226,0.0005699087137808034,-0.0005515524687034668,0.0,0.0,0.0,0.0,0.0,0.0,0.0,0.0,0.0,-0.0024645460108499873,0.0014682504106350689,-3.556629260584153e-05,0.0,0.0,0.0,0.0,0.0,0.0,0.0,0.0,0.0,0.008761920816374077,0.6555975515687857,9.815086496581651,0.0,0.0,0.0,0.0,0.0,0.0,0.0,0.0,0.0
2025/05/20 12:49:48.361194035,1747738188,360796910,mA1/imu,0.7073880251702644,0.7068249866814688,-0.0005367061529913444,0.0005761900384506461,0.0,0.0,0.0,0.0,0.0,0.0,0.0,0.0,0.0,-0.0020672427862307627,0.00023485846453437977,-0.0001539571799318162,0.0,0.0,0.0,0.0,0.0,0.0,0.0,0.0,0.0,-0.04224506556865537,-0.2578077246459132,9.820038226015901,0.0,0.0,0.0,0.0,0.0,0.0,0.0,0.0,0.0
2025/05/20 12:49:48.411889409,1747738188,411703198,mA1/imu,0.7073872668846168,0.7068257601178016,-0.0005033862510591959,0.0005882904774650797,0.0,0.0,0.0,0.0,0.0,0.0,0.0,0.0,0.0,-0.000522163888856083,0.0006967665245683013,0.0001589822877291273,0.0,0.0,0.0,0.0,0.0,0.0,0.0,0.0,0.0,0.005409493437139118,-0.4533851952614705,9.803255802087476,0.0,0.0,0.0,0.0,0.0,0.0,0.0,0.0,0.0
2025/05/20 12:49:48.462030082,1747738188,461468966,mA1/imu,0.7073868066302519,0.7068262254574961,-0.00047152197567027393,0.0006086690316557652,0.0,0.0,0.0,0.0,0.0,0.0,0.0,0.0,0.0,-0.0011586838088880516,0.00036564107986797925,-0.00010488846025948344,0.0,0.0,0.0,0.0,0.0,0.0,0.0,0.0,0.0,0.0031606944887515014,0.1759869638661499,9.800314267240589,0.0,0.0,0.0,0.0,0.0,0.0,0.0,0.0,0.0
2025/05/20 12:49:48.513303218,1747738188,512951490,mA1/imu,0.7073896768037545,0.706823380413126,-0.00042936178490084187,0.0006080306725398637,0.0,0.0,0.0,0.0,0.0,0.0,0.0,0.0,0.0,-0.0009513498607365367,0.0007725545495086795,-0.00014137687219021325,0.0,0.0,0.0,0.0,0.0,0.0,0.0,0.0,0.0,-0.02322634526961462,-0.3059282343608618,9.832657831189225,0.0,0.0,0.0,0.0,0.0,0.0,0.0,0.0,0.0
2025/05/20 12:49:48.562844866,1747738188,562488091,mA1/imu,0.7073874686334332,0.7068256067881514,-0.0004086825438169019,0.0006031480112943129,0.0,0.0,0.0,0.0,0.0,0.0,0.0,0.0,0.0,-5.7098749843524676e-05,0.0004117439275903483,-1.9589931610410023e-05,0.0,0.0,0.0,0.0,0.0,0.0,0.0,0.0,0.0,-0.037565222885321395,-0.5127052223966697,9.790545724639818,0.0,0.0,0.0,0.0,0.0,0.0,0.0,0.0,0.0
2025/05/20 12:49:48.613892854,1747738188,613454924,mA1/imu,0.7073880110060515,0.7068250683458844,-0.00039716746365806157,0.0006057233230320812,0.0,0.0,0.0,0.0,0.0,0.0,0.0,0.0,0.0,-0.00020058063967080909,0.00028602728423316983,6.049038771768098e-05,0.0,0.0,0.0,0.0,0.0,0.0,0.0,0.0,0.0,0.005213789356809056,0.11271150528084672,9.786682341584308,0.0,0.0,0.0,0.0,0.0,0.0,0.0,0.0,0.0
2025/05/20 12:49:48.664713520,1747738188,664493508,mA1/imu,0.707386548941387,0.7068265331656853,-0.0003872076105215647,0.000610295042771594,0.0,0.0,0.0,0.0,0.0,0.0,0.0,0.0,0.0,-0.0006992042177887804,0.0006317213679374171,0.00018805772730109453,0.0,0.0,0.0,0.0,0.0,0.0,0.0,0.0,0.0,0.10871315824681847,0.026977944462138526,9.801363788159495,0.0,0.0,0.0,0.0,0.0,0.0,0.0,0.0,0.0
2025/05/20 12:49:48.716811654,1747738188,716483632,mA1/imu,0.7073898778837558,0.7068232235212619,-0.0003749415070520729,0.0005922647070635965,0.0,0.0,0.0,0.0,0.0,0.0,0.0,0.0,0.0,0.0002507535947150273,0.0003660598623052127,9.824111680351893e-05,0.0,0.0,0.0,0.0,0.0,0.0,0.0,0.0,0.0,0.046399524557963555,0.026152418157170048,9.833919256575605,0.0,0.0,0.0,0.0,0.0,0.0,0.0,0.0,0.0
2025/05/20 12:49:48.768019261,1747738188,767138267,mA1/imu,0.7073854267016823,0.7068277012157519,-0.00037554932706251653,0.0005637790683068059,0.0,0.0,0.0,0.0,0.0,0.0,0.0,0.0,0.0,0.0017014328066589821,0.0004551899134654907,-0.0006435705085096602,0.0,0.0,0.0,0.0,0.0,0.0,0.0,0.0,0.0,0.0015697518641330718,-0.4462882172483611,9.784949343681712,0.0,0.0,0.0,0.0,0.0,0.0,0.0,0.0,0.0
2025/05/20 12:49:48.818650312,1747738188,818022994,mA1/imu,0.7073752227573674,0.7068379379272769,-0.00038176795367760377,0.0005272465355617525,0.0,0.0,0.0,0.0,0.0,0.0,0.0,0.0,0.0,0.0021222623487170806,0.0010962568829799891,-0.0005450397452603255,0.0,0.0,0.0,0.0,0.0,0.0,0.0,0.0,0.0,0.005183029401147812,-0.4618422428352166,9.78836926084477,0.0,0.0,0.0,0.0,0.0,0.0,0.0,0.0,0.0
