time,header_stamp_secs,header_stamp_nsecs,header_frame_id,orientation_x,orientation_y,orientation_z,orientation_w,orientation_covariance_0,orientation_covariance_1,orientation_covariance_2,orientation_covariance_3,orientation_covariance_4,orientation_covariance_5,orientation_covariance_6,orientation_covariance_7,orientation_covariance_8,angular_velocity_x,angular_velocity_y,angular_velocity_z,angular_velocity_covariance_0,angular_velocity_covariance_1,angular_velocity_covariance_2,angular_velocity_covariance_3,angular_velocity_covariance_4,angular_velocity_covariance_5,angular_velocity_covariance_6,angular_velocity_covariance_7,angular_velocity_covariance_8,linear_acceleration_x,linear_acceleration_y,linear_acceleration_z,linear_acceleration_covariance_0,linear_acceleration_covariance_1,linear_acceleration_covariance_2,linear_acceleration_covariance_3,linear_acceleration_covariance_4,linear_acceleration_covariance_5,linear_acceleration_covariance_6,linear_acceleration_covariance_7,linear_acceleration_covariance_8
2025/05/07 10:53:04.199995136,1746607984,198363334,mti/imu_base_body,0.3662729636087117,0.930450974169768,0.0015066746693118398,-0.010140548666720615,0.017453292519943295,0.0,0.0,0.0,0.017453292519943295,0.0,0.0,0.0,0.15707963267948966,0.006465018726885319,0.0139334537088871,-0.031822238117456436,0.0004363323129985824,0.0,0.0,0.0,0.0004363323129985824,0.0,0.0,0.0,0.0004363323129985824,-0.16311144828796387,0.06576167047023773,9.773418426513672,0.0004,0.0,0.0,0.0,0.0004,0.0,0.0,0.0,0.0004
2025/05/07 10:53:04.248012453,1746607984,247750629,mti/imu_base_body,0.3661082108977508,0.9305154230900531,0.0015001900703260395,-0.010177167314156216,0.017453292519943295,0.0,0.0,0.0,0.017453292519943295,0.0,0.0,0.0,0.15707963267948966,0.014632189646363258,0.007190344389528036,-0.029365625232458115,0.0004363323129985824,0.0,0.0,0.0,0.0004363323129985824,0.0,0.0,0.0,0.0004363323129985824,-0.16073553264141083,0.0639662817120552,9.764299392700195,0.0004,0.0,0.0,0.0,0.0004,0.0,0.0,0.0,0.0004
2025/05/07 10:53:04.298635996,1746607984,298102142,mti/imu_base_body,0.3603809055018133,0.932754130408924,0.0018057710470047172,-0.009595537802078044,0.017453292519943295,0.0,0.0,0.0,0.017453292519943295,0.0,0.0,0.0,0.15707963267948966,0.012441038154065609,0.003220190294086933,-0.03653468191623688,0.0004363323129985824,0.0,0.0,0.0,0.0004363323129985824,0.0,0.0,0.0,0.0004363323129985824,-0.1744355708360672,0.08294317126274109,9.805010795593262,0.0004,0.0,0.0,0.0,0.0004,0.0,0.0,0.0,0.0004
2025/05/07 10:53:04.349046638,1746607984,348497196,mti/imu_base_body,0.3601975982336961,0.932824826229491,0.0017698823181122826,-0.009612560178048783,0.017453292519943295,0.0,0.0,0.0,0.017453292519943295,0.0,0.0,0.0,0.15707963267948966,0.012514869682490826,0.0029250001534819603,-0.037638988345861435,0.0004363323129985824,0.0,0.0,0.0,0.0004363323129985824,0.0,0.0,0.0,0.0004363323129985824,-0.14821642637252808,0.07934322208166122,9.823944091796875,0.0004,0.0,0.0,0.0,0.0004,0.0,0.0,0.0,0.0004
2025/05/07 10:53:04.399652440,1746607984,398696009,mti/imu_base_body,0.36004871392357424,0.9328822557210121,0.0017930153072674999,-0.009612786222743534,0.017453292519943295,0.0,0.0,0.0,0.017453292519943295,0.0,0.0,0.0,0.15707963267948966,0.008192142471671104,0.003396708518266678,-0.02856169082224369,0.0004363323129985824,0.0,0.0,0.0,0.0004363323129985824,0.0,0.0,0.0,0.0004363323129985824,-0.1481499969959259,0.06733682006597519,9.845669746398926,0.0004,0.0,0.0,0.0,0.0004,0.0,0.0,0.0,0.0004
2025/05/07 10:53:04.449330869,1746607984,448427745,mti/imu_base_body,0.3598949906191223,0.93294189971479,0.0017615066569829346,-0.009586687546687313,0.017453292519943295,0.0,0.0,0.0,0.017453292519943295,0.0,0.0,0.0,0.15707963267948966,0.014259868301451206,-0.003455652855336666,-0.03235108032822609,0.0004363323129985824,0.0,0.0,0.0,0.0004363323129985824,0.0,0.0,0.0,0.0004363323129985824,-0.14324882626533508,0.051238492131233215,9.835942268371582,0.0004,0.0,0.0,0.0,0.0004,0.0,0.0,0.0,0.0004
2025/05/07 10:53:04.823629367,1746607984,497750840,mti/imu_base_body,0.3597204269954688,0.9330093345759325,0.0017472896604017758,-0.009578255332548916,0.017453292519943295,0.0,0.0,0.0,0.017453292519943295,0.0,0.0,0.0,0.15707963267948966,0.014606907032430172,0.0011400820221751928,-0.03889545053243637,0.0004363323129985824,0.0,0.0,0.0,0.0004363323129985824,0.0,0.0,0.0,0.0004363323129985824,-0.1640959233045578,0.04734918847680092,9.797674179077148,0.0004,0.0,0.0,0.0,0.0004,0.0,0.0,0.0,0.0004
2025/05/07 10:53:04.824767090,1746607984,548785979,mti/imu_base_body,0.3595338128806468,0.93308115577577,0.0017189097268686957,-0.009593720915687387,0.017453292519943295,0.0,0.0,0.0,0.017453292519943295,0.0,0.0,0.0,0.15707963267948966,0.01504434086382389,0.009651255793869495,-0.034627482295036316,0.0004363323129985824,0.0,0.0,0.0,0.0004363323129985824,0.0,0.0,0.0,0.0004363323129985824,-0.16713453829288483,0.04967159032821655,9.817961692810059,0.0004,0.0,0.0,0.0,0.0004,0.0,0.0,0.0,0.0004
2025/05/07 10:53:04.824943859,1746607984,598443236,mti/imu_base_body,0.35936484743181657,0.9331462305023204,0.0016731986549092916,-0.00960308991308,0.017453292519943295,0.0,0.0,0.0,0.017453292519943295,0.0,0.0,0.0,0.15707963267948966,0.020675193518400192,-0.000351994123775512,-0.029930206015706062,0.0004363323129985824,0.0,0.0,0.0,0.0004363323129985824,0.0,0.0,0.0,0.0004363323129985824,-0.13556918501853943,0.059477925300598145,9.862581253051758,0.0004,0.0,0.0,0.0,0.0004,0.0,0.0,0.0,0.0004
2025/05/07 10:53:04.825089781,1746607984,647850343,mti/imu_base_body,0.35919563836741847,0.9332112262605183,0.0016859619093570017,-0.009615513070167687,0.017453292519943295,0.0,0.0,0.0,0.017453292519943295,0.0,0.0,0.0,0.15707963267948966,0.007329868618398905,0.0070047685876488686,-0.040803421288728714,0.0004363323129985824,0.0,0.0,0.0,0.0004363323129985824,0.0,0.0,0.0,0.0004363323129985824,-0.15107372403144836,0.055611442774534225,9.837387084960938,0.0004,0.0,0.0,0.0,0.0004,0.0,0.0,0.0,0.0004
2025/05/07 10:53:04.825206677,1746607984,698061453,mti/imu_base_body,0.35379242990340387,0.9352728200967342,0.00034149204395721167,-0.009775065960435146,0.017453292519943295,0.0,0.0,0.0,0.017453292519943295,0.0,0.0,0.0,0.15707963267948966,0.020859554409980774,-0.0017577906837686896,-0.025293873623013496,0.0004363323129985824,0.0,0.0,0.0,0.0004363323129985824,0.0,0.0,0.0,0.0004363323129985824,-0.14949870109558105,0.03881191462278366,9.828869819641113,0.0004,0.0,0.0,0.0,0.0004,0.0,0.0,0.0,0.0004
2025/05/07 10:53:04.825285388,1746607984,747933308,mti/imu_base_body,0.3536079982902651,0.9353424388686142,0.00026717229421624033,-0.00978949515703069,0.017453292519943295,0.0,0.0,0.0,0.017453292519943295,0.0,0.0,0.0,0.15707963267948966,0.020773446187376976,-0.00032050360459834337,-0.03886028006672859,0.0004363323129985824,0.0,0.0,0.0,0.0004363323129985824,0.0,0.0,0.0,0.0004363323129985824,-0.15829990804195404,0.049515098333358765,9.793225288391113,0.0004,0.0,0.0,0.0,0.0004,0.0,0.0,0.0,0.0004
2025/05/07 10:53:04.825372059,1746607984,798178768,mti/imu_base_body,0.35345347510017006,0.9354008847127973,0.0001926297802441702,-0.009787170781032514,0.017453292519943295,0.0,0.0,0.0,0.017453292519943295,0.0,0.0,0.0,0.15707963267948966,0.026875074952840805,-0.0017056569922715425,-0.03114260546863079,0.0004363323129985824,0.0,0.0,0.0,0.0004363323129985824,0.0,0.0,0.0,0.0004363323129985824,-0.1527608186006546,0.05845474824309349,9.842917442321777,0.0004,0.0,0.0,0.0,0.0004,0.0,0.0,0.0,0.0004
2025/05/07 10:53:04.848521784,1746607984,848129560,mti/imu_base_body,0.35330735972569927,0.9354559952870272,0.00014413094291854025,-0.009796411153265107,0.017453292519943295,0.0,0.0,0.0,0.017453292519943295,0.0,0.0,0.0,0.15707963267948966,0.01812933199107647,0.00418495200574398,-0.030922072008252144,0.0004363323129985824,0.0,0.0,0.0,0.0004363323129985824,0.0,0.0,0.0,0.0004363323129985824,-0.14003443717956543,0.02720317244529724,9.832094192504883,0.0004,0.0,0.0,0.0,0.0004,0.0,0.0,0.0,0.0004
2025/05/07 10:53:04.899002634,1746607984,898073133,mti/imu_base_body,0.3531251388856084,0.9355248193123631,0.00011598314824478977,-0.009794655966350025,0.017453292519943295,0.0,0.0,0.0,0.017453292519943295,0.0,0.0,0.0,0.15707963267948966,0.0173056460916996,-0.0016293408116325736,-0.03704281523823738,0.0004363323129985824,0.0,0.0,0.0,0.0004363323129985824,0.0,0.0,0.0,0.0004363323129985824,-0.15561173856258392,0.055347271263599396,9.840524673461914,0.0004,0.0,0.0,0.0,0.0004,0.0,0.0,0.0,0.0004
2025/05/07 10:53:04.949083069,1746607984,948022034,mti/imu_base_body,0.3529431982471222,0.9355935493939198,2.453148138240914e-05,-0.009788183783810005,0.017453292519943295,0.0,0.0,0.0,0.017453292519943295,0.0,0.0,0.0,0.15707963267948966,0.022559085860848427,-0.004891548305749893,-0.03725895658135414,0.0004363323129985824,0.0,0.0,0.0,0.0004363323129985824,0.0,0.0,0.0,0.0004363323129985824,-0.14963509142398834,0.06886158138513565,9.830544471740723,0.0004,0.0,0.0,0.0,0.0004,0.0,0.0,0.0,0.0004
2025/05/07 10:53:04.998302136,1746607984,998015501,mti/imu_base_body,0.3527480574115323,0.935667425970854,-7.049664561204101e-06,-0.009760938467640385,0.017453292519943295,0.0,0.0,0.0,0.017453292519943295,0.0,0.0,0.0,0.15707963267948966,0.019638197496533394,-0.0030559080187231302,-0.03856979310512543,0.0004363323129985824,0.0,0.0,0.0,0.0004363323129985824,0.0,0.0,0.0,0.0004363323129985824,-0.15452900528907776,0.04982151836156845,9.815186500549316,0.0004,0.0,0.0,0.0,0.0004,0.0,0.0,0.0,0.0004
2025/05/07 10:53:05.49769128,1746607985,49463408,mti/imu_base_body,0.35257279340340575,0.9357338025842901,-9.612877997411569e-05,-0.009729687154356549,0.017453292519943295,0.0,0.0,0.0,0.017453292519943295,0.0,0.0,0.0,0.15707963267948966,0.0267599206417799,-0.005778919905424118,-0.032272133976221085,0.0004363323129985824,0.0,0.0,0.0,0.0004363323129985824,0.0,0.0,0.0,0.0004363323129985824,-0.14847856760025024,0.02507828176021576,9.83259391784668,0.0004,0.0,0.0,0.0,0.0004,0.0,0.0,0.0,0.0004
2025/05/07 10:53:05.99378345,1746607985,99060416,mti/imu_base_body,0.3475008579398012,0.937625591252182,-0.001992487124786344,-0.009870884213461363,0.017453292519943295,0.0,0.0,0.0,0.017453292519943295,0.0,0.0,0.0,0.15707963267948966,0.01882554031908512,0.004828430712223053,-0.03618335723876953,0.0004363323129985824,0.0,0.0,0.0,0.0004363323129985824,0.0,0.0,0.0,0.0004363323129985824,-0.1565382331609726,0.08545153588056564,9.81998348236084,0.0004,0.0,0.0,0.0,0.0004,0.0,0.0,0.0,0.0004
2025/05/07 10:53:05.148949714,1746607985,148673844,mti/imu_base_body,0.3473123029307976,0.9376956262880891,-0.0020419082131252378,-0.009844149731857117,0.017453292519943295,0.0,0.0,0.0,0.017453292519943295,0.0,0.0,0.0,0.15707963267948966,0.015008863992989063,-0.0009634301532059908,-0.03197969123721123,0.0004363323129985824,0.0,0.0,0.0,0.0004363323129985824,0.0,0.0,0.0,0.0004363323129985824,-0.12906333804130554,0.06793948262929916,9.860533714294434,0.0004,0.0,0.0,0.0,0.0004,0.0,0.0,0.0,0.0004
2025/05/07 10:53:05.199126720,1746607985,198886464,mti/imu_base_body,0.3471497763223709,0.9377557890812281,-0.00207197980741769,-0.009839702416678722,0.017453292519943295,0.0,0.0,0.0,0.017453292519943295,0.0,0.0,0.0,0.15707963267948966,0.018725082278251648,0.00018488563364371657,-0.03275911882519722,0.0004363323129985824,0.0,0.0,0.0,0.0004363323129985824,0.0,0.0,0.0,0.0004363323129985824,-0.1603003293275833,0.05452342331409454,9.811833381652832,0.0004,0.0,0.0,0.0,0.0004,0.0,0.0,0.0,0.0004
2025/05/07 10:53:05.249106269,1746607985,248596201,mti/imu_base_body,0.34699642210091525,0.9378131532208422,-0.002108257713464983,-0.009773839806252554,0.017453292519943295,0.0,0.0,0.0,0.017453292519943295,0.0,0.0,0.0,0.15707963267948966,0.010270257480442524,-0.00901118852198124,-0.03473630174994469,0.0004363323129985824,0.0,0.0,0.0,0.0004363323129985824,0.0,0.0,0.0,0.0004363323129985824,-0.17883513867855072,0.08376667648553848,9.811866760253906,0.0004,0.0,0.0,0.0,0.0004,0.0,0.0,0.0,0.0004
2025/05/07 10:53:05.611167797,1746607985,298307796,mti/imu_base_body,0.34679516902190755,0.9378875899656631,-0.002157311936441424,-0.009763469499906217,0.017453292519943295,0.0,0.0,0.0,0.017453292519943295,0.0,0.0,0.0,0.15707963267948966,0.018610872328281403,-0.003986954223364592,-0.03649626299738884,0.0004363323129985824,0.0,0.0,0.0,0.0004363323129985824,0.0,0.0,0.0,0.0004363323129985824,-0.15690769255161285,0.07863390445709229,9.80342960357666,0.0004,0.0,0.0,0.0,0.0004,0.0,0.0,0.0,0.0004
2025/05/07 10:53:05.611284924,1746607985,348362108,mti/imu_base_body,0.34664837772744567,0.9379421028026427,-0.0021332313641627258,-0.009744913187616831,0.017453292519943295,0.0,0.0,0.0,0.017453292519943295,0.0,0.0,0.0,0.15707963267948966,0.005377490539103746,0.0015825021546334028,-0.030864397063851357,0.0004363323129985824,0.0,0.0,0.0,0.0004363323129985824,0.0,0.0,0.0,0.0004363323129985824,-0.14407889544963837,0.0752074271440506,9.856705665588379,0.0004,0.0,0.0,0.0,0.0004,0.0,0.0,0.0,0.0004
2025/05/07 10:53:05.611383462,1746607985,398661182,mti/imu_base_body,0.34648881393943176,0.9380013067210242,-0.0021384401193556275,-0.009719952590038133,0.017453292519943295,0.0,0.0,0.0,0.017453292519943295,0.0,0.0,0.0,0.15707963267948966,0.011742173694074154,0.003533006412908435,-0.029442492872476578,0.0004363323129985824,0.0,0.0,0.0,0.0004363323129985824,0.0,0.0,0.0,0.0004363323129985824,-0.15583436191082,0.09011446684598923,9.842318534851074,0.0004,0.0,0.0,0.0,0.0004,0.0,0.0,0.0,0.0004
2025/05/07 10:53:05.680818135,1746607985,447927510,mti/imu_base_body,0.3463673068715119,0.9380461669550357,-0.002129453952046627,-0.00972331308800368,0.017453292519943295,0.0,0.0,0.0,0.017453292519943295,0.0,0.0,0.0,0.15707963267948966,0.010574285872280598,-0.0007947038393467665,-0.025010859593749046,0.0004363323129985824,0.0,0.0,0.0,0.0004363323129985824,0.0,0.0,0.0,0.0004363323129985824,-0.1415386199951172,0.06171683222055435,9.811334609985352,0.0004,0.0,0.0,0.0,0.0004,0.0,0.0,0.0,0.0004
2025/05/07 10:53:05.682913744,1746607985,498263917,mti/imu_base_body,0.341523965993438,0.9398260928374673,-0.0018119587264096714,-0.009220232076633835,0.017453292519943295,0.0,0.0,0.0,0.017453292519943295,0.0,0.0,0.0,0.15707963267948966,-0.00010329638462280855,0.010318795219063759,-0.02365090325474739,0.0004363323129985824,0.0,0.0,0.0,0.0004363323129985824,0.0,0.0,0.0,0.0004363323129985824,-0.15161049365997314,0.07170775532722473,9.829468727111816,0.0004,0.0,0.0,0.0,0.0004,0.0,0.0,0.0,0.0004
2025/05/07 10:53:05.683019603,1746607985,549418900,mti/imu_base_body,0.3413610638973807,0.9398853601161541,-0.0017579052942664972,-0.009221912120169148,0.017453292519943295,0.0,0.0,0.0,0.017453292519943295,0.0,0.0,0.0,0.15707963267948966,0.0008859733934514225,0.006515360437333584,-0.032012972980737686,0.0004363323129985824,0.0,0.0,0.0,0.0004363323129985824,0.0,0.0,0.0,0.0004363323129985824,-0.146365687251091,0.051703643053770065,9.841103553771973,0.0004,0.0,0.0,0.0,0.0004,0.0,0.0,0.0,0.0004
2025/05/07 10:53:05.683154850,1746607985,598110448,mti/imu_base_body,0.34121828198102444,0.9399377078989964,-0.0016840340322846177,-0.009184407486443547,0.017453292519943295,0.0,0.0,0.0,0.017453292519943295,0.0,0.0,0.0,0.15707963267948966,-0.00651369895786047,0.0013376111164689064,-0.027830878272652626,0.0004363323129985824,0.0,0.0,0.0,0.0004363323129985824,0.0,0.0,0.0,0.0004363323129985824,-0.16479213535785675,0.04050932824611664,9.759265899658203,0.0004,0.0,0.0,0.0,0.0004,0.0,0.0,0.0,0.0004
2025/05/07 10:53:05.683243752,1746607985,648677489,mti/imu_base_body,0.3410805618153192,0.9399876645214091,-0.0016314891583550616,-0.009196691930193963,0.017453292519943295,0.0,0.0,0.0,0.017453292519943295,0.0,0.0,0.0,0.15707963267948966,0.005742909852415323,0.007825123146176338,-0.02577590011060238,0.0004363323129985824,0.0,0.0,0.0,0.0004363323129985824,0.0,0.0,0.0,0.0004363323129985824,-0.14645305275917053,0.060410868376493454,9.822013854980469,0.0004,0.0,0.0,0.0,0.0004,0.0,0.0,0.0,0.0004
2025/05/07 10:53:05.698824736,1746607985,698127034,mti/imu_base_body,0.34095649310814474,0.9400329936859411,-0.0015913146865420519,-0.009171058107511593,0.017453292519943295,0.0,0.0,0.0,0.017453292519943295,0.0,0.0,0.0,0.15707963267948966,-0.0016986692789942026,0.0036486845929175615,-0.029287757351994514,0.0004363323129985824,0.0,0.0,0.0,0.0004363323129985824,0.0,0.0,0.0,0.0004363323129985824,-0.15272216498851776,0.0791393369436264,9.851325035095215,0.0004,0.0,0.0,0.0,0.0004,0.0,0.0,0.0,0.0004
2025/05/07 10:53:05.764061235,1746607985,751686603,mti/imu_base_body,0.3408347236333445,0.9400772754633635,-0.0015934183793576253,-0.00915796598757334,0.017453292519943295,0.0,0.0,0.0,0.017453292519943295,0.0,0.0,0.0,0.15707963267948966,0.011306493543088436,0.0019771824590861797,-0.018126627430319786,0.0004363323129985824,0.0,0.0,0.0,0.0004363323129985824,0.0,0.0,0.0,0.0004363323129985824,-0.13976381719112396,0.05201133340597153,9.818537712097168,0.0004,0.0,0.0,0.0,0.0004,0.0,0.0,0.0,0.0004
2025/05/07 10:53:05.800055889,1746607985,799484828,mti/imu_base_body,0.34068240360037033,0.9401330645155332,-0.0015301281204121125,-0.009109313346333756,0.017453292519943295,0.0,0.0,0.0,0.017453292519943295,0.0,0.0,0.0,0.15707963267948966,-0.004115092568099499,-0.0024769557639956474,-0.030492177233099937,0.0004363323129985824,0.0,0.0,0.0,0.0004363323129985824,0.0,0.0,0.0,0.0004363323129985824,-0.1545540690422058,0.040070679038763046,9.786507606506348,0.0004,0.0,0.0,0.0,0.0004,0.0,0.0,0.0,0.0004
2025/05/07 10:53:05.854824245,1746607985,853545682,mti/imu_base_body,0.3405403606350613,0.9401845934517193,-0.001522291796188064,-0.009103606002840962,0.017453292519943295,0.0,0.0,0.0,0.017453292519943295,0.0,0.0,0.0,0.15707963267948966,0.005452093202620745,0.006420467048883438,-0.027431445196270943,0.0004363323129985824,0.0,0.0,0.0,0.0004363323129985824,0.0,0.0,0.0,0.0004363323129985824,-0.15751776099205017,0.0533798485994339,9.798270225524902,0.0004,0.0,0.0,0.0,0.0004,0.0,0.0,0.0,0.0004
2025/05/07 10:53:05.901183288,1746607985,898742251,mti/imu_base_body,0.3359576981940157,0.9418353187379775,-0.000225090049283911,-0.008866044009612313,0.017453292519943295,0.0,0.0,0.0,0.017453292519943295,0.0,0.0,0.0,0.15707963267948966,0.0009141777409240603,-0.0011609612265601754,-0.03162061795592308,0.0004363323129985824,0.0,0.0,0.0,0.0004363323129985824,0.0,0.0,0.0,0.0004363323129985824,-0.1521378606557846,0.028893347829580307,9.860416412353516,0.0004,0.0,0.0,0.0,0.0004,0.0,0.0,0.0,0.0004
2025/05/07 10:53:05.950289324,1746607985,949614732,mti/imu_base_body,0.3358168546915956,0.9418855865004054,-0.00019196129626866242,-0.008862572916013941,0.017453292519943295,0.0,0.0,0.0,0.017453292519943295,0.0,0.0,0.0,0.15707963267948966,0.0037267894949764013,0.012412074953317642,-0.027035793289542198,0.0004363323129985824,0.0,0.0,0.0,0.0004363323129985824,0.0,0.0,0.0,0.0004363323129985824,-0.1525750458240509,0.056924670934677124,9.763778686523438,0.0004,0.0,0.0,0.0,0.0004,0.0,0.0,0.0,0.0004
2025/05/07 10:53:06.1018278,1746607985,999068468,mti/imu_base_body,0.33569013684373017,0.9419306839907047,-0.0001344112634788404,-0.008871331143243014,0.017453292519943295,0.0,0.0,0.0,0.017453292519943295,0.0,0.0,0.0,0.15707963267948966,0.005929692182689905,0.008408763445913792,-0.014566635712981224,0.0004363323129985824,0.0,0.0,0.0,0.0004363323129985824,0.0,0.0,0.0,0.0004363323129985824,-0.1574377864599228,0.0488990917801857,9.752264976501465,0.0004,0.0,0.0,0.0,0.0004,0.0,0.0,0.0,0.0004
2025/05/07 10:53:06.55992190,1746607986,51661890,mti/imu_base_body,0.3355790404636407,0.9419702519746729,-0.00014262809632887164,-0.008873085906239322,0.017453292519943295,0.0,0.0,0.0,0.017453292519943295,0.0,0.0,0.0,0.15707963267948966,0.009638508781790733,0.003144897287711501,-0.030145544558763504,0.0004363323129985824,0.0,0.0,0.0,0.0004363323129985824,0.0,0.0,0.0,0.0004363323129985824,-0.17157576978206635,0.04910389706492424,9.800540924072266,0.0004,0.0,0.0,0.0,0.0004,0.0,0.0,0.0,0.0004
2025/05/07 10:53:06.99518459,1746607986,98939808,mti/imu_base_body,0.335448278482687,0.942016636561457,-0.00011683156092325616,-0.008893551305743999,0.017453292519943295,0.0,0.0,0.0,0.017453292519943295,0.0,0.0,0.0,0.15707963267948966,0.007802970707416534,0.0069264876656234264,-0.026683242991566658,0.0004363323129985824,0.0,0.0,0.0,0.0004363323129985824,0.0,0.0,0.0,0.0004363323129985824,-0.16192854940891266,0.06355919688940048,9.840380668640137,0.0004,0.0,0.0,0.0,0.0004,0.0,0.0,0.0,0.0004
2025/05/07 10:53:06.148671892,1746607986,148231930,mti/imu_base_body,0.3352875833663295,0.9420738823826436,-6.065568140858901e-05,-0.008890044642632327,0.017453292519943295,0.0,0.0,0.0,0.017453292519943295,0.0,0.0,0.0,0.15707963267948966,0.0017313819844275713,0.009259081445634365,-0.025695737451314926,0.0004363323129985824,0.0,0.0,0.0,0.0004363323129985824,0.0,0.0,0.0,0.0004363323129985824,-0.13831397891044617,0.0597519725561142,9.788378715515137,0.0004,0.0,0.0,0.0,0.0004,0.0,0.0,0.0,0.0004
2025/05/07 10:53:06.199736019,1746607986,199066982,mti/imu_base_body,0.335174558765615,0.9421138919475085,-3.753120453051616e-05,-0.00891225825490372,0.017453292519943295,0.0,0.0,0.0,0.017453292519943295,0.0,0.0,0.0,0.15707963267948966,0.006691317539662123,0.003404289251193404,-0.030143756419420242,0.0004363323129985824,0.0,0.0,0.0,0.0004363323129985824,0.0,0.0,0.0,0.0004363323129985824,-0.18296268582344055,0.048590123653411865,9.76394271850586,0.0004,0.0,0.0,0.0,0.0004,0.0,0.0,0.0,0.0004
2025/05/07 10:53:06.250205138,1746607986,249686093,mti/imu_base_body,0.3350384172527016,0.9421621772524529,-2.3851968920033696e-05,-0.008926934009234989,0.017453292519943295,0.0,0.0,0.0,0.017453292519943295,0.0,0.0,0.0,0.15707963267948966,0.0066651152446866035,0.009667186997830868,-0.023701947182416916,0.0004363323129985824,0.0,0.0,0.0,0.0004363323129985824,0.0,0.0,0.0,0.0004363323129985824,-0.15630914270877838,0.040910784155130386,9.835567474365234,0.0004,0.0,0.0,0.0,0.0004,0.0,0.0,0.0,0.0004
2025/05/07 10:53:06.299439614,1746607986,298212087,mti/imu_base_body,0.33095338203790664,0.943602567379233,0.0005606667490158056,-0.009150923766908292,0.017453292519943295,0.0,0.0,0.0,0.017453292519943295,0.0,0.0,0.0,0.15707963267948966,0.015999004244804382,0.011953135021030903,-0.029179027304053307,0.0004363323129985824,0.0,0.0,0.0,0.0004363323129985824,0.0,0.0,0.0,0.0004363323129985824,-0.16801099479198456,0.05652914568781853,9.77208423614502,0.0004,0.0,0.0,0.0,0.0004,0.0,0.0,0.0,0.0004
2025/05/07 10:53:06.349476244,1746607986,348509898,mti/imu_base_body,0.33085800613170824,0.9436356280624144,0.0005635891572864007,-0.00919040788348107,0.017453292519943295,0.0,0.0,0.0,0.017453292519943295,0.0,0.0,0.0,0.15707963267948966,0.011988963931798935,0.010658963583409786,-0.01871621608734131,0.0004363323129985824,0.0,0.0,0.0,0.0004363323129985824,0.0,0.0,0.0,0.0004363323129985824,-0.12557201087474823,0.06873192638158798,9.814411163330078,0.0004,0.0,0.0,0.0,0.0004,0.0,0.0,0.0,0.0004
2025/05/07 10:53:06.399773745,1746607986,398153014,mti/imu_base_body,0.33073504945297005,0.9436783055803052,0.0005669261571534046,-0.009233701054178301,0.017453292519943295,0.0,0.0,0.0,0.017453292519943295,0.0,0.0,0.0,0.15707963267948966,0.011598947457969189,0.00810642633587122,-0.02281276509165764,0.0004363323129985824,0.0,0.0,0.0,0.0004363323129985824,0.0,0.0,0.0,0.0004363323129985824,-0.15124961733818054,0.06521566212177277,9.81287670135498,0.0004,0.0,0.0,0.0,0.0004,0.0,0.0,0.0,0.0004
2025/05/07 10:53:06.450646469,1746607986,450163536,mti/imu_base_body,0.3305947283480156,0.9437274396241507,0.000541229112235273,-0.009238634097885907,0.017453292519943295,0.0,0.0,0.0,0.017453292519943295,0.0,0.0,0.0,0.15707963267948966,0.01661723293364048,0.004854955710470676,-0.029109908267855644,0.0004363323129985824,0.0,0.0,0.0,0.0004363323129985824,0.0,0.0,0.0,0.0004363323129985824,-0.16170907020568848,0.04551238939166069,9.816972732543945,0.0004,0.0,0.0,0.0,0.0004,0.0,0.0,0.0,0.0004
2025/05/07 10:53:06.846210176,1746607986,498710416,mti/imu_base_body,0.3304365791805394,0.9437829393995425,0.0005656985734732393,-0.009225531038730233,0.017453292519943295,0.0,0.0,0.0,0.017453292519943295,0.0,0.0,0.0,0.15707963267948966,0.0021939442958682775,0.005555399693548679,-0.027180805802345276,0.0004363323129985824,0.0,0.0,0.0,0.0004363323129985824,0.0,0.0,0.0,0.0004363323129985824,-0.15146757662296295,0.0453370101749897,9.781309127807617,0.0004,0.0,0.0,0.0,0.0004,0.0,0.0,0.0,0.0004
2025/05/07 10:53:06.846474211,1746607986,549313683,mti/imu_base_body,0.33031924221855924,0.943824035879304,0.0005298133043453524,-0.009225335469325122,0.017453292519943295,0.0,0.0,0.0,0.017453292519943295,0.0,0.0,0.0,0.15707963267948966,0.01793772540986538,-0.002009655348956585,-0.02319495938718319,0.0004363323129985824,0.0,0.0,0.0,0.0004363323129985824,0.0,0.0,0.0,0.0004363323129985824,-0.1482706367969513,0.06167226284742355,9.801716804504395,0.0004,0.0,0.0,0.0,0.0004,0.0,0.0,0.0,0.0004
2025/05/07 10:53:06.846667908,1746607986,598152241,mti/imu_base_body,0.3301828803768074,0.9438712778663081,0.0005514930509382208,-0.009272118447912392,0.017453292519943295,0.0,0.0,0.0,0.017453292519943295,0.0,0.0,0.0,0.15707963267948966,0.01130541879683733,0.012932206504046917,-0.02604903280735016,0.0004363323129985824,0.0,0.0,0.0,0.0004363323129985824,0.0,0.0,0.0,0.0004363323129985824,-0.14630155265331268,0.0432877354323864,9.833511352539062,0.0004,0.0,0.0,0.0,0.0004,0.0,0.0,0.0,0.0004
2025/05/07 10:53:06.847111325,1746607986,648166873,mti/imu_base_body,0.3300373806111877,0.9439221161007928,0.0005489010410605465,-0.009277113923771027,0.017453292519943295,0.0,0.0,0.0,0.017453292519943295,0.0,0.0,0.0,0.15707963267948966,0.010396257042884827,0.006025809329003096,-0.0313955694437027,0.0004363323129985824,0.0,0.0,0.0,0.0004363323129985824,0.0,0.0,0.0,0.0004363323129985824,-0.16441935300827026,0.05691152065992355,9.79500675201416,0.0004,0.0,0.0,0.0,0.0004,0.0,0.0,0.0,0.0004
2025/05/07 10:53:06.854332743,1746607986,698673323,mti/imu_base_body,0.325920234517517,0.9453531824873294,0.00043268724668107245,-0.009119971210005611,0.017453292519943295,0.0,0.0,0.0,0.017453292519943295,0.0,0.0,0.0,0.15707963267948966,0.012176701799035072,0.0031315034721046686,-0.01618838496506214,0.0004363323129985824,0.0,0.0,0.0,0.0004363323129985824,0.0,0.0,0.0,0.0004363323129985824,-0.1587314009666443,0.0567607656121254,9.78062629699707,0.0004,0.0,0.0,0.0,0.0004,0.0,0.0,0.0,0.0004
2025/05/07 10:53:06.854501410,1746607986,747997976,mti/imu_base_body,0.32578354987896935,0.9454002957528269,0.00043915287368983744,-0.009119570355977722,0.017453292519943295,0.0,0.0,0.0,0.017453292519943295,0.0,0.0,0.0,0.15707963267948966,0.007840389385819435,0.0019080069614574313,-0.026354584842920303,0.0004363323129985824,0.0,0.0,0.0,0.0004363323129985824,0.0,0.0,0.0,0.0004363323129985824,-0.15838013589382172,0.051088154315948486,9.802714347839355,0.0004,0.0,0.0,0.0,0.0004,0.0,0.0,0.0,0.0004
2025/05/07 10:53:06.854634843,1746607986,799182150,mti/imu_base_body,0.32561762767218533,0.9454573731992788,0.0004083994222361326,-0.00912957951767045,0.017453292519943295,0.0,0.0,0.0,0.017453292519943295,0.0,0.0,0.0,0.15707963267948966,0.016034547239542007,0.0028328620828688145,-0.0332176499068737,0.0004363323129985824,0.0,0.0,0.0,0.0004363323129985824,0.0,0.0,0.0,0.0004363323129985824,-0.11666442453861237,0.0422636903822422,9.83231258392334,0.0004,0.0,0.0,0.0,0.0004,0.0,0.0,0.0,0.0004
2025/05/07 10:53:06.854759559,1746607986,853162682,mti/imu_base_body,0.3254865140736676,0.9455026759732539,0.00039485198186061873,-0.009113889153404376,0.017453292519943295,0.0,0.0,0.0,0.017453292519943295,0.0,0.0,0.0,0.15707963267948966,0.013250453397631645,0.0008151436340995133,-0.02536667510867119,0.0004363323129985824,0.0,0.0,0.0,0.0004363323129985824,0.0,0.0,0.0,0.0004363323129985824,-0.15863825380802155,0.07348305732011795,9.767305374145508,0.0004,0.0,0.0,0.0,0.0004,0.0,0.0,0.0,0.0004
2025/05/07 10:53:06.902958324,1746607986,898023794,mti/imu_base_body,0.3253637352214833,0.9455451107937132,0.00037894636532004745,-0.009096134150356164,0.017453292519943295,0.0,0.0,0.0,0.017453292519943295,0.0,0.0,0.0,0.15707963267948966,0.012740597128868103,-0.003914907108992338,-0.02270481176674366,0.0004363323129985824,0.0,0.0,0.0,0.0004363323129985824,0.0,0.0,0.0,0.0004363323129985824,-0.16184309124946594,0.06615573912858963,9.775952339172363,0.0004,0.0,0.0,0.0,0.0004,0.0,0.0,0.0,0.0004
2025/05/07 10:53:06.948355888,1746607986,948020606,mti/imu_base_body,0.32523492677624904,0.9455893750648869,0.00036114818411179476,-0.009101963592185139,0.017453292519943295,0.0,0.0,0.0,0.017453292519943295,0.0,0.0,0.0,0.15707963267948966,0.014234461821615696,0.0033643157221376896,-0.021890481933951378,0.0004363323129985824,0.0,0.0,0.0,0.0004363323129985824,0.0,0.0,0.0,0.0004363323129985824,-0.16441847383975983,0.05746625363826752,9.820003509521484,0.0004,0.0,0.0,0.0,0.0004,0.0,0.0,0.0,0.0004
2025/05/07 10:53:06.999727627,1746607986,998008708,mti/imu_base_body,0.3251253279320792,0.9456275420275355,0.00035897828014657025,-0.0090522942182517,0.017453292519943295,0.0,0.0,0.0,0.017453292519943295,0.0,0.0,0.0,0.15707963267948966,0.005728104151785374,-0.0033219563774764538,-0.01859036646783352,0.0004363323129985824,0.0,0.0,0.0,0.0004363323129985824,0.0,0.0,0.0,0.0004363323129985824,-0.1337307244539261,0.03201184421777725,9.841700553894043,0.0004,0.0,0.0,0.0,0.0004,0.0,0.0,0.0,0.0004
2025/05/07 10:53:07.48743707,1746607987,48005411,mti/imu_base_body,0.3250428560785681,0.9456562212550039,0.000356166667211966,-0.009018096212582191,0.017453292519943295,0.0,0.0,0.0,0.017453292519943295,0.0,0.0,0.0,0.15707963267948966,0.013423187658190727,-0.006677849683910608,-0.014567267149686813,0.0004363323129985824,0.0,0.0,0.0,0.0004363323129985824,0.0,0.0,0.0,0.0004363323129985824,-0.14340578019618988,0.02538038045167923,9.795734405517578,0.0004,0.0,0.0,0.0,0.0004,0.0,0.0,0.0,0.0004
2025/05/07 10:53:07.98520911,1746607987,97997691,mti/imu_base_body,0.32134483812940884,0.9469206557636727,7.427759701581892e-05,-0.008874749490476442,0.017453292519943295,0.0,0.0,0.0,0.017453292519943295,0.0,0.0,0.0,0.15707963267948966,0.01035118568688631,-0.004910283721983433,-0.00794295221567154,0.0004363323129985824,0.0,0.0,0.0,0.0004363323129985824,0.0,0.0,0.0,0.0004363323129985824,-0.15059249103069305,0.05895904079079628,9.825509071350098,0.0004,0.0,0.0,0.0,0.0004,0.0,0.0,0.0,0.0004
2025/05/07 10:53:07.153635377,1746607987,148014010,mti/imu_base_body,0.32126169776006347,0.9469489082233808,4.737762582471012e-05,-0.008870429653009378,0.017453292519943295,0.0,0.0,0.0,0.017453292519943295,0.0,0.0,0.0,0.15707963267948966,0.0183514803647995,0.003402120666578412,-0.019473344087600708,0.0004363323129985824,0.0,0.0,0.0,0.0004363323129985824,0.0,0.0,0.0,0.0004363323129985824,-0.143702432513237,0.049794163554906845,9.843505859375,0.0004,0.0,0.0,0.0,0.0004,0.0,0.0,0.0,0.0004
2025/05/07 10:53:07.201304041,1746607987,200051555,mti/imu_base_body,0.321169312075408,0.9469802049445659,2.0452892453543155e-05,-0.008874908779033602,0.017453292519943295,0.0,0.0,0.0,0.017453292519943295,0.0,0.0,0.0,0.15707963267948966,0.01170371100306511,0.0002707241801545024,-0.014776055701076984,0.0004363323129985824,0.0,0.0,0.0,0.0004363323129985824,0.0,0.0,0.0,0.0004363323129985824,-0.1876392811536789,0.05557358264923096,9.787854194641113,0.0004,0.0,0.0,0.0,0.0004,0.0,0.0,0.0,0.0004
2025/05/07 10:53:07.251172540,1746607987,248655615,mti/imu_base_body,0.3210169209926795,0.9470321676032127,2.00011340707254e-05,-0.00884361696902384,0.017453292519943295,0.0,0.0,0.0,0.017453292519943295,0.0,0.0,0.0,0.15707963267948966,0.01365404762327671,-6.581113120773807e-05,-0.03258873522281647,0.0004363323129985824,0.0,0.0,0.0,0.0004363323129985824,0.0,0.0,0.0,0.0004363323129985824,-0.15281718969345093,0.053582411259412766,9.711243629455566,0.0004,0.0,0.0,0.0,0.0004,0.0,0.0,0.0,0.0004
2025/05/07 10:53:07.298638764,1746607987,298315461,mti/imu_base_body,0.32092706789650255,0.9470625933715293,8.147034343361503e-06,-0.008846539513998978,0.017453292519943295,0.0,0.0,0.0,0.017453292519943295,0.0,0.0,0.0,0.15707963267948966,0.009759269654750824,0.003557530464604497,-0.011288580484688282,0.0004363323129985824,0.0,0.0,0.0,0.0004363323129985824,0.0,0.0,0.0,0.0004363323129985824,-0.09808161854743958,0.03736843913793564,9.903943061828613,0.0004,0.0,0.0,0.0,0.0004,0.0,0.0,0.0,0.0004
2025/05/07 10:53:07.349938480,1746607987,349570281,mti/imu_base_body,0.3208116804403055,0.9471019538660644,-4.563710000268697e-05,-0.00881774310158244,0.017453292519943295,0.0,0.0,0.0,0.017453292519943295,0.0,0.0,0.0,0.15707963267948966,0.01809404045343399,-0.004898342769593,-0.025412365794181824,0.0004363323129985824,0.0,0.0,0.0,0.0004363323129985824,0.0,0.0,0.0,0.0004363323129985824,-0.11433998495340347,0.04888402298092842,9.83782958984375,0.0004,0.0,0.0,0.0,0.0004,0.0,0.0,0.0,0.0004
2025/05/07 10:53:07.400589457,1746607987,398892654,mti/imu_base_body,0.32071496100071334,0.9471347177202665,-3.614478586140817e-05,-0.008816970727875195,0.017453292519943295,0.0,0.0,0.0,0.017453292519943295,0.0,0.0,0.0,0.15707963267948966,0.008954863995313644,0.0049368953332304955,-0.016775688156485558,0.0004363323129985824,0.0,0.0,0.0,0.0004363323129985824,0.0,0.0,0.0,0.0004363323129985824,-0.14568479359149933,0.03689379245042801,9.813375473022461,0.0004,0.0,0.0,0.0,0.0004,0.0,0.0,0.0,0.0004
2025/05/07 10:53:07.456450370,1746607987,449157806,mti/imu_base_body,0.3206298210142061,0.9471635103887238,-1.0161810733899136e-05,-0.008820564678372923,0.017453292519943295,0.0,0.0,0.0,0.017453292519943295,0.0,0.0,0.0,0.15707963267948966,0.010280036367475986,0.005968390963971615,-0.01900746487081051,0.0004363323129985824,0.0,0.0,0.0,0.0004363323129985824,0.0,0.0,0.0,0.0004363323129985824,-0.16311681270599365,0.01884191855788231,9.760579109191895,0.0004,0.0,0.0,0.0,0.0004,0.0,0.0,0.0,0.0004
2025/05/07 10:53:07.499000867,1746607987,498598489,mti/imu_base_body,0.31731560230455386,0.9482787842707048,-0.0008807554232968607,-0.008796596276796003,0.017453292519943295,0.0,0.0,0.0,0.017453292519943295,0.0,0.0,0.0,0.15707963267948966,0.011034638620913029,0.0035959105007350445,-0.02364979311823845,0.0004363323129985824,0.0,0.0,0.0,0.0004363323129985824,0.0,0.0,0.0,0.0004363323129985824,-0.12882091104984283,0.062498800456523895,9.902782440185547,0.0004,0.0,0.0,0.0,0.0004,0.0,0.0,0.0,0.0004
2025/05/07 10:53:07.554976493,1746607987,548599118,mti/imu_base_body,0.31720772691630816,0.9483147478264969,-0.000947213650456905,-0.0088033985287847,0.017453292519943295,0.0,0.0,0.0,0.017453292519943295,0.0,0.0,0.0,0.15707963267948966,0.0194491408765316,0.000898536469321698,-0.014600276947021484,0.0004363323129985824,0.0,0.0,0.0,0.0004363323129985824,0.0,0.0,0.0,0.0004363323129985824,-0.15388783812522888,0.04837573319673538,9.863797187805176,0.0004,0.0,0.0,0.0,0.0004,0.0,0.0,0.0,0.0004
2025/05/07 10:53:07.598516557,1746607987,598198896,mti/imu_base_body,0.31709352039223465,0.9483528400581742,-0.0009634639116474298,-0.008812594177953551,0.017453292519943295,0.0,0.0,0.0,0.017453292519943295,0.0,0.0,0.0,0.15707963267948966,0.013729678466916084,0.002125641331076622,-0.018644658848643303,0.0004363323129985824,0.0,0.0,0.0,0.0004363323129985824,0.0,0.0,0.0,0.0004363323129985824,-0.17780329287052155,0.05292494222521782,9.760470390319824,0.0004,0.0,0.0,0.0,0.0004,0.0,0.0,0.0,0.0004
2025/05/07 10:53:07.649325796,1746607987,649007108,mti/imu_base_body,0.3169707295857237,0.9483939988729301,-0.000968084525632156,-0.008800130684127126,0.017453292519943295,0.0,0.0,0.0,0.017453292519943295,0.0,0.0,0.0,0.15707963267948966,0.014930746518075466,0.0017846084665507078,-0.023443901911377907,0.0004363323129985824,0.0,0.0,0.0,0.0004363323129985824,0.0,0.0,0.0,0.0004363323129985824,-0.15392793715000153,0.037378083914518356,9.821188926696777,0.0004,0.0,0.0,0.0,0.0004,0.0,0.0,0.0,0.0004
2025/05/07 10:53:07.700570803,1746607987,698029743,mti/imu_base_body,0.3168675075657404,0.9484283228467842,-0.001029738505612833,-0.008811283091679091,0.017453292519943295,0.0,0.0,0.0,0.017453292519943295,0.0,0.0,0.0,0.15707963267948966,0.024269085377454758,0.002463506767526269,-0.022907117381691933,0.0004363323129985824,0.0,0.0,0.0,0.0004363323129985824,0.0,0.0,0.0,0.0004363323129985824,-0.1366904228925705,0.03775149583816528,9.902310371398926,0.0004,0.0,0.0,0.0,0.0004,0.0,0.0,0.0,0.0004
2025/05/07 10:53:07.749445135,1746607987,749056241,mti/imu_base_body,0.316734816828379,0.9484726820574123,-0.0010585823186409367,-0.008803783447271804,0.017453292519943295,0.0,0.0,0.0,0.017453292519943295,0.0,0.0,0.0,0.15707963267948966,0.013524683192372322,0.003235812531784177,-0.02427786961197853,0.0004363323129985824,0.0,0.0,0.0,0.0004363323129985824,0.0,0.0,0.0,0.0004363323129985824,-0.1691533476114273,0.055773817002773285,9.818204879760742,0.0004,0.0,0.0,0.0,0.0004,0.0,0.0,0.0,0.0004
2025/05/07 10:53:07.800385518,1746607987,799145283,mti/imu_base_body,0.31663912663845395,0.9485044075888066,-0.00109485619696524,-0.008823466220928465,0.017453292519943295,0.0,0.0,0.0,0.017453292519943295,0.0,0.0,0.0,0.15707963267948966,0.018375206738710403,0.0014242040924727917,-0.01661454699933529,0.0004363323129985824,0.0,0.0,0.0,0.0004363323129985824,0.0,0.0,0.0,0.0004363323129985824,-0.174002006649971,0.06954383850097656,9.75819206237793,0.0004,0.0,0.0,0.0,0.0004,0.0,0.0,0.0,0.0004
2025/05/07 10:53:07.859118525,1746607987,849633374,mti/imu_base_body,0.3165238817458237,0.9485429556067956,-0.001163061420444487,-0.008805733439788263,0.017453292519943295,0.0,0.0,0.0,0.017453292519943295,0.0,0.0,0.0,0.15707963267948966,0.020791001617908478,-0.0004008594842161983,-0.023102939128875732,0.0004363323129985824,0.0,0.0,0.0,0.0004363323129985824,0.0,0.0,0.0,0.0004363323129985824,-0.15823130309581757,0.0692945048213005,9.836316108703613,0.0004,0.0,0.0,0.0,0.0004,0.0,0.0,0.0,0.0004
2025/05/07 10:53:07.900387784,1746607987,898189707,mti/imu_base_body,0.31331393704879207,0.9496040766499789,-0.0018618771857859874,-0.009110865714712516,0.017453292519943295,0.0,0.0,0.0,0.017453292519943295,0.0,0.0,0.0,0.15707963267948966,0.016914643347263336,0.008355888538062572,-0.012926382012665272,0.0004363323129985824,0.0,0.0,0.0,0.0004363323129985824,0.0,0.0,0.0,0.0004363323129985824,-0.1529603898525238,0.045660074800252914,9.85524845123291,0.0004,0.0,0.0,0.0,0.0004,0.0,0.0,0.0,0.0004
2025/05/07 10:53:07.949383805,1746607987,947991350,mti/imu_base_body,0.31318359346351454,0.9496470353764555,-0.001898010788845988,-0.009107279562768834,0.017453292519943295,0.0,0.0,0.0,0.017453292519943295,0.0,0.0,0.0,0.15707963267948966,0.01765078864991665,0.005664549767971039,-0.030032983049750328,0.0004363323129985824,0.0,0.0,0.0,0.0004363323129985824,0.0,0.0,0.0,0.0004363323129985824,-0.13145513832569122,0.014579740352928638,9.827380180358887,0.0004,0.0,0.0,0.0,0.0004,0.0,0.0,0.0,0.0004
2025/05/07 10:53:07.998544291,1746607987,998156872,mti/imu_base_body,0.3130735103000213,0.9496827854302219,-0.0019135015111448814,-0.00916093433467838,0.017453292519943295,0.0,0.0,0.0,0.017453292519943295,0.0,0.0,0.0,0.15707963267948966,0.014818813651800156,0.009249631315469742,-0.020887834951281548,0.0004363323129985824,0.0,0.0,0.0,0.0004363323129985824,0.0,0.0,0.0,0.0004363323129985824,-0.1239570677280426,0.03339941427111626,9.810200691223145,0.0004,0.0,0.0,0.0,0.0004,0.0,0.0,0.0,0.0004
2025/05/07 10:53:08.49837584,1746607988,49405140,mti/imu_base_body,0.3129542848795046,0.9497218957099713,-0.0019312149489904788,-0.009176425962042658,0.017453292519943295,0.0,0.0,0.0,0.017453292519943295,0.0,0.0,0.0,0.15707963267948966,0.016291560605168343,-3.83625301765278e-05,-0.019448818638920784,0.0004363323129985824,0.0,0.0,0.0,0.0004363323129985824,0.0,0.0,0.0,0.0004363323129985824,-0.14353357255458832,0.05271200090646744,9.83651351928711,0.0004,0.0,0.0,0.0,0.0004,0.0,0.0,0.0,0.0004
2025/05/07 10:53:08.99510942,1746607988,97998985,mti/imu_base_body,0.31286230806024407,0.9497521195374482,-0.0019508713417920715,-0.009180508174887594,0.017453292519943295,0.0,0.0,0.0,0.017453292519943295,0.0,0.0,0.0,0.15707963267948966,0.01646282710134983,0.006367409601807594,-0.02405494451522827,0.0004363323129985824,0.0,0.0,0.0,0.0004363323129985824,0.0,0.0,0.0,0.0004363323129985824,-0.13808801770210266,0.04858175292611122,9.856310844421387,0.0004,0.0,0.0,0.0,0.0004,0.0,0.0,0.0,0.0004
2025/05/07 10:53:08.149272595,1746607988,148882861,mti/imu_base_body,0.3127290830384873,0.9497959697721232,-0.001986438765401813,-0.009175537454021781,0.017453292519943295,0.0,0.0,0.0,0.017453292519943295,0.0,0.0,0.0,0.15707963267948966,0.01229417696595192,0.004125040490180254,-0.015714339911937714,0.0004363323129985824,0.0,0.0,0.0,0.0004363323129985824,0.0,0.0,0.0,0.0004363323129985824,-0.16134177148342133,0.06774460524320602,9.80437183380127,0.0004,0.0,0.0,0.0,0.0004,0.0,0.0,0.0,0.0004
2025/05/07 10:53:08.199368266,1746607988,198121769,mti/imu_base_body,0.3126416402928908,0.9498252339912858,-0.001983641432900812,-0.009126598218136498,0.017453292519943295,0.0,0.0,0.0,0.017453292519943295,0.0,0.0,0.0,0.15707963267948966,0.012208941392600536,-0.008935672231018543,-0.019356481730937958,0.0004363323129985824,0.0,0.0,0.0,0.0004363323129985824,0.0,0.0,0.0,0.0004363323129985824,-0.14997658133506775,0.0449310764670372,9.802445411682129,0.0004,0.0,0.0,0.0,0.0004,0.0,0.0,0.0,0.0004
2025/05/07 10:53:08.270021995,1746607988,258808509,mti/imu_base_body,0.31254226284999925,0.9498579647734522,-0.0019896064629468346,-0.009122617779989245,0.017453292519943295,0.0,0.0,0.0,0.017453292519943295,0.0,0.0,0.0,0.15707963267948966,0.008619066327810287,0.0032130901236087084,-0.017966605722904205,0.0004363323129985824,0.0,0.0,0.0,0.0004363323129985824,0.0,0.0,0.0,0.0004363323129985824,-0.13436594605445862,0.04613193869590759,9.868917465209961,0.0004,0.0,0.0,0.0,0.0004,0.0,0.0,0.0,0.0004
2025/05/07 10:53:08.299118163,1746607988,298325984,mti/imu_base_body,0.3095547490620604,0.9508351790927362,-0.0018491719655574475,-0.009214124801117444,0.017453292519943295,0.0,0.0,0.0,0.017453292519943295,0.0,0.0,0.0,0.15707963267948966,0.014997710473835468,0.006395203061401844,-0.010996554046869278,0.0004363323129985824,0.0,0.0,0.0,0.0004363323129985824,0.0,0.0,0.0,0.0004363323129985824,-0.16324014961719513,0.0688517615199089,9.830533027648926,0.0004,0.0,0.0,0.0,0.0004,0.0,0.0,0.0,0.0004
2025/05/07 10:53:08.348663847,1746607988,348344266,mti/imu_base_body,0.3094614979409777,0.9508652795161077,-0.0018649102002946615,-0.009237078154110933,0.017453292519943295,0.0,0.0,0.0,0.017453292519943295,0.0,0.0,0.0,0.15707963267948966,0.009006472304463387,0.007508106995373964,-0.014901155605912209,0.0004363323129985824,0.0,0.0,0.0,0.0004363323129985824,0.0,0.0,0.0,0.0004363323129985824,-0.15113398432731628,0.059226736426353455,9.859086990356445,0.0004,0.0,0.0,0.0,0.0004,0.0,0.0,0.0,0.0004
2025/05/07 10:53:08.398516099,1746607988,398027213,mti/imu_base_body,0.30937116615298627,0.9508949408797549,-0.0018451603688561572,-0.009213487159678683,0.017453292519943295,0.0,0.0,0.0,0.017453292519943295,0.0,0.0,0.0,0.15707963267948966,0.011909326538443565,0.0014171546790748835,-0.01436320785433054,0.0004363323129985824,0.0,0.0,0.0,0.0004363323129985824,0.0,0.0,0.0,0.0004363323129985824,-0.1567002534866333,0.0666656494140625,9.774482727050781,0.0004,0.0,0.0,0.0,0.0004,0.0,0.0,0.0,0.0004
2025/05/07 10:53:08.486158935,1746607988,448222223,mti/imu_base_body,0.30925301265830696,0.9509332329804013,-0.0018473675419371158,-0.009227557009719781,0.017453292519943295,0.0,0.0,0.0,0.017453292519943295,0.0,0.0,0.0,0.15707963267948966,0.007557366043329239,0.0076872664503753185,-0.025174520909786224,0.0004363323129985824,0.0,0.0,0.0,0.0004363323129985824,0.0,0.0,0.0,0.0004363323129985824,-0.1503014713525772,0.06238248199224472,9.770506858825684,0.0004,0.0,0.0,0.0,0.0004,0.0,0.0,0.0,0.0004
2025/05/07 10:53:08.504669383,1746607988,498385207,mti/imu_base_body,0.30912732870674986,0.9509740059981396,-0.0018445654914705845,-0.009237539749687954,0.017453292519943295,0.0,0.0,0.0,0.017453292519943295,0.0,0.0,0.0,0.15707963267948966,0.014357022941112518,0.007462598849087954,-0.019000491127371788,0.0004363323129985824,0.0,0.0,0.0,0.0004363323129985824,0.0,0.0,0.0,0.0004363323129985824,-0.1384604424238205,0.06387688219547272,9.854277610778809,0.0004,0.0,0.0,0.0,0.0004,0.0,0.0,0.0,0.0004
2025/05/07 10:53:08.582883535,1746607988,549490313,mti/imu_base_body,0.3090264063906153,0.951006662675736,-0.0018223066151149742,-0.009256721788068356,0.017453292519943295,0.0,0.0,0.0,0.017453292519943295,0.0,0.0,0.0,0.15707963267948966,0.000496284628752619,0.0054819826036691666,-0.01748022250831127,0.0004363323129985824,0.0,0.0,0.0,0.0004363323129985824,0.0,0.0,0.0,0.0004363323129985824,-0.153595969080925,0.03344153240323067,9.848286628723145,0.0004,0.0,0.0,0.0,0.0004,0.0,0.0,0.0,0.0004
2025/05/07 10:53:08.604131636,1746607988,603726612,mti/imu_base_body,0.30895950142046924,0.9510286577340407,-0.001784732777442693,-0.009237606806800738,0.017453292519943295,0.0,0.0,0.0,0.017453292519943295,0.0,0.0,0.0,0.15707963267948966,0.00684939743950963,0.0018835050286725163,-0.014773359522223473,0.0004363323129985824,0.0,0.0,0.0,0.0004363323129985824,0.0,0.0,0.0,0.0004363323129985824,-0.17110449075698853,0.04486512765288353,9.803061485290527,0.0004,0.0,0.0,0.0,0.0004,0.0,0.0,0.0,0.0004
2025/05/07 10:53:08.655334205,1746607988,651377217,mti/imu_base_body,0.3088832184745677,0.9510536696975419,-0.001782821841964789,-0.009213915883646603,0.017453292519943295,0.0,0.0,0.0,0.017453292519943295,0.0,0.0,0.0,0.15707963267948966,0.009052606299519539,0.00040850663208402693,-0.013585913926362991,0.0004363323129985824,0.0,0.0,0.0,0.0004363323129985824,0.0,0.0,0.0,0.0004363323129985824,-0.14346766471862793,0.03767533227801323,9.80398941040039,0.0004,0.0,0.0,0.0,0.0004,0.0,0.0,0.0,0.0004
2025/05/07 10:53:08.703356010,1746607988,702825234,mti/imu_base_body,0.3059837188849872,0.9519936110634943,-0.0011568263862336819,-0.008988327114269223,0.017453292519943295,0.0,0.0,0.0,0.017453292519943295,0.0,0.0,0.0,0.15707963267948966,0.015697306022047997,0.0071624647825956345,-0.010733013972640038,0.0004363323129985824,0.0,0.0,0.0,0.0004363323129985824,0.0,0.0,0.0,0.0004363323129985824,-0.13782452046871185,0.0697569027543068,9.806525230407715,0.0004,0.0,0.0,0.0,0.0004,0.0,0.0,0.0,0.0004
2025/05/07 10:53:08.798325846,1746607988,748057726,mti/imu_base_body,0.3058689641686686,0.9520304369805502,-0.0011835652452797888,-0.008990160972893365,0.017453292519943295,0.0,0.0,0.0,0.017453292519943295,0.0,0.0,0.0,0.15707963267948966,0.012634025886654854,0.002337732585147023,-0.021513741463422775,0.0004363323129985824,0.0,0.0,0.0,0.0004363323129985824,0.0,0.0,0.0,0.0004363323129985824,-0.17122571170330048,0.05712888017296791,9.813055038452148,0.0004,0.0,0.0,0.0,0.0004,0.0,0.0,0.0,0.0004
2025/05/07 10:53:08.802384107,1746607988,798387062,mti/imu_base_body,0.3057617842225564,0.9520648323641532,-0.001206702060056001,-0.008990559192501413,0.017453292519943295,0.0,0.0,0.0,0.017453292519943295,0.0,0.0,0.0,0.15707963267948966,0.013054960407316685,0.00014090652985032648,-0.018227454274892807,0.0004363323129985824,0.0,0.0,0.0,0.0004363323129985824,0.0,0.0,0.0,0.0004363323129985824,-0.16755366325378418,0.05938277393579483,9.789642333984375,0.0004,0.0,0.0,0.0,0.0004,0.0,0.0,0.0,0.0004
2025/05/07 10:53:08.848832470,1746607988,848232048,mti/imu_base_body,0.30564346258254865,0.9521029165124368,-0.001149822138694986,-0.008988217738302128,0.017453292519943295,0.0,0.0,0.0,0.017453292519943295,0.0,0.0,0.0,0.15707963267948966,0.001329041668213904,0.00784355029463768,-0.021173568442463875,0.0004363323129985824,0.0,0.0,0.0,0.0004363323129985824,0.0,0.0,0.0,0.0004363323129985824,-0.1376449465751648,0.06226862967014313,9.785163879394531,0.0004,0.0,0.0,0.0,0.0004,0.0,0.0,0.0,0.0004
2025/05/07 10:53:08.901125776,1746607988,897998035,mti/imu_base_body,0.3055734408521779,0.952125325614517,-0.0011464744189765173,-0.00899567482831782,0.017453292519943295,0.0,0.0,0.0,0.017453292519943295,0.0,0.0,0.0,0.15707963267948966,0.009717954322695732,0.006501311901956797,-0.013377350755035877,0.0004363323129985824,0.0,0.0,0.0,0.0004363323129985824,0.0,0.0,0.0,0.0004363323129985824,-0.15487425029277802,0.04888290911912918,9.813631057739258,0.0004,0.0,0.0,0.0,0.0004,0.0,0.0,0.0,0.0004
2025/05/07 10:53:08.953934974,1746607988,947902643,mti/imu_base_body,0.30552346869320174,0.9521412515477503,-0.00110421082450686,-0.009012652063214072,0.017453292519943295,0.0,0.0,0.0,0.017453292519943295,0.0,0.0,0.0,0.15707963267948966,0.0046764700673520565,0.005800697021186352,-0.0057249185629189014,0.0004363323129985824,0.0,0.0,0.0,0.0004363323129985824,0.0,0.0,0.0,0.0004363323129985824,-0.15361112356185913,0.04099117964506149,9.779655456542969,0.0004,0.0,0.0,0.0,0.0004,0.0,0.0,0.0,0.0004
2025/05/07 10:53:09.358451,1746607988,998193935,mti/imu_base_body,0.30545182379514263,0.9521642724208979,-0.0011235231220235635,-0.009006628736520979,0.017453292519943295,0.0,0.0,0.0,0.017453292519943295,0.0,0.0,0.0,0.15707963267948966,0.009699824266135693,0.003556912997737527,-0.011329041793942451,0.0004363323129985824,0.0,0.0,0.0,0.0004363323129985824,0.0,0.0,0.0,0.0004363323129985824,-0.13992494344711304,0.06706346571445465,9.783366203308105,0.0004,0.0,0.0,0.0,0.0004,0.0,0.0,0.0,0.0004
2025/05/07 10:53:09.51399969,1746607989,48161890,mti/imu_base_body,0.3053555746183646,0.9521950323567588,-0.0010812634922249481,-0.00902353998492398,0.017453292519943295,0.0,0.0,0.0,0.017453292519943295,0.0,0.0,0.0,0.15707963267948966,0.0024137552827596664,0.007631297688931227,-0.023596491664648056,0.0004363323129985824,0.0,0.0,0.0,0.0004363323129985824,0.0,0.0,0.0,0.0004363323129985824,-0.15157821774482727,0.08066146075725555,9.792855262756348,0.0004,0.0,0.0,0.0,0.0004,0.0,0.0,0.0,0.0004
2025/05/07 10:53:09.98557569,1746607989,98141453,mti/imu_base_body,0.3027193157464712,0.9530350228210858,-0.0004755757905963512,-0.009221441214272617,0.017453292519943295,0.0,0.0,0.0,0.017453292519943295,0.0,0.0,0.0,0.15707963267948966,0.011366676539182663,0.012127564288675785,-0.01422200445085764,0.0004363323129985824,0.0,0.0,0.0,0.0004363323129985824,0.0,0.0,0.0,0.0004363323129985824,-0.15810896456241608,0.03811744228005409,9.821066856384277,0.0004,0.0,0.0,0.0,0.0004,0.0,0.0,0.0,0.0004
2025/05/07 10:53:09.148463011,1746607989,148151608,mti/imu_base_body,0.30264711823158685,0.9530581565328355,-0.00043378569831226815,-0.009202386772831903,0.017453292519943295,0.0,0.0,0.0,0.017453292519943295,0.0,0.0,0.0,0.15707963267948966,-0.004369658883661032,0.0032793967984616756,-0.01424132939428091,0.0004363323129985824,0.0,0.0,0.0,0.0004363323129985824,0.0,0.0,0.0,0.0004363323129985824,-0.15694689750671387,0.052360981702804565,9.778220176696777,0.0004,0.0,0.0,0.0,0.0004,0.0,0.0,0.0,0.0004
2025/05/07 10:53:09.243180824,1746607989,198424061,mti/imu_base_body,0.30260903890390956,0.9530700364977427,-0.00038488986322687997,-0.00922642745793268,0.017453292519943295,0.0,0.0,0.0,0.017453292519943295,0.0,0.0,0.0,0.15707963267948966,0.0033759945072233677,0.005654935725033283,-0.003640345996245742,0.0004363323129985824,0.0,0.0,0.0,0.0004363323129985824,0.0,0.0,0.0,0.0004363323129985824,-0.17320236563682556,0.07258746027946472,9.747858047485352,0.0004,0.0,0.0,0.0,0.0004,0.0,0.0,0.0,0.0004
2025/05/07 10:53:09.250127974,1746607989,248016427,mti/imu_base_body,0.3025245255877452,0.9530970608301992,-0.00037574372396740035,-0.009206675371656484,0.017453292519943295,0.0,0.0,0.0,0.017453292519943295,0.0,0.0,0.0,0.15707963267948966,0.004047491122037172,0.0030178609304130077,-0.016032615676522255,0.0004363323129985824,0.0,0.0,0.0,0.0004363323129985824,0.0,0.0,0.0,0.0004363323129985824,-0.16115033626556396,0.06864268332719803,9.771380424499512,0.0004,0.0,0.0,0.0,0.0004,0.0,0.0,0.0,0.0004
2025/05/07 10:53:09.301555690,1746607989,300286654,mti/imu_base_body,0.3024550843470738,0.9531191032468692,-0.00035624871621464747,-0.009207066054953958,0.017453292519943295,0.0,0.0,0.0,0.017453292519943295,0.0,0.0,0.0,0.15707963267948966,0.012730469927191734,0.007167112547904253,-0.013827274553477764,0.0004363323129985824,0.0,0.0,0.0,0.0004363323129985824,0.0,0.0,0.0,0.0004363323129985824,-0.14207854866981506,0.06016509607434273,9.805928230285645,0.0004,0.0,0.0,0.0,0.0004,0.0,0.0,0.0,0.0004
2025/05/07 10:53:09.348487763,1746607989,348045936,mti/imu_base_body,0.3024023451226479,0.9531357147369113,-0.0003236950760497166,-0.00922096409156251,0.017453292519943295,0.0,0.0,0.0,0.017453292519943295,0.0,0.0,0.0,0.15707963267948966,0.007222347427159548,0.006411237642168999,-0.007905309088528156,0.0004363323129985824,0.0,0.0,0.0,0.0004363323129985824,0.0,0.0,0.0,0.0004363323129985824,-0.1494673788547516,0.059643957763910294,9.814224243164062,0.0004,0.0,0.0,0.0,0.0004,0.0,0.0,0.0,0.0004
2025/05/07 10:53:09.398733032,1746607989,398018770,mti/imu_base_body,0.3023422857933237,0.9531545179424025,-0.00032539879562938634,-0.009246689292840926,0.017453292519943295,0.0,0.0,0.0,0.017453292519943295,0.0,0.0,0.0,0.15707963267948966,0.005486878100782633,0.010052277706563473,-0.007677712477743626,0.0004363323129985824,0.0,0.0,0.0,0.0004363323129985824,0.0,0.0,0.0,0.0004363323129985824,-0.15774202346801758,0.02715306170284748,9.761652946472168,0.0004,0.0,0.0,0.0,0.0004,0.0,0.0,0.0,0.0004
2025/05/07 10:53:09.450721100,1746607989,448139612,mti/imu_base_body,0.3022930561242096,0.9531702343641018,-0.0003082420217344435,-0.009236748790823469,0.017453292519943295,0.0,0.0,0.0,0.017453292519943295,0.0,0.0,0.0,0.15707963267948966,0.013417826034128666,-0.0012375912629067898,-0.005640703719109297,0.0004363323129985824,0.0,0.0,0.0,0.0004363323129985824,0.0,0.0,0.0,0.0004363323129985824,-0.16620270907878876,0.014221618883311749,9.780511856079102,0.0004,0.0,0.0,0.0,0.0004,0.0,0.0,0.0,0.0004
2025/05/07 10:53:09.523620672,1746607989,500315346,mti/imu_base_body,0.3000747628175273,0.9538700601494279,-0.0004226120301836457,-0.009320218323815233,0.017453292519943295,0.0,0.0,0.0,0.017453292519943295,0.0,0.0,0.0,0.15707963267948966,0.01923997513949871,-0.004316843114793301,-0.015699833631515503,0.0004363323129985824,0.0,0.0,0.0,0.0004363323129985824,0.0,0.0,0.0,0.0004363323129985824,-0.14091931283473969,0.06242266297340393,9.827780723571777,0.0004,0.0,0.0,0.0,0.0004,0.0,0.0,0.0,0.0004
2025/05/07 10:53:09.548453572,1746607989,548024588,mti/imu_base_body,0.30000760992442455,0.9538912699381724,-0.0004003356441367751,-0.009312295879478617,0.017453292519943295,0.0,0.0,0.0,0.017453292519943295,0.0,0.0,0.0,0.15707963267948966,0.0014359321212396026,0.007579677738249302,-0.009150614030659199,0.0004363323129985824,0.0,0.0,0.0,0.0004363323129985824,0.0,0.0,0.0,0.0004363323129985824,-0.14003215730190277,0.05778364837169647,9.876028060913086,0.0004,0.0,0.0,0.0,0.0004,0.0,0.0,0.0,0.0004
2025/05/07 10:53:09.606160186,1746607989,598793219,mti/imu_base_body,0.2999545076940517,0.9539081484614635,-0.0004147775561125881,-0.009293307937446031,0.017453292519943295,0.0,0.0,0.0,0.017453292519943295,0.0,0.0,0.0,0.15707963267948966,0.01609685644507408,-0.00108350720256567,-0.010917109437286854,0.0004363323129985824,0.0,0.0,0.0,0.0004363323129985824,0.0,0.0,0.0,0.0004363323129985824,-0.16323502361774445,0.041877854615449905,9.793474197387695,0.0004,0.0,0.0,0.0,0.0004,0.0,0.0,0.0,0.0004
2025/05/07 10:53:09.653498540,1746607989,648030219,mti/imu_base_body,0.29984149378666275,0.953943660711257,-0.0004270467396752615,-0.009294537302674544,0.017453292519943295,0.0,0.0,0.0,0.017453292519943295,0.0,0.0,0.0,0.15707963267948966,0.011402812786400318,-0.0046407002955675125,-0.014366085641086102,0.0004363323129985824,0.0,0.0,0.0,0.0004363323129985824,0.0,0.0,0.0,0.0004363323129985824,-0.16272729635238647,0.04280407726764679,9.7976713180542,0.0004,0.0,0.0,0.0,0.0004,0.0,0.0,0.0,0.0004
2025/05/07 10:53:09.704038308,1746607989,698104047,mti/imu_base_body,0.29977866441937445,0.9539634810120037,-0.00042966331236700926,-0.009286799439767162,0.017453292519943295,0.0,0.0,0.0,0.017453292519943295,0.0,0.0,0.0,0.15707963267948966,0.014612492173910141,0.007636692840605974,-0.012338095344603062,0.0004363323129985824,0.0,0.0,0.0,0.0004363323129985824,0.0,0.0,0.0,0.0004363323129985824,-0.13636347651481628,0.046033140271902084,9.85417366027832,0.0004,0.0,0.0,0.0,0.0004,0.0,0.0,0.0,0.0004
2025/05/07 10:53:09.802569423,1746607989,747964300,mti/imu_base_body,0.2997169675639343,0.9539831543550649,-0.00044616150834206596,-0.009256430248667565,0.017453292519943295,0.0,0.0,0.0,0.017453292519943295,0.0,0.0,0.0,0.15707963267948966,0.008133658207952976,0.0008027347503229976,-0.01437415461987257,0.0004363323129985824,0.0,0.0,0.0,0.0004363323129985824,0.0,0.0,0.0,0.0004363323129985824,-0.16023088991641998,0.045601312071084976,9.781110763549805,0.0004,0.0,0.0,0.0,0.0004,0.0,0.0,0.0,0.0004
2025/05/07 10:53:09.817831577,1746607989,801527513,mti/imu_base_body,0.29963464191027706,0.9540089895022468,-0.00039351215608363337,-0.009261450447148687,0.017453292519943295,0.0,0.0,0.0,0.017453292519943295,0.0,0.0,0.0,0.15707963267948966,0.003961950074881315,0.006855422165244818,-0.011926848441362381,0.0004363323129985824,0.0,0.0,0.0,0.0004363323129985824,0.0,0.0,0.0,0.0004363323129985824,-0.1447119563817978,0.0648852065205574,9.776888847351074,0.0004,0.0,0.0,0.0,0.0004,0.0,0.0,0.0,0.0004
2025/05/07 10:53:09.862634600,1746607989,852748547,mti/imu_base_body,0.29956658339115616,0.9540305693593264,-0.0004008829166325346,-0.009239812560654155,0.017453292519943295,0.0,0.0,0.0,0.017453292519943295,0.0,0.0,0.0,0.15707963267948966,0.007310900837182999,-0.0036867407616227865,-0.01209307461977005,0.0004363323129985824,0.0,0.0,0.0,0.0004363323129985824,0.0,0.0,0.0,0.0004363323129985824,-0.15158282220363617,0.07821059226989746,9.826114654541016,0.0004,0.0,0.0,0.0,0.0004,0.0,0.0,0.0,0.0004
2025/05/07 10:53:09.898593912,1746607989,898202163,mti/imu_base_body,0.29751866236590413,0.9546727539645081,-0.0008886840960707111,-0.009043706231540901,0.017453292519943295,0.0,0.0,0.0,0.017453292519943295,0.0,0.0,0.0,0.15707963267948966,0.020270463079214096,0.00421076500788331,-0.007592907641083002,0.0004363323129985824,0.0,0.0,0.0,0.0004363323129985824,0.0,0.0,0.0,0.0004363323129985824,-0.16592779755592346,0.0360858291387558,9.834881782531738,0.0004,0.0,0.0,0.0,0.0004,0.0,0.0,0.0,0.0004
2025/05/07 10:53:09.959714622,1746607989,949249837,mti/imu_base_body,0.2974407073970495,0.954697012043263,-0.0008684410957846469,-0.009049120889441308,0.017453292519943295,0.0,0.0,0.0,0.017453292519943295,0.0,0.0,0.0,0.15707963267948966,0.010263667441904545,0.004173499532043934,-0.015364515595138073,0.0004363323129985824,0.0,0.0,0.0,0.0004363323129985824,0.0,0.0,0.0,0.0004363323129985824,-0.1439151018857956,0.06802897900342941,9.793810844421387,0.0004,0.0,0.0,0.0,0.0004,0.0,0.0,0.0,0.0004
2025/05/07 10:53:10.7775121,1746607989,998092524,mti/imu_base_body,0.29735452594284045,0.9547239587117098,-0.0008819157930290795,-0.009037189147287735,0.017453292519943295,0.0,0.0,0.0,0.017453292519943295,0.0,0.0,0.0,0.15707963267948966,0.006344187073409557,0.0025450577959418297,-0.00978857558220625,0.0004363323129985824,0.0,0.0,0.0,0.0004363323129985824,0.0,0.0,0.0,0.0004363323129985824,-0.15555702149868011,0.10939345508813858,9.836801528930664,0.0004,0.0,0.0,0.0,0.0004,0.0,0.0,0.0,0.0004
2025/05/07 10:53:10.101421383,1746607990,48742917,mti/imu_base_body,0.297285745602131,0.9547454765115904,-0.00089722198131203,-0.009025272026791785,0.017453292519943295,0.0,0.0,0.0,0.017453292519943295,0.0,0.0,0.0,0.15707963267948966,0.016704507172107697,0.0005813557072542608,-0.011886721476912498,0.0004363323129985824,0.0,0.0,0.0,0.0004363323129985824,0.0,0.0,0.0,0.0004363323129985824,-0.1469561606645584,0.07834550738334656,9.843506813049316,0.0004,0.0,0.0,0.0,0.0004,0.0,0.0,0.0,0.0004
2025/05/07 10:53:10.118784040,1746607990,98188560,mti/imu_base_body,0.2972189131034762,0.9547660164866061,-0.0009419022152170635,-0.009048993098858468,0.017453292519943295,0.0,0.0,0.0,0.017453292519943295,0.0,0.0,0.0,0.15707963267948966,0.020010367035865784,0.005430453922599554,-0.010714075528085232,0.0004363323129985824,0.0,0.0,0.0,0.0004363323129985824,0.0,0.0,0.0,0.0004363323129985824,-0.16309887170791626,0.04261187091469765,9.82227897644043,0.0004,0.0,0.0,0.0,0.0004,0.0,0.0,0.0,0.0004
2025/05/07 10:53:10.180239286,1746607990,148454421,mti/imu_base_body,0.2971918339719573,0.9547743848878574,-0.0009701847999701359,-0.009052431930270293,0.017453292519943295,0.0,0.0,0.0,0.017453292519943295,0.0,0.0,0.0,0.15707963267948966,0.016066819429397583,-0.0006590507109649479,-0.007357416674494743,0.0004363323129985824,0.0,0.0,0.0,0.0004363323129985824,0.0,0.0,0.0,0.0004363323129985824,-0.1501506268978119,0.06414985656738281,9.86368179321289,0.0004,0.0,0.0,0.0,0.0004,0.0,0.0,0.0,0.0004
2025/05/07 10:53:10.208846087,1746607990,198128162,mti/imu_base_body,0.29708649148327526,0.9548070019540721,-0.0009640565387414746,-0.009070622504796002,0.017453292519943295,0.0,0.0,0.0,0.017453292519943295,0.0,0.0,0.0,0.15707963267948966,0.005471284035593271,0.01202863547950983,-0.01632097363471985,0.0004363323129985824,0.0,0.0,0.0,0.0004363323129985824,0.0,0.0,0.0,0.0004363323129985824,-0.15505044162273407,0.06457792222499847,9.80845832824707,0.0004,0.0,0.0,0.0,0.0004,0.0,0.0,0.0,0.0004
2025/05/07 10:53:10.267930330,1746607990,251164754,mti/imu_base_body,0.2970176527920321,0.9548280541737588,-0.0009366017278977382,-0.00911173253935918,0.017453292519943295,0.0,0.0,0.0,0.017453292519943295,0.0,0.0,0.0,0.15707963267948966,0.012301530689001083,0.010620626620948315,-0.008923094719648361,0.0004363323129985824,0.0,0.0,0.0,0.0004363323129985824,0.0,0.0,0.0,0.0004363323129985824,-0.1653447151184082,0.037589821964502335,9.828753471374512,0.0004,0.0,0.0,0.0,0.0004,0.0,0.0,0.0,0.0004
2025/05/07 10:53:10.342319538,1746607990,298456279,mti/imu_base_body,0.29486377556883814,0.955497102374876,-0.0008860800834021368,-0.008936222501234261,0.017453292519943295,0.0,0.0,0.0,0.017453292519943295,0.0,0.0,0.0,0.15707963267948966,0.012337551452219486,0.00026567181339487433,-0.01593594253063202,0.0004363323129985824,0.0,0.0,0.0,0.0004363323129985824,0.0,0.0,0.0,0.0004363323129985824,-0.1459527462720871,0.0557226836681366,9.864151000976562,0.0004,0.0,0.0,0.0,0.0004,0.0,0.0,0.0,0.0004
2025/05/07 10:53:10.352108457,1746607990,349225828,mti/imu_base_body,0.29479866700060464,0.9555175211432425,-0.0009287945084856383,-0.008896632154964942,0.017453292519943295,0.0,0.0,0.0,0.017453292519943295,0.0,0.0,0.0,0.15707963267948966,0.012022829614579678,-0.002012108452618122,-0.010645418427884579,0.0004363323129985824,0.0,0.0,0.0,0.0004363323129985824,0.0,0.0,0.0,0.0004363323129985824,-0.14793723821640015,0.04364817216992378,9.898490905761719,0.0004,0.0,0.0,0.0,0.0004,0.0,0.0,0.0,0.0004
2025/05/07 10:53:10.423434297,1746607990,399199449,mti/imu_base_body,0.29472683092629276,0.9555395088381191,-0.0008849169671848534,-0.008919590994642835,0.017453292519943295,0.0,0.0,0.0,0.017453292519943295,0.0,0.0,0.0,0.15707963267948966,0.0028503749053925276,0.008147683925926685,-0.007498760707676411,0.0004363323129985824,0.0,0.0,0.0,0.0004363323129985824,0.0,0.0,0.0,0.0004363323129985824,-0.18288841843605042,0.030865497887134552,9.80033016204834,0.0004,0.0,0.0,0.0,0.0004,0.0,0.0,0.0,0.0004
2025/05/07 10:53:10.453374271,1746607990,448092009,mti/imu_base_body,0.2946827329854196,0.955553327580382,-0.0008762386118596538,-0.008897035247641495,0.017453292519943295,0.0,0.0,0.0,0.017453292519943295,0.0,0.0,0.0,0.15707963267948966,0.015946263447403908,-0.004651263356208801,-0.011677113361656666,0.0004363323129985824,0.0,0.0,0.0,0.0004363323129985824,0.0,0.0,0.0,0.0004363323129985824,-0.16144093871116638,0.06352706998586655,9.821802139282227,0.0004,0.0,0.0,0.0,0.0004,0.0,0.0,0.0,0.0004
2025/05/07 10:53:10.527358031,1746607990,498351995,mti/imu_base_body,0.29460168711289714,0.955578060081971,-0.0009286294878137844,-0.008919343444781487,0.017453292519943295,0.0,0.0,0.0,0.017453292519943295,0.0,0.0,0.0,0.15707963267948966,0.016899365931749344,0.009779439307749271,-0.011110176332294941,0.0004363323129985824,0.0,0.0,0.0,0.0004363323129985824,0.0,0.0,0.0,0.0004363323129985824,-0.14829303324222565,0.062451545149087906,9.870271682739258,0.0004,0.0,0.0,0.0,0.0004,0.0,0.0,0.0,0.0004
2025/05/07 10:53:10.557127011,1746607990,547949296,mti/imu_base_body,0.29454110234890696,0.9555965843882178,-0.0009631003170439767,-0.008931929827407821,0.017453292519943295,0.0,0.0,0.0,0.017453292519943295,0.0,0.0,0.0,0.15707963267948966,0.01829496957361698,0.003982901573181152,-0.00953285489231348,0.0004363323129985824,0.0,0.0,0.0,0.0004363323129985824,0.0,0.0,0.0,0.0004363323129985824,-0.16976656019687653,0.07196059077978134,9.825162887573242,0.0004,0.0,0.0,0.0,0.0004,0.0,0.0,0.0,0.0004
2025/05/07 10:53:10.617447908,1746607990,598077766,mti/imu_base_body,0.29450997491277875,0.9556059763375254,-0.0009737266848988341,-0.008952347246519343,0.017453292519943295,0.0,0.0,0.0,0.017453292519943295,0.0,0.0,0.0,0.15707963267948966,0.012203297577798367,0.0059791444800794125,-0.008548332378268242,0.0004363323129985824,0.0,0.0,0.0,0.0004363323129985824,0.0,0.0,0.0,0.0004363323129985824,-0.1647026091814041,0.07465677708387375,9.81699275970459,0.0004,0.0,0.0,0.0,0.0004,0.0,0.0,0.0,0.0004
2025/05/07 10:53:10.649887993,1746607990,648351439,mti/imu_base_body,0.29443879282083013,0.9556281504942525,-0.000980783932198837,-0.008925991710993474,0.017453292519943295,0.0,0.0,0.0,0.017453292519943295,0.0,0.0,0.0,0.15707963267948966,0.014127311296761036,0.0007918202318251133,-0.006978038232773542,0.0004363323129985824,0.0,0.0,0.0,0.0004363323129985824,0.0,0.0,0.0,0.0004363323129985824,-0.15544769167900085,0.06325434893369675,9.854806900024414,0.0004,0.0,0.0,0.0,0.0004,0.0,0.0,0.0,0.0004
2025/05/07 10:53:10.716127961,1746607990,698192657,mti/imu_base_body,0.2923466884137216,0.9562672207346097,-0.0013638083656950283,-0.00919545261404273,0.017453292519943295,0.0,0.0,0.0,0.017453292519943295,0.0,0.0,0.0,0.15707963267948966,0.013605622574687004,0.010310008190572262,-0.015478874556720257,0.0004363323129985824,0.0,0.0,0.0,0.0004363323129985824,0.0,0.0,0.0,0.0004363323129985824,-0.16346438229084015,0.06867159903049469,9.827799797058105,0.0004,0.0,0.0,0.0,0.0004,0.0,0.0,0.0,0.0004
2025/05/07 10:53:10.862447794,1746607990,747932727,mti/imu_base_body,0.2922303042452591,0.9563024847999381,-0.0014222173024697267,-0.009218684512008817,0.017453292519943295,0.0,0.0,0.0,0.017453292519943295,0.0,0.0,0.0,0.15707963267948966,0.023279286921024323,0.005359516013413668,-0.015048863366246223,0.0004363323129985824,0.0,0.0,0.0,0.0004363323129985824,0.0,0.0,0.0,0.0004363323129985824,-0.15072141587734222,0.07157481461763382,9.868837356567383,0.0004,0.0,0.0,0.0,0.0004,0.0,0.0,0.0,0.0004
2025/05/07 10:53:10.874739018,1746607990,797990181,mti/imu_base_body,0.292197604591137,0.9563119587819566,-0.0014135273167252523,-0.009273580880304954,0.017453292519943295,0.0,0.0,0.0,0.017453292519943295,0.0,0.0,0.0,0.15707963267948966,0.013436354696750641,0.012715920805931091,-0.006581269670277834,0.0004363323129985824,0.0,0.0,0.0,0.0004363323129985824,0.0,0.0,0.0,0.0004363323129985824,-0.1546572893857956,0.0692526251077652,9.809060096740723,0.0004,0.0,0.0,0.0,0.0004,0.0,0.0,0.0,0.0004
2025/05/07 10:53:10.891567212,1746607990,848444916,mti/imu_base_body,0.29216638659677874,0.9563211893673227,-0.0014410698884313707,-0.009301001431439585,0.017453292519943295,0.0,0.0,0.0,0.017453292519943295,0.0,0.0,0.0,0.15707963267948966,0.016185715794563293,0.006297338288277388,-0.003938107751309872,0.0004363323129985824,0.0,0.0,0.0,0.0004363323129985824,0.0,0.0,0.0,0.0004363323129985824,-0.17606200277805328,0.05434176325798035,9.783879280090332,0.0004,0.0,0.0,0.0,0.0004,0.0,0.0,0.0,0.0004
2025/05/07 10:53:10.920234005,1746607990,898040073,mti/imu_base_body,0.29210948019326216,0.9563381068494297,-0.0014595718480955693,-0.009345941305791987,0.017453292519943295,0.0,0.0,0.0,0.017453292519943295,0.0,0.0,0.0,0.15707963267948966,0.016070900484919548,0.009286945685744286,-0.006040881387889385,0.0004363323129985824,0.0,0.0,0.0,0.0004363323129985824,0.0,0.0,0.0,0.0004363323129985824,-0.14075544476509094,0.026670241728425026,9.886824607849121,0.0004,0.0,0.0,0.0,0.0004,0.0,0.0,0.0,0.0004
2025/05/07 10:53:10.951235321,1746607990,948573897,mti/imu_base_body,0.2920518742952179,0.9563556426421655,-0.0014701823541250708,-0.009350190959886352,0.017453292519943295,0.0,0.0,0.0,0.017453292519943295,0.0,0.0,0.0,0.15707963267948966,0.012643295340240002,0.006073825992643833,-0.010953563265502453,0.0004363323129985824,0.0,0.0,0.0,0.0004363323129985824,0.0,0.0,0.0,0.0004363323129985824,-0.1602053940296173,0.037349432706832886,9.839079856872559,0.0004,0.0,0.0,0.0,0.0004,0.0,0.0,0.0,0.0004
2025/05/07 10:53:11.17501850,1746607990,998946763,mti/imu_base_body,0.2920125583524123,0.9563673448871939,-0.0014720192337587023,-0.0093808612223997,0.017453292519943295,0.0,0.0,0.0,0.017453292519943295,0.0,0.0,0.0,0.15707963267948966,0.0181448794901371,0.008822189643979073,-0.003633712185546756,0.0004363323129985824,0.0,0.0,0.0,0.0004363323129985824,0.0,0.0,0.0,0.0004363323129985824,-0.17527632415294647,0.05188241973519325,9.730582237243652,0.0004,0.0,0.0,0.0,0.0004,0.0,0.0,0.0,0.0004
2025/05/07 10:53:11.48470898,1746607991,47875172,mti/imu_base_body,0.2919606002145831,0.9563830782129421,-0.0015078101746778547,-0.009388404483976036,0.017453292519943295,0.0,0.0,0.0,0.017453292519943295,0.0,0.0,0.0,0.15707963267948966,0.011936401017010212,-0.0021101171150803566,-0.009029482491314411,0.0004363323129985824,0.0,0.0,0.0,0.0004363323129985824,0.0,0.0,0.0,0.0004363323129985824,-0.16010768711566925,0.07640453428030014,9.812915802001953,0.0004,0.0,0.0,0.0,0.0004,0.0,0.0,0.0,0.0004
2025/05/07 10:53:11.109960917,1746607991,98137155,mti/imu_base_body,0.2903522310614121,0.9568680321563918,-0.0021995900338327335,-0.009711475608652173,0.017453292519943295,0.0,0.0,0.0,0.017453292519943295,0.0,0.0,0.0,0.15707963267948966,0.01670173741877079,0.008329309523105621,-0.009410226717591286,0.0004363323129985824,0.0,0.0,0.0,0.0004363323129985824,0.0,0.0,0.0,0.0004363323129985824,-0.14629943668842316,0.08298543095588684,9.694300651550293,0.0004,0.0,0.0,0.0,0.0004,0.0,0.0,0.0,0.0004
2025/05/07 10:53:11.152070090,1746607991,150013844,mti/imu_base_body,0.29031186757477023,0.9568797736376335,-0.0022441795289725843,-0.00975100029135122,0.017453292519943295,0.0,0.0,0.0,0.017453292519943295,0.0,0.0,0.0,0.15707963267948966,0.021291615441441536,0.007723008282482624,-0.003042483003810048,0.0004363323129985824,0.0,0.0,0.0,0.0004363323129985824,0.0,0.0,0.0,0.0004363323129985824,-0.18765737116336823,0.038867056369781494,9.735157012939453,0.0004,0.0,0.0,0.0,0.0004,0.0,0.0,0.0,0.0004
2025/05/07 10:53:11.241135537,1746607991,197941580,mti/imu_base_body,0.2902893991403773,0.9568864188152132,-0.002251970608255259,-0.009766005431827781,0.017453292519943295,0.0,0.0,0.0,0.017453292519943295,0.0,0.0,0.0,0.15707963267948966,0.014296194538474083,0.004510111175477505,-0.0003404071612749249,0.0004363323129985824,0.0,0.0,0.0,0.0004363323129985824,0.0,0.0,0.0,0.0004363323129985824,-0.12714871764183044,0.06449460983276367,9.831480979919434,0.0004,0.0,0.0,0.0,0.0004,0.0,0.0,0.0,0.0004
2025/05/07 10:53:11.257236101,1746607991,247966266,mti/imu_base_body,0.2902466690638785,0.956899505234879,-0.0022599769092319514,-0.009751947648378827,0.017453292519943295,0.0,0.0,0.0,0.017453292519943295,0.0,0.0,0.0,0.15707963267948966,0.010094625875353813,0.0014141540741547942,-0.007782354950904846,0.0004363323129985824,0.0,0.0,0.0,0.0004363323129985824,0.0,0.0,0.0,0.0004363323129985824,-0.11756724119186401,0.06192966178059578,9.866409301757812,0.0004,0.0,0.0,0.0,0.0004,0.0,0.0,0.0,0.0004
2025/05/07 10:53:11.365540511,1746607991,298369194,mti/imu_base_body,0.290198960062535,0.9569136312457995,-0.002288187346026163,-0.009779065050943074,0.017453292519943295,0.0,0.0,0.0,0.017453292519943295,0.0,0.0,0.0,0.15707963267948966,0.016864126548171043,0.005397306755185127,-0.009594401344656944,0.0004363323129985824,0.0,0.0,0.0,0.0004363323129985824,0.0,0.0,0.0,0.0004363323129985824,-0.16478340327739716,0.11865873634815216,9.723128318786621,0.0004,0.0,0.0,0.0,0.0004,0.0,0.0,0.0,0.0004
2025/05/07 10:53:11.370671862,1746607991,348610165,mti/imu_base_body,0.2901508884368385,0.9569282468610296,-0.002290108186680677,-0.00977485055042009,0.017453292519943295,0.0,0.0,0.0,0.017453292519943295,0.0,0.0,0.0,0.15707963267948966,0.012352818623185158,0.0015949913067743182,-0.005820566788315773,0.0004363323129985824,0.0,0.0,0.0,0.0004363323129985824,0.0,0.0,0.0,0.0004363323129985824,-0.15084539353847504,0.0915881097316742,9.822150230407715,0.0004,0.0,0.0,0.0,0.0004,0.0,0.0,0.0,0.0004
2025/05/07 10:53:11.401805322,1746607991,398149638,mti/imu_base_body,0.2900710380530612,0.956952413937073,-0.0022997602151918982,-0.009776576383435577,0.017453292519943295,0.0,0.0,0.0,0.017453292519943295,0.0,0.0,0.0,0.15707963267948966,0.006282399408519268,0.0020868838764727116,-0.009734497405588627,0.0004363323129985824,0.0,0.0,0.0,0.0004363323129985824,0.0,0.0,0.0,0.0004363323129985824,-0.19268560409545898,0.06361371278762817,9.829512596130371,0.0004,0.0,0.0,0.0,0.0004,0.0,0.0,0.0,0.0004
2025/05/07 10:53:11.448521876,1746607991,448143246,mti/imu_base_body,0.2899722765125689,0.956983015684892,-0.002232558447566987,-0.009726367644002327,0.017453292519943295,0.0,0.0,0.0,0.017453292519943295,0.0,0.0,0.0,0.15707963267948966,-0.003881556447595358,-0.0004071165749337524,-0.022185925394296646,0.0004363323129985824,0.0,0.0,0.0,0.0004363323129985824,0.0,0.0,0.0,0.0004363323129985824,-0.15773631632328033,0.027897538617253304,9.773058891296387,0.0004,0.0,0.0,0.0,0.0004,0.0,0.0,0.0,0.0004
2025/05/07 10:53:11.498558715,1746607991,498182293,mti/imu_base_body,0.28811114187636216,0.957544939720643,-0.002140097751625251,-0.00975081143814997,0.017453292519943295,0.0,0.0,0.0,0.017453292519943295,0.0,0.0,0.0,0.15707963267948966,0.004476137459278107,0.005297324154525995,-0.011832053773105145,0.0004363323129985824,0.0,0.0,0.0,0.0004363323129985824,0.0,0.0,0.0,0.0004363323129985824,-0.13947351276874542,0.0597965307533741,9.799928665161133,0.0004,0.0,0.0,0.0,0.0004,0.0,0.0,0.0,0.0004
2025/05/07 10:53:11.549068289,1746607991,548665068,mti/imu_base_body,0.2880300699579616,0.9575691897107217,-0.0021110750628857942,-0.009770827950720134,0.017453292519943295,0.0,0.0,0.0,0.017453292519943295,0.0,0.0,0.0,0.15707963267948966,0.005664977710694075,0.009398015215992928,-0.008479303680360317,0.0004363323129985824,0.0,0.0,0.0,0.0004363323129985824,0.0,0.0,0.0,0.0004363323129985824,-0.1947125494480133,0.059920381754636765,9.801189422607422,0.0004,0.0,0.0,0.0,0.0004,0.0,0.0,0.0,0.0004
2025/05/07 10:53:11.598553933,1746607991,597986747,mti/imu_base_body,0.28799187161363005,0.9575806298711003,-0.002086165034367399,-0.009780955760794038,0.017453292519943295,0.0,0.0,0.0,0.017453292519943295,0.0,0.0,0.0,0.15707963267948966,0.008268563076853752,0.005510833114385605,-0.006920189131051302,0.0004363323129985824,0.0,0.0,0.0,0.0004363323129985824,0.0,0.0,0.0,0.0004363323129985824,-0.1631062775850296,0.07534760236740112,9.817482948303223,0.0004,0.0,0.0,0.0,0.0004,0.0,0.0,0.0,0.0004
2025/05/07 10:53:11.654390287,1746607991,647964089,mti/imu_base_body,0.28790435076267384,0.9576071442622273,-0.002077004458999896,-0.009763612156497611,0.017453292519943295,0.0,0.0,0.0,0.017453292519943295,0.0,0.0,0.0,0.15707963267948966,0.008175225928425789,0.003923180978745222,-0.017153702676296234,0.0004363323129985824,0.0,0.0,0.0,0.0004363323129985824,0.0,0.0,0.0,0.0004363323129985824,-0.13253019750118256,0.07352393865585327,9.795125007629395,0.0004,0.0,0.0,0.0,0.0004,0.0,0.0,0.0,0.0004
2025/05/07 10:53:11.698696174,1746607991,698183967,mti/imu_base_body,0.2878661308173899,0.9576183453907944,-0.002097826557090122,-0.009787462539325307,0.017453292519943295,0.0,0.0,0.0,0.017453292519943295,0.0,0.0,0.0,0.15707963267948966,0.016357766464352608,0.003077238332480192,-0.0032938322983682156,0.0004363323129985824,0.0,0.0,0.0,0.0004363323129985824,0.0,0.0,0.0,0.0004363323129985824,-0.13917239010334015,0.07669216394424438,9.777119636535645,0.0004,0.0,0.0,0.0,0.0004,0.0,0.0,0.0,0.0004
2025/05/07 10:53:11.797481284,1746607991,747969188,mti/imu_base_body,0.2878152011314797,0.9576337143558193,-0.0020765012756312003,-0.009786075269237728,0.017453292519943295,0.0,0.0,0.0,0.017453292519943295,0.0,0.0,0.0,0.15707963267948966,0.009828434325754642,0.00446862168610096,-0.005489542614668608,0.0004363323129985824,0.0,0.0,0.0,0.0004363323129985824,0.0,0.0,0.0,0.0004363323129985824,-0.18784525990486145,0.09312541037797928,9.798060417175293,0.0004,0.0,0.0,0.0,0.0004,0.0,0.0,0.0,0.0004
2025/05/07 10:53:11.816731025,1746607991,798095575,mti/imu_base_body,0.28776844706672666,0.9576477368320434,-0.0020815683883654125,-0.009787751851910068,0.017453292519943295,0.0,0.0,0.0,0.017453292519943295,0.0,0.0,0.0,0.15707963267948966,0.008253850974142551,0.0025002278853207827,-0.015721436589956284,0.0004363323129985824,0.0,0.0,0.0,0.0004363323129985824,0.0,0.0,0.0,0.0004363323129985824,-0.1831625998020172,0.07600003480911255,9.800823211669922,0.0004,0.0,0.0,0.0,0.0004,0.0,0.0,0.0,0.0004
2025/05/07 10:53:11.849620070,1746607991,848680405,mti/imu_base_body,0.287660604211153,0.9576799344218535,-0.0020632801545028352,-0.00981136410663191,0.017453292519943295,0.0,0.0,0.0,0.017453292519943295,0.0,0.0,0.0,0.15707963267948966,0.004098996520042419,0.012541583739221096,-0.014056701213121414,0.0004363323129985824,0.0,0.0,0.0,0.0004363323129985824,0.0,0.0,0.0,0.0004363323129985824,-0.1414160281419754,0.09116989374160767,9.791166305541992,0.0004,0.0,0.0,0.0,0.0004,0.0,0.0,0.0,0.0004
2025/05/07 10:53:11.898407628,1746607991,898011924,mti/imu_base_body,0.2859069852047692,0.9582111833687298,-0.0007273828389943978,-0.009380553950791015,0.017453292519943295,0.0,0.0,0.0,0.017453292519943295,0.0,0.0,0.0,0.15707963267948966,0.004210400860756636,0.0012868957128375769,-0.007167879492044449,0.0004363323129985824,0.0,0.0,0.0,0.0004363323129985824,0.0,0.0,0.0,0.0004363323129985824,-0.17346274852752686,0.08948278427124023,9.823831558227539,0.0004,0.0,0.0,0.0,0.0004,0.0,0.0,0.0,0.0004
2025/05/07 10:53:11.949510295,1746607991,948110694,mti/imu_base_body,0.28585229504156734,0.958227698426714,-0.0006838111458355393,-0.009363535103155915,0.017453292519943295,0.0,0.0,0.0,0.017453292519943295,0.0,0.0,0.0,0.15707963267948966,0.0017960737459361553,0.004329463001340628,-0.006425768136978149,0.0004363323129985824,0.0,0.0,0.0,0.0004363323129985824,0.0,0.0,0.0,0.0004363323129985824,-0.17731061577796936,0.08085530251264572,9.839080810546875,0.0004,0.0,0.0,0.0,0.0004,0.0,0.0,0.0,0.0004
2025/05/07 10:53:11.998994803,1746607991,998076756,mti/imu_base_body,0.28578841348938244,0.9582468837858329,-0.0006233414222647097,-0.009354350615278378,0.017453292519943295,0.0,0.0,0.0,0.017453292519943295,0.0,0.0,0.0,0.15707963267948966,8.903435809770599e-05,0.004942549858242273,-0.008607124909758568,0.0004363323129985824,0.0,0.0,0.0,0.0004363323129985824,0.0,0.0,0.0,0.0004363323129985824,-0.16139887273311615,0.06889967620372772,9.851421356201172,0.0004,0.0,0.0,0.0,0.0004,0.0,0.0,0.0,0.0004
2025/05/07 10:53:12.48204135,1746607992,47903691,mti/imu_base_body,0.28575524014278886,0.9582567278076363,-0.0005893881450104877,-0.009361568455830253,0.017453292519943295,0.0,0.0,0.0,0.017453292519943295,0.0,0.0,0.0,0.15707963267948966,0.001879482646472752,0.006842331029474735,-0.00822750385850668,0.0004363323129985824,0.0,0.0,0.0,0.0004363323129985824,0.0,0.0,0.0,0.0004363323129985824,-0.18042565882205963,0.07257808744907379,9.76464557647705,0.0004,0.0,0.0,0.0,0.0004,0.0,0.0,0.0,0.0004
2025/05/07 10:53:12.122322664,1746607992,98153607,mti/imu_base_body,0.28568000927605214,0.9582794708142441,-0.0005084827524878769,-0.009334321683835356,0.017453292519943295,0.0,0.0,0.0,0.017453292519943295,0.0,0.0,0.0,0.15707963267948966,-0.010008461773395538,0.006431663874536753,-0.013557408936321735,0.0004363323129985824,0.0,0.0,0.0,0.0004363323129985824,0.0,0.0,0.0,0.0004363323129985824,-0.18004511296749115,0.06213963404297829,9.761777877807617,0.0004,0.0,0.0,0.0,0.0004,0.0,0.0,0.0,0.0004
2025/05/07 10:53:12.148402405,1746607992,147979671,mti/imu_base_body,0.28558645286989714,0.9583075693855273,-0.0003867870328005266,-0.0093183041045069,0.017453292519943295,0.0,0.0,0.0,0.017453292519943295,0.0,0.0,0.0,0.15707963267948966,-0.0123042156919837,0.004543637856841087,-0.017247239127755165,0.0004363323129985824,0.0,0.0,0.0,0.0004363323129985824,0.0,0.0,0.0,0.0004363323129985824,-0.1402348279953003,0.05459456145763397,9.865324020385742,0.0004,0.0,0.0,0.0,0.0004,0.0,0.0,0.0,0.0004
2025/05/07 10:53:12.199164594,1746607992,198163484,mti/imu_base_body,0.28548058392251996,0.9583392870296169,-0.0003155697674376637,-0.009303093815728861,0.017453292519943295,0.0,0.0,0.0,0.017453292519943295,0.0,0.0,0.0,0.15707963267948966,-0.0008050671895034611,0.0035642676521092653,-0.01863730326294899,0.0004363323129985824,0.0,0.0,0.0,0.0004363323129985824,0.0,0.0,0.0,0.0004363323129985824,-0.17351403832435608,0.08778651058673859,9.813148498535156,0.0004,0.0,0.0,0.0,0.0004,0.0,0.0,0.0,0.0004
2025/05/07 10:53:12.248639643,1746607992,248069015,mti/imu_base_body,0.28541486826171425,0.9583589667720182,-0.0002649758066740624,-0.009293738248923756,0.017453292519943295,0.0,0.0,0.0,0.017453292519943295,0.0,0.0,0.0,0.15707963267948966,0.001004587160423398,0.005080523435026407,-0.004757946357131004,0.0004363323129985824,0.0,0.0,0.0,0.0004363323129985824,0.0,0.0,0.0,0.0004363323129985824,-0.18552444875240326,0.10048926621675491,9.738983154296875,0.0004,0.0,0.0,0.0,0.0004,0.0,0.0,0.0,0.0004
2025/05/07 10:53:12.299757038,1746607992,297989571,mti/imu_base_body,0.28325324823240794,0.9590026985469853,0.0009837441499966687,-0.008969603828328513,0.017453292519943295,0.0,0.0,0.0,0.017453292519943295,0.0,0.0,0.0,0.15707963267948966,-0.0013680394040420651,0.0045591071248054504,-0.009061766788363457,0.0004363323129985824,0.0,0.0,0.0,0.0004363323129985824,0.0,0.0,0.0,0.0004363323129985824,-0.13673311471939087,0.05631035938858986,9.917533874511719,0.0004,0.0,0.0,0.0,0.0004,0.0,0.0,0.0,0.0004
2025/05/07 10:53:12.351436570,1746607992,348407474,mti/imu_base_body,0.28318260279480884,0.9590230442156011,0.0010462509709071362,-0.009017732348235996,0.017453292519943295,0.0,0.0,0.0,0.017453292519943295,0.0,0.0,0.0,0.15707963267948966,0.005428749602288008,0.0159514881670475,-0.012878538109362125,0.0004363323129985824,0.0,0.0,0.0,0.0004363323129985824,0.0,0.0,0.0,0.0004363323129985824,-0.14421001076698303,0.04517827928066254,9.905173301696777,0.0004,0.0,0.0,0.0,0.0004,0.0,0.0,0.0,0.0004
2025/05/07 10:53:12.398528786,1746607992,398129454,mti/imu_base_body,0.2831079848886091,0.9590451146301968,0.0010568057259045978,-0.009012222695951401,0.017453292519943295,0.0,0.0,0.0,0.017453292519943295,0.0,0.0,0.0,0.15707963267948966,0.007556771859526634,0.002476015128195286,-0.010567872785031796,0.0004363323129985824,0.0,0.0,0.0,0.0004363323129985824,0.0,0.0,0.0,0.0004363323129985824,-0.20047158002853394,0.056431472301483154,9.748723030090332,0.0004,0.0,0.0,0.0,0.0004,0.0,0.0,0.0,0.0004
2025/05/07 10:53:12.477917031,1746607992,448799676,mti/imu_base_body,0.2829965482535765,0.9590782961200108,0.0010843084160736738,-0.008977742664870388,0.017453292519943295,0.0,0.0,0.0,0.017453292519943295,0.0,0.0,0.0,0.15707963267948966,0.001531829941086471,-0.003295500297099352,-0.02027049846947193,0.0004363323129985824,0.0,0.0,0.0,0.0004363323129985824,0.0,0.0,0.0,0.0004363323129985824,-0.18983140587806702,0.09594962745904922,9.771286010742188,0.0004,0.0,0.0,0.0,0.0004,0.0,0.0,0.0,0.0004
2025/05/07 10:53:12.498820777,1746607992,498001105,mti/imu_base_body,0.28294833653413765,0.9590924211852858,0.001126555342505043,-0.00898317040754446,0.017453292519943295,0.0,0.0,0.0,0.017453292519943295,0.0,0.0,0.0,0.15707963267948966,-0.0007390825194306672,0.00683945044875145,-0.006790613755583763,0.0004363323129985824,0.0,0.0,0.0,0.0004363323129985824,0.0,0.0,0.0,0.0004363323129985824,-0.17264634370803833,0.07025358825922012,9.853837013244629,0.0004,0.0,0.0,0.0,0.0004,0.0,0.0,0.0,0.0004
2025/05/07 10:53:12.590125705,1746607992,548596991,mti/imu_base_body,0.2828868931816869,0.9591103214063986,0.0011539900334122328,-0.009003629530932852,0.017453292519943295,0.0,0.0,0.0,0.017453292519943295,0.0,0.0,0.0,0.15707963267948966,0.010389899834990501,0.007612998131662607,-0.011904845014214516,0.0004363323129985824,0.0,0.0,0.0,0.0004363323129985824,0.0,0.0,0.0,0.0004363323129985824,-0.14791476726531982,0.011696062982082367,9.899773597717285,0.0004,0.0,0.0,0.0,0.0004,0.0,0.0,0.0,0.0004
2025/05/07 10:53:12.643973167,1746607992,608681329,mti/imu_base_body,0.28283352777597887,0.9591262351115268,0.0011569922095370734,-0.008984545375797182,0.017453292519943295,0.0,0.0,0.0,0.017453292519943295,0.0,0.0,0.0,0.15707963267948966,0.012200559489428997,0.005711512174457312,-0.010784558951854706,0.0004363323129985824,0.0,0.0,0.0,0.0004363323129985824,0.0,0.0,0.0,0.0004363323129985824,-0.17358221113681793,0.03836040198802948,9.767779350280762,0.0004,0.0,0.0,0.0,0.0004,0.0,0.0,0.0,0.0004
2025/05/07 10:53:12.658617966,1746607992,649586615,mti/imu_base_body,0.28275016932348157,0.9591505163488703,0.0011810421388077051,-0.00901298367380575,0.017453292519943295,0.0,0.0,0.0,0.017453292519943295,0.0,0.0,0.0,0.15707963267948966,0.0067081572487950325,0.009729945100843906,-0.007293695583939552,0.0004363323129985824,0.0,0.0,0.0,0.0004363323129985824,0.0,0.0,0.0,0.0004363323129985824,-0.17710956931114197,0.06505639106035233,9.791304588317871,0.0004,0.0,0.0,0.0,0.0004,0.0,0.0,0.0,0.0004
2025/05/07 10:53:12.698528063,1746607992,697990865,mti/imu_base_body,0.28047391891640333,0.9598189921827303,0.0009867310131597582,-0.008994966087221092,0.017453292519943295,0.0,0.0,0.0,0.017453292519943295,0.0,0.0,0.0,0.15707963267948966,0.013433557003736496,0.002986490959301591,-0.012830273248255253,0.0004363323129985824,0.0,0.0,0.0,0.0004363323129985824,0.0,0.0,0.0,0.0004363323129985824,-0.17343223094940186,0.03427174687385559,9.826972007751465,0.0004,0.0,0.0,0.0,0.0004,0.0,0.0,0.0,0.0004
2025/05/07 10:53:12.758940804,1746607992,758041934,mti/imu_base_body,0.2803724516166121,0.9598481407805008,0.0009779630389437043,-0.009048679627471218,0.017453292519943295,0.0,0.0,0.0,0.017453292519943295,0.0,0.0,0.0,0.15707963267948966,0.021327387541532516,0.013833350501954556,-0.01452041044831276,0.0004363323129985824,0.0,0.0,0.0,0.0004363323129985824,0.0,0.0,0.0,0.0004363323129985824,-0.15012216567993164,0.05178974196314812,9.838703155517578,0.0004,0.0,0.0,0.0,0.0004,0.0,0.0,0.0,0.0004
2025/05/07 10:53:12.801237536,1746607992,800781565,mti/imu_base_body,0.28027699225583347,0.95987603087366,0.0009043207258164652,-0.009055118457363016,0.017453292519943295,0.0,0.0,0.0,0.017453292519943295,0.0,0.0,0.0,0.15707963267948966,0.020336976274847984,-0.0012621477944776416,-0.017324838787317276,0.0004363323129985824,0.0,0.0,0.0,0.0004363323129985824,0.0,0.0,0.0,0.0004363323129985824,-0.18237066268920898,0.0650404691696167,9.803572654724121,0.0004,0.0,0.0,0.0,0.0004,0.0,0.0,0.0,0.0004
2025/05/07 10:53:12.926941077,1746607992,858853014,mti/imu_base_body,0.2801765927961265,0.9599052586299149,0.0008830914483393916,-0.009065950214032215,0.017453292519943295,0.0,0.0,0.0,0.017453292519943295,0.0,0.0,0.0,0.15707963267948966,0.014665178023278713,0.0019373735412955284,-0.018754607066512108,0.0004363323129985824,0.0,0.0,0.0,0.0004363323129985824,0.0,0.0,0.0,0.0004363323129985824,-0.1893722116947174,0.08266986906528473,9.787490844726562,0.0004,0.0,0.0,0.0,0.0004,0.0,0.0,0.0,0.0004
2025/05/07 10:53:13.53836623,1746607992,897813453,mti/imu_base_body,0.2801111701313724,0.9599243374779516,0.0008940929196122778,-0.009066382023728073,0.017453292519943295,0.0,0.0,0.0,0.017453292519943295,0.0,0.0,0.0,0.15707963267948966,0.012039918452501297,0.002308103023096919,-0.012070939876139164,0.0004363323129985824,0.0,0.0,0.0,0.0004363323129985824,0.0,0.0,0.0,0.0004363323129985824,-0.19484399259090424,0.07047989964485168,9.819795608520508,0.0004,0.0,0.0,0.0,0.0004,0.0,0.0,0.0,0.0004
2025/05/07 10:53:13.60557068,1746607992,954811658,mti/imu_base_body,0.28005534914273134,0.9599406583276644,0.0008601351931204308,-0.009066094718378655,0.017453292519943295,0.0,0.0,0.0,0.017453292519943295,0.0,0.0,0.0,0.15707963267948966,0.015496169216930866,0.004030882380902767,-0.004122788552194834,0.0004363323129985824,0.0,0.0,0.0,0.0004363323129985824,0.0,0.0,0.0,0.0004363323129985824,-0.18197329342365265,0.058925796300172806,9.805736541748047,0.0004,0.0,0.0,0.0,0.0004,0.0,0.0,0.0,0.0004
2025/05/07 10:53:13.73441082,1746607992,997965791,mti/imu_base_body,0.2799893724246964,0.9599601658722403,0.00084280651956727,-0.009039963768511343,0.017453292519943295,0.0,0.0,0.0,0.017453292519943295,0.0,0.0,0.0,0.15707963267948966,0.01388780027627945,-0.0022268323227763176,-0.011258694343268871,0.0004363323129985824,0.0,0.0,0.0,0.0004363323129985824,0.0,0.0,0.0,0.0004363323129985824,-0.16759644448757172,0.05180125683546066,9.836813926696777,0.0004,0.0,0.0,0.0,0.0004,0.0,0.0,0.0,0.0004
2025/05/07 10:53:13.111822225,1746607993,48038654,mti/imu_base_body,0.2799192812941995,0.9599805895104125,0.0008306067062106596,-0.00904288756311079,0.017453292519943295,0.0,0.0,0.0,0.017453292519943295,0.0,0.0,0.0,0.15707963267948966,0.012613515369594097,0.0017585819587111473,-0.01399108488112688,0.0004363323129985824,0.0,0.0,0.0,0.0004363323129985824,0.0,0.0,0.0,0.0004363323129985824,-0.1855497658252716,0.04112476110458374,9.833233833312988,0.0004,0.0,0.0,0.0,0.0004,0.0,0.0,0.0,0.0004
2025/05/07 10:53:13.129862428,1746607993,98077878,mti/imu_base_body,0.2779274677307894,0.9605563460095758,-2.5720445464030156e-05,-0.009371667938069685,0.017453292519943295,0.0,0.0,0.0,0.017453292519943295,0.0,0.0,0.0,0.15707963267948966,0.012161376886069775,0.007864229381084442,0.0008038224186748266,0.0004363323129985824,0.0,0.0,0.0,0.0004363323129985824,0.0,0.0,0.0,0.0004363323129985824,-0.1705244481563568,0.05453404784202576,9.904509544372559,0.0004,0.0,0.0,0.0,0.0004,0.0,0.0,0.0,0.0004
2025/05/07 10:53:13.153792676,1746607993,148049197,mti/imu_base_body,0.27787174203383425,0.9605726594800851,-1.8916216900802772e-05,-0.00935203082839857,0.017453292519943295,0.0,0.0,0.0,0.017453292519943295,0.0,0.0,0.0,0.15707963267948966,0.009833553805947304,-0.0011547793401405215,-0.008063478395342827,0.0004363323129985824,0.0,0.0,0.0,0.0004363323129985824,0.0,0.0,0.0,0.0004363323129985824,-0.18097016215324402,0.04586746543645859,9.796859741210938,0.0004,0.0,0.0,0.0,0.0004,0.0,0.0,0.0,0.0004
2025/05/07 10:53:13.255887486,1746607993,199366291,mti/imu_base_body,0.27781846895639317,0.9605876972397582,-4.5237020904859496e-05,-0.009390003831527225,0.017453292519943295,0.0,0.0,0.0,0.017453292519943295,0.0,0.0,0.0,0.15707963267948966,0.02288695052266121,0.007247329689562321,-0.011667757295072079,0.0004363323129985824,0.0,0.0,0.0,0.0004363323129985824,0.0,0.0,0.0,0.0004363323129985824,-0.1940077692270279,0.0451258085668087,9.75148868560791,0.0004,0.0,0.0,0.0,0.0004,0.0,0.0,0.0,0.0004
2025/05/07 10:53:13.260813454,1746607993,250743278,mti/imu_base_body,0.277732804915766,0.9606121155087991,-0.0001323900337925031,-0.009425236559869097,0.017453292519943295,0.0,0.0,0.0,0.017453292519943295,0.0,0.0,0.0,0.15707963267948966,0.022593801841139793,0.0024772104807198048,-0.014897282235324383,0.0004363323129985824,0.0,0.0,0.0,0.0004363323129985824,0.0,0.0,0.0,0.0004363323129985824,-0.16803720593452454,0.05309672653675079,9.881817817687988,0.0004,0.0,0.0,0.0,0.0004,0.0,0.0,0.0,0.0004
2025/05/07 10:53:13.300937468,1746607993,299333647,mti/imu_base_body,0.2776748544083175,0.9606289362704773,-0.00017051675408030157,-0.009417693624634894,0.017453292519943295,0.0,0.0,0.0,0.017453292519943295,0.0,0.0,0.0,0.15707963267948966,0.015598630532622337,0.006683311890810728,-0.009913495741784573,0.0004363323129985824,0.0,0.0,0.0,0.0004363323129985824,0.0,0.0,0.0,0.0004363323129985824,-0.1883358508348465,0.052347492426633835,9.798418045043945,0.0004,0.0,0.0,0.0,0.0004,0.0,0.0,0.0,0.0004
2025/05/07 10:53:13.447834919,1746607993,347908285,mti/imu_base_body,0.2775701707543177,0.9606587724956066,-0.00018600353612568867,-0.009459838124288453,0.017453292519943295,0.0,0.0,0.0,0.017453292519943295,0.0,0.0,0.0,0.15707963267948966,0.017861880362033844,0.008272037841379642,-0.014461899176239967,0.0004363323129985824,0.0,0.0,0.0,0.0004363323129985824,0.0,0.0,0.0,0.0004363323129985824,-0.17825043201446533,0.06802671402692795,9.792399406433105,0.0004,0.0,0.0,0.0,0.0004,0.0,0.0,0.0,0.0004
2025/05/07 10:53:13.550708932,1746607993,397981398,mti/imu_base_body,0.2775132448746272,0.9606752488600403,-0.00021551923541482908,-0.00945614606030827,0.017453292519943295,0.0,0.0,0.0,0.017453292519943295,0.0,0.0,0.0,0.15707963267948966,0.015813805162906647,0.0018547361250966787,-0.013580265454947948,0.0004363323129985824,0.0,0.0,0.0,0.0004363323129985824,0.0,0.0,0.0,0.0004363323129985824,-0.16914193332195282,0.06656914204359055,9.8274507522583,0.0004,0.0,0.0,0.0,0.0004,0.0,0.0,0.0,0.0004
2025/05/07 10:53:13.565354277,1746607993,449750868,mti/imu_base_body,0.27743147554136716,0.9606988236370846,-0.0002154475559841395,-0.009460455782475112,0.017453292519943295,0.0,0.0,0.0,0.017453292519943295,0.0,0.0,0.0,0.15707963267948966,0.016125120222568512,0.006838854867964983,-0.011308878660202026,0.0004363323129985824,0.0,0.0,0.0,0.0004363323129985824,0.0,0.0,0.0,0.0004363323129985824,-0.18603001534938812,0.07152310013771057,9.78893756866455,0.0004,0.0,0.0,0.0,0.0004,0.0,0.0,0.0,0.0004
2025/05/07 10:53:13.628372515,1746607993,497976355,mti/imu_base_body,0.2754394401150661,0.961270895368517,-0.0010243830140246862,-0.009504271984167112,0.017453292519943295,0.0,0.0,0.0,0.017453292519943295,0.0,0.0,0.0,0.15707963267948966,0.006347096059471369,0.0031519723124802113,-0.007881274446845055,0.0004363323129985824,0.0,0.0,0.0,0.0004363323129985824,0.0,0.0,0.0,0.0004363323129985824,-0.16999123990535736,0.08959860354661942,9.892751693725586,0.0004,0.0,0.0,0.0,0.0004,0.0,0.0,0.0,0.0004
2025/05/07 10:53:13.674473787,1746607993,548131729,mti/imu_base_body,0.275398128806845,0.9612829004468639,-0.0010121419743341223,-0.009488494442040488,0.017453292519943295,0.0,0.0,0.0,0.017453292519943295,0.0,0.0,0.0,0.15707963267948966,0.009331402368843555,7.74497602833435e-05,-0.0052150883711874485,0.0004363323129985824,0.0,0.0,0.0,0.0004363323129985824,0.0,0.0,0.0,0.0004363323129985824,-0.18270343542099,0.07041750103235245,9.770334243774414,0.0004,0.0,0.0,0.0,0.0004,0.0,0.0,0.0,0.0004
2025/05/07 10:53:13.692767692,1746607993,598175580,mti/imu_base_body,0.27533330387175836,0.961301305273014,-0.0010389579084509135,-0.00950225372877062,0.017453292519943295,0.0,0.0,0.0,0.017453292519943295,0.0,0.0,0.0,0.15707963267948966,0.01967833749949932,0.00618682662025094,-0.009124083444476128,0.0004363323129985824,0.0,0.0,0.0,0.0004363323129985824,0.0,0.0,0.0,0.0004363323129985824,-0.1867687702178955,0.07129289209842682,9.789175987243652,0.0004,0.0,0.0,0.0,0.0004,0.0,0.0,0.0,0.0004
2025/05/07 10:53:13.981508435,1746607993,648751916,mti/imu_base_body,0.2752709959480351,0.9613192820595393,-0.0010518093546662364,-0.009487382536298081,0.017453292519943295,0.0,0.0,0.0,0.017453292519943295,0.0,0.0,0.0,0.15707963267948966,0.004803065676242113,-0.004330352880060673,-0.01036312896758318,0.0004363323129985824,0.0,0.0,0.0,0.0004363323129985824,0.0,0.0,0.0,0.0004363323129985824,-0.1757449060678482,0.0537121444940567,9.870908737182617,0.0004,0.0,0.0,0.0,0.0004,0.0,0.0,0.0,0.0004
2025/05/07 10:53:13.985924030,1746607993,698703772,mti/imu_base_body,0.2752041945684363,0.9613385374252055,-0.0010759507816249314,-0.00947154068885386,0.017453292519943295,0.0,0.0,0.0,0.017453292519943295,0.0,0.0,0.0,0.15707963267948966,0.01941593550145626,0.003592990804463625,-0.015535958111286163,0.0004363323129985824,0.0,0.0,0.0,0.0004363323129985824,0.0,0.0,0.0,0.0004363323129985824,-0.19200660288333893,0.058192964643239975,9.818831443786621,0.0004,0.0,0.0,0.0,0.0004,0.0,0.0,0.0,0.0004
2025/05/07 10:53:14.16620527,1746607993,748897194,mti/imu_base_body,0.27513438642441834,0.961358284284522,-0.0011116188039517905,-0.009491203717848203,0.017453292519943295,0.0,0.0,0.0,0.017453292519943295,0.0,0.0,0.0,0.15707963267948966,0.017119422554969788,0.0061460151337087154,-0.007552633062005043,0.0004363323129985824,0.0,0.0,0.0,0.0004363323129985824,0.0,0.0,0.0,0.0004363323129985824,-0.14872947335243225,0.05973938852548599,9.778327941894531,0.0004,0.0,0.0,0.0,0.0004,0.0,0.0,0.0,0.0004
2025/05/07 10:53:14.21023250,1746607993,798252353,mti/imu_base_body,0.2751182751735378,0.9613622446239342,-0.0011276428325058246,-0.009554982930957648,0.017453292519943295,0.0,0.0,0.0,0.017453292519943295,0.0,0.0,0.0,0.15707963267948966,0.01702268235385418,0.01193139050155878,-0.002216570544987917,0.0004363323129985824,0.0,0.0,0.0,0.0004363323129985824,0.0,0.0,0.0,0.0004363323129985824,-0.17070618271827698,0.05819329991936684,9.790946960449219,0.0004,0.0,0.0,0.0,0.0004,0.0,0.0,0.0,0.0004
2025/05/07 10:53:14.79250733,1746607993,848011374,mti/imu_base_body,0.27507346666257493,0.9613751168157392,-0.001174532432316161,-0.00954427468812595,0.017453292519943295,0.0,0.0,0.0,0.017453292519943295,0.0,0.0,0.0,0.15707963267948966,0.018196064978837967,0.0044884760864079,-0.005773230455815792,0.0004363323129985824,0.0,0.0,0.0,0.0004363323129985824,0.0,0.0,0.0,0.0004363323129985824,-0.12870685756206512,0.0955347791314125,9.796075820922852,0.0004,0.0,0.0,0.0,0.0004,0.0,0.0,0.0,0.0004
2025/05/07 10:53:14.125177210,1746607993,898081369,mti/imu_base_body,0.2730644925127561,0.9619440070788601,-0.001151378255545692,-0.009908809309371101,0.017453292519943295,0.0,0.0,0.0,0.017453292519943295,0.0,0.0,0.0,0.15707963267948966,0.009633525274693966,0.0038331346586346626,-0.0032242443412542343,0.0004363323129985824,0.0,0.0,0.0,0.0004363323129985824,0.0,0.0,0.0,0.0004363323129985824,-0.15970478951931,0.05609731748700142,9.799232482910156,0.0004,0.0,0.0,0.0,0.0004,0.0,0.0,0.0,0.0004
2025/05/07 10:53:14.160677442,1746607993,998689923,mti/imu_base_body,0.27294702689604505,0.9619766152488551,-0.0011713023597653156,-0.009976987207968012,0.017453292519943295,0.0,0.0,0.0,0.017453292519943295,0.0,0.0,0.0,0.15707963267948966,0.013163355179131031,0.017656272277235985,-0.017056327313184738,0.0004363323129985824,0.0,0.0,0.0,0.0004363323129985824,0.0,0.0,0.0,0.0004363323129985824,-0.1756930649280548,0.06989894062280655,9.745824813842773,0.0004,0.0,0.0,0.0,0.0004,0.0,0.0,0.0,0.0004
2025/05/07 10:53:14.181489400,1746607994,47938374,mti/imu_base_body,0.2728578203117029,0.9620014090597886,-0.001172861859650042,-0.01002612870383817,0.017453292519943295,0.0,0.0,0.0,0.017453292519943295,0.0,0.0,0.0,0.15707963267948966,0.007214577402919531,0.011912534013390541,-0.012972124852240086,0.0004363323129985824,0.0,0.0,0.0,0.0004363323129985824,0.0,0.0,0.0,0.0004363323129985824,-0.17370276153087616,0.07637234777212143,9.824087142944336,0.0004,0.0,0.0,0.0,0.0004,0.0,0.0,0.0,0.0004
2025/05/07 10:53:14.195176077,1746607994,98112222,mti/imu_base_body,0.27276138934603483,0.9620287604137385,-0.0011289001179324775,-0.010030663156059761,0.017453292519943295,0.0,0.0,0.0,0.017453292519943295,0.0,0.0,0.0,0.15707963267948966,0.007830813527107239,0.004619234707206488,-0.020960701629519463,0.0004363323129985824,0.0,0.0,0.0,0.0004363323129985824,0.0,0.0,0.0,0.0004363323129985824,-0.16953900456428528,0.09348617494106293,9.892034530639648,0.0004,0.0,0.0,0.0,0.0004,0.0,0.0,0.0,0.0004
2025/05/07 10:53:14.212275967,1746607994,148392102,mti/imu_base_body,0.27267394181026644,0.9620534955941773,-0.0011487084550209038,-0.010033620560934615,0.017453292519943295,0.0,0.0,0.0,0.017453292519943295,0.0,0.0,0.0,0.15707963267948966,0.020107626914978027,0.004949082154780626,-0.01406889222562313,0.0004363323129985824,0.0,0.0,0.0,0.0004363323129985824,0.0,0.0,0.0,0.0004363323129985824,-0.17358599603176117,0.06866929680109024,9.775837898254395,0.0004,0.0,0.0,0.0,0.0004,0.0,0.0,0.0,0.0004
2025/05/07 10:53:14.224710314,1746607994,198108658,mti/imu_base_body,0.2725411610971191,0.9620907902986227,-0.001146843433200157,-0.010065360427994503,0.017453292519943295,0.0,0.0,0.0,0.017453292519943295,0.0,0.0,0.0,0.15707963267948966,0.005058583803474903,0.0041057150810956955,-0.020177526399493217,0.0004363323129985824,0.0,0.0,0.0,0.0004363323129985824,0.0,0.0,0.0,0.0004363323129985824,-0.17721769213676453,0.0676569789648056,9.799248695373535,0.0004,0.0,0.0,0.0,0.0004,0.0,0.0,0.0,0.0004
2025/05/07 10:53:14.248956911,1746607994,248111917,mti/imu_base_body,0.27252811907290064,0.9620942846381918,-0.001137735061889006,-0.010085501476964097,0.017453292519943295,0.0,0.0,0.0,0.017453292519943295,0.0,0.0,0.0,0.15707963267948966,0.010333252139389515,0.013308919966220856,-0.002651129150763154,0.0004363323129985824,0.0,0.0,0.0,0.0004363323129985824,0.0,0.0,0.0,0.0004363323129985824,-0.17013724148273468,0.060062475502491,9.855051040649414,0.0004,0.0,0.0,0.0,0.0004,0.0,0.0,0.0,0.0004
2025/05/07 10:53:14.299352686,1746607994,298190870,mti/imu_base_body,0.2701810417533252,0.962751948406176,-0.0012742564014642174,-0.010453075519814116,0.017453292519943295,0.0,0.0,0.0,0.017453292519943295,0.0,0.0,0.0,0.15707963267948966,0.017006361857056618,0.0065647754818201065,-0.011541599407792091,0.0004363323129985824,0.0,0.0,0.0,0.0004363323129985824,0.0,0.0,0.0,0.0004363323129985824,-0.20520102977752686,0.07476940751075745,9.787519454956055,0.0004,0.0,0.0,0.0,0.0004,0.0,0.0,0.0,0.0004
2025/05/07 10:53:14.360515420,1746607994,350212427,mti/imu_base_body,0.2701235986440928,0.9627678057956455,-0.0012947755190096926,-0.010474594758678037,0.017453292519943295,0.0,0.0,0.0,0.017453292519943295,0.0,0.0,0.0,0.15707963267948966,0.01062238309532404,0.0029975087381899357,-0.008069693110883236,0.0004363323129985824,0.0,0.0,0.0,0.0004363323129985824,0.0,0.0,0.0,0.0004363323129985824,-0.17932391166687012,0.05854082852602005,9.778487205505371,0.0004,0.0,0.0,0.0,0.0004,0.0,0.0,0.0,0.0004
2025/05/07 10:53:14.401480666,1746607994,400886574,mti/imu_base_body,0.2700334930264463,0.9627930259774078,-0.0012952720565867536,-0.01047969672757236,0.017453292519943295,0.0,0.0,0.0,0.017453292519943295,0.0,0.0,0.0,0.15707963267948966,0.006264430470764637,0.005575365386903286,-0.014465794898569584,0.0004363323129985824,0.0,0.0,0.0,0.0004363323129985824,0.0,0.0,0.0,0.0004363323129985824,-0.17647835612297058,0.07544898241758347,9.795771598815918,0.0004,0.0,0.0,0.0,0.0004,0.0,0.0,0.0,0.0004
2025/05/07 10:53:14.448864806,1746607994,448003464,mti/imu_base_body,0.2699700950145507,0.9628108806236222,-0.0012648559879191402,-0.010476454072307812,0.017453292519943295,0.0,0.0,0.0,0.017453292519943295,0.0,0.0,0.0,0.15707963267948966,0.005340798292309046,0.002867564558982849,-0.014772563241422176,0.0004363323129985824,0.0,0.0,0.0,0.0004363323129985824,0.0,0.0,0.0,0.0004363323129985824,-0.17296114563941956,0.07877182215452194,9.784724235534668,0.0004,0.0,0.0,0.0,0.0004,0.0,0.0,0.0,0.0004
2025/05/07 10:53:14.502882919,1746607994,502057718,mti/imu_base_body,0.2698969214175279,0.9628316307037066,-0.001315363628875757,-0.010448566614878838,0.017453292519943295,0.0,0.0,0.0,0.017453292519943295,0.0,0.0,0.0,0.15707963267948966,0.02332233637571335,-0.0027096013072878122,-0.011857896111905575,0.0004363323129985824,0.0,0.0,0.0,0.0004363323129985824,0.0,0.0,0.0,0.0004363323129985824,-0.1871509552001953,0.1037433072924614,9.791460037231445,0.0004,0.0,0.0,0.0,0.0004,0.0,0.0,0.0,0.0004
2025/05/07 10:53:14.549266807,1746607994,548109876,mti/imu_base_body,0.2698028518635779,0.9628577778052089,-0.0013484715597681931,-0.010464342824449614,0.017453292519943295,0.0,0.0,0.0,0.017453292519943295,0.0,0.0,0.0,0.15707963267948966,0.016495484858751297,0.006625295151025057,-0.012735465541481972,0.0004363323129985824,0.0,0.0,0.0,0.0004363323129985824,0.0,0.0,0.0,0.0004363323129985824,-0.1984996795654297,0.09045276045799255,9.727009773254395,0.0004,0.0,0.0,0.0,0.0004,0.0,0.0,0.0,0.0004
2025/05/07 10:53:14.599747588,1746607994,598330295,mti/imu_base_body,0.2697655859240337,0.9628683113521674,-0.001380748308300918,-0.010451659150455109,0.017453292519943295,0.0,0.0,0.0,0.017453292519943295,0.0,0.0,0.0,0.15707963267948966,0.017024416476488113,-0.001278039300814271,-0.005972827319055796,0.0004363323129985824,0.0,0.0,0.0,0.0004363323129985824,0.0,0.0,0.0,0.0004363323129985824,-0.20656953752040863,0.10955513268709183,9.767363548278809,0.0004,0.0,0.0,0.0,0.0004,0.0,0.0,0.0,0.0004
2025/05/07 10:53:14.649568870,1746607994,648681539,mti/imu_base_body,0.2696902411910238,0.9628894759390003,-0.0013775678133531597,-0.010446685558786552,0.017453292519943295,0.0,0.0,0.0,0.017453292519943295,0.0,0.0,0.0,0.15707963267948966,0.007137557025998831,0.0021769669838249683,-0.009898927994072437,0.0004363323129985824,0.0,0.0,0.0,0.0004363323129985824,0.0,0.0,0.0,0.0004363323129985824,-0.17378449440002441,0.09937064349651337,9.891077041625977,0.0004,0.0,0.0,0.0,0.0004,0.0,0.0,0.0,0.0004
2025/05/07 10:53:14.698480048,1746607994,698000816,mti/imu_base_body,0.26732147802467093,0.9635534373711507,-0.0015208102324044152,-0.010084039527006438,0.017453292519943295,0.0,0.0,0.0,0.017453292519943295,0.0,0.0,0.0,0.15707963267948966,0.01464663352817297,0.004755358211696148,-0.015345269814133644,0.0004363323129985824,0.0,0.0,0.0,0.0004363323129985824,0.0,0.0,0.0,0.0004363323129985824,-0.16782179474830627,0.1210038810968399,9.791191101074219,0.0004,0.0,0.0,0.0,0.0004,0.0,0.0,0.0,0.0004
2025/05/07 10:53:14.749181144,1746607994,748759669,mti/imu_base_body,0.26719791869135506,0.963588151695524,-0.0015018203072002584,-0.010044436010873434,0.017453292519943295,0.0,0.0,0.0,0.017453292519943295,0.0,0.0,0.0,0.15707963267948966,0.004218354355543852,-0.0009161074412986636,-0.024014724418520927,0.0004363323129985824,0.0,0.0,0.0,0.0004363323129985824,0.0,0.0,0.0,0.0004363323129985824,-0.15174615383148193,0.14967484772205353,9.80955696105957,0.0004,0.0,0.0,0.0,0.0004,0.0,0.0,0.0,0.0004
2025/05/07 10:53:14.798844565,1746607994,798068081,mti/imu_base_body,0.26708962169967654,0.9636185165801829,-0.0014843024875348778,-0.01001425635065643,0.017453292519943295,0.0,0.0,0.0,0.017453292519943295,0.0,0.0,0.0,0.15707963267948966,0.004518111236393452,0.002336743753403425,-0.010922172106802464,0.0004363323129985824,0.0,0.0,0.0,0.0004363323129985824,0.0,0.0,0.0,0.0004363323129985824,-0.20840172469615936,0.04947496950626373,9.845376968383789,0.0004,0.0,0.0,0.0,0.0004,0.0,0.0,0.0,0.0004
2025/05/07 10:53:14.849261137,1746607994,848245564,mti/imu_base_body,0.267055677761259,0.963628135818414,-0.0014738805162227602,-0.009995424494576539,0.017453292519943295,0.0,0.0,0.0,0.017453292519943295,0.0,0.0,0.0,0.15707963267948966,0.006692160852253437,-0.0019534083548933268,-0.005235545337200165,0.0004363323129985824,0.0,0.0,0.0,0.0004363323129985824,0.0,0.0,0.0,0.0004363323129985824,-0.22131377458572388,0.03802113234996796,9.802066802978516,0.0004,0.0,0.0,0.0,0.0004,0.0,0.0,0.0,0.0004
2025/05/07 10:53:14.899374857,1746607994,898829698,mti/imu_base_body,0.2670025675130089,0.9636433281466755,-0.0014756395555401503,-0.00994924860287286,0.017453292519943295,0.0,0.0,0.0,0.017453292519943295,0.0,0.0,0.0,0.15707963267948966,0.00543941417708993,-0.010654954239726067,-0.010395059362053871,0.0004363323129985824,0.0,0.0,0.0,0.0004363323129985824,0.0,0.0,0.0,0.0004363323129985824,-0.18841694295406342,0.08533332496881485,9.782228469848633,0.0004,0.0,0.0,0.0,0.0004,0.0,0.0,0.0,0.0004
2025/05/07 10:53:14.949992412,1746607994,949074460,mti/imu_base_body,0.26692049681826063,0.9636667257466629,-0.0014811758700357894,-0.009884138052507398,0.017453292519943295,0.0,0.0,0.0,0.017453292519943295,0.0,0.0,0.0,0.15707963267948966,0.01029903069138527,-0.0019768078345805407,-0.016283370554447174,0.0004363323129985824,0.0,0.0,0.0,0.0004363323129985824,0.0,0.0,0.0,0.0004363323129985824,-0.16197244822978973,0.10217118263244629,9.842571258544922,0.0004,0.0,0.0,0.0,0.0004,0.0,0.0,0.0,0.0004
2025/05/07 10:53:14.999352117,1746607994,998666456,mti/imu_base_body,0.2668157462349233,0.963695989295774,-0.0014529426431213795,-0.009863403774363656,0.017453292519943295,0.0,0.0,0.0,0.017453292519943295,0.0,0.0,0.0,0.15707963267948966,0.006375938653945923,-0.0008351963479071856,-0.018557606264948845,0.0004363323129985824,0.0,0.0,0.0,0.0004363323129985824,0.0,0.0,0.0,0.0004363323129985824,-0.19657433032989502,0.05871644988656044,9.835526466369629,0.0004,0.0,0.0,0.0,0.0004,0.0,0.0,0.0,0.0004
2025/05/07 10:53:15.55112442,1746607995,54612775,mti/imu_base_body,0.26672858016296935,0.9637203701375054,-0.0014426067165840715,-0.009840304473790674,0.017453292519943295,0.0,0.0,0.0,0.017453292519943295,0.0,0.0,0.0,0.15707963267948966,0.009370425716042519,-0.001272965339012444,-0.012851228937506676,0.0004363323129985824,0.0,0.0,0.0,0.0004363323129985824,0.0,0.0,0.0,0.0004363323129985824,-0.17029955983161926,0.040985357016325,9.806331634521484,0.0004,0.0,0.0,0.0,0.0004,0.0,0.0,0.0,0.0004
2025/05/07 10:53:15.99632103,1746607995,98545109,mti/imu_base_body,0.26426791090844864,0.9644078987369809,-0.0009999621957016381,-0.008881227021784992,0.017453292519943295,0.0,0.0,0.0,0.017453292519943295,0.0,0.0,0.0,0.15707963267948966,0.004772537387907505,-0.0013410943793132901,-0.019276903942227364,0.0004363323129985824,0.0,0.0,0.0,0.0004363323129985824,0.0,0.0,0.0,0.0004363323129985824,-0.1733248382806778,0.06304410099983215,9.849420547485352,0.0004,0.0,0.0,0.0,0.0004,0.0,0.0,0.0,0.0004
2025/05/07 10:53:15.153239549,1746607995,152593301,mti/imu_base_body,0.2642167120519427,0.9644224066251332,-0.0009696158965323918,-0.008832356246202168,0.017453292519943295,0.0,0.0,0.0,0.017453292519943295,0.0,0.0,0.0,0.15707963267948966,0.005868823733180761,-0.0032920371741056442,-0.009297206066548824,0.0004363323129985824,0.0,0.0,0.0,0.0004363323129985824,0.0,0.0,0.0,0.0004363323129985824,-0.2273782342672348,0.08187346905469894,9.696803092956543,0.0004,0.0,0.0,0.0,0.0004,0.0,0.0,0.0,0.0004
2025/05/07 10:53:15.203442497,1746607995,197977798,mti/imu_base_body,0.2641396511618493,0.9644439478135969,-0.0010128907362296066,-0.008780106045871486,0.017453292519943295,0.0,0.0,0.0,0.017453292519943295,0.0,0.0,0.0,0.15707963267948966,0.016121190041303635,-0.008463747799396515,-0.01070695836097002,0.0004363323129985824,0.0,0.0,0.0,0.0004363323129985824,0.0,0.0,0.0,0.0004363323129985824,-0.21873849630355835,0.1070958822965622,9.76929759979248,0.0004,0.0,0.0,0.0,0.0004,0.0,0.0,0.0,0.0004
2025/05/07 10:53:15.256176828,1746607995,255127362,mti/imu_base_body,0.26406326908495137,0.9644650006319466,-0.0010111986126251928,-0.008765269736492215,0.017453292519943295,0.0,0.0,0.0,0.017453292519943295,0.0,0.0,0.0,0.15707963267948966,0.012203163467347622,0.003690243698656559,-0.016384629532694817,0.0004363323129985824,0.0,0.0,0.0,0.0004363323129985824,0.0,0.0,0.0,0.0004363323129985824,-0.16721554100513458,0.11574329435825348,9.886512756347656,0.0004,0.0,0.0,0.0,0.0004,0.0,0.0,0.0,0.0004
2025/05/07 10:53:15.298958784,1746607995,297894307,mti/imu_base_body,0.26397966100231174,0.9644880229161612,-0.0010406483198580514,-0.008746958297224298,0.017453292519943295,0.0,0.0,0.0,0.017453292519943295,0.0,0.0,0.0,0.15707963267948966,0.011143483221530914,-0.00536236772313714,-0.014705854468047619,0.0004363323129985824,0.0,0.0,0.0,0.0004363323129985824,0.0,0.0,0.0,0.0004363323129985824,-0.175601527094841,0.08800850808620453,9.791213989257812,0.0004,0.0,0.0,0.0,0.0004,0.0,0.0,0.0,0.0004
2025/05/07 10:53:15.348849616,1746607995,347961931,mti/imu_base_body,0.2638829633837163,0.9645147321696081,-0.0010469398349001319,-0.008718771736845503,0.017453292519943295,0.0,0.0,0.0,0.017453292519943295,0.0,0.0,0.0,0.15707963267948966,0.01084386371076107,0.000716020877007395,-0.012678725644946098,0.0004363323129985824,0.0,0.0,0.0,0.0004363323129985824,0.0,0.0,0.0,0.0004363323129985824,-0.22366321086883545,0.0876195952296257,9.726086616516113,0.0004,0.0,0.0,0.0,0.0004,0.0,0.0,0.0,0.0004
2025/05/07 10:53:15.398494615,1746607995,398011336,mti/imu_base_body,0.263820713330833,0.9645315847829985,-0.0010696530373019621,-0.00873550319029645,0.017453292519943295,0.0,0.0,0.0,0.017453292519943295,0.0,0.0,0.0,0.15707963267948966,0.015019979327917099,0.004635262303054333,-0.0062300763092935085,0.0004363323129985824,0.0,0.0,0.0,0.0004363323129985824,0.0,0.0,0.0,0.0004363323129985824,-0.22171176970005035,0.11853490769863129,9.806739807128906,0.0004,0.0,0.0,0.0,0.0004,0.0,0.0,0.0,0.0004
2025/05/07 10:53:15.448602689,1746607995,448095981,mti/imu_base_body,0.26377299874625376,0.9645450813342062,-0.001062237182872535,-0.008686936086176504,0.017453292519943295,0.0,0.0,0.0,0.017453292519943295,0.0,0.0,0.0,0.15707963267948966,0.0010901691857725382,-0.004936483222991228,-0.014626754447817802,0.0004363323129985824,0.0,0.0,0.0,0.0004363323129985824,0.0,0.0,0.0,0.0004363323129985824,-0.18420861661434174,0.09783351421356201,9.829392433166504,0.0004,0.0,0.0,0.0,0.0004,0.0,0.0,0.0,0.0004
2025/05/07 10:53:15.498594402,1746607995,497993012,mti/imu_base_body,0.2611796848287598,0.9652495777630952,-0.001783429494451095,-0.008674343788125014,0.017453292519943295,0.0,0.0,0.0,0.017453292519943295,0.0,0.0,0.0,0.15707963267948966,0.02364962548017502,0.007788629736751318,-0.013945789076387882,0.0004363323129985824,0.0,0.0,0.0,0.0004363323129985824,0.0,0.0,0.0,0.0004363323129985824,-0.1987755298614502,0.08378847688436508,9.796625137329102,0.0004,0.0,0.0,0.0,0.0004,0.0,0.0,0.0,0.0004
2025/05/07 10:53:15.549922298,1746607995,548251716,mti/imu_base_body,0.26113644476405073,0.9652613084462205,-0.0018308565715376328,-0.008660923559104205,0.017453292519943295,0.0,0.0,0.0,0.017453292519943295,0.0,0.0,0.0,0.15707963267948966,0.017175668850541115,0.0010672358330339193,-0.012168207205832005,0.0004363323129985824,0.0,0.0,0.0,0.0004363323129985824,0.0,0.0,0.0,0.0004363323129985824,-0.20414185523986816,0.08442243933677673,9.776480674743652,0.0004,0.0,0.0,0.0,0.0004,0.0,0.0,0.0,0.0004
2025/05/07 10:53:15.602538013,1746607995,598103674,mti/imu_base_body,0.26098035064982994,0.9653034841348277,-0.0018798791565498665,-0.008654833690542893,0.017453292519943295,0.0,0.0,0.0,0.017453292519943295,0.0,0.0,0.0,0.15707963267948966,0.021039972081780434,-0.00020073346968274564,-0.024849586188793182,0.0004363323129985824,0.0,0.0,0.0,0.0004363323129985824,0.0,0.0,0.0,0.0004363323129985824,-0.19924677908420563,0.10268150269985199,9.876582145690918,0.0004,0.0,0.0,0.0,0.0004,0.0,0.0,0.0,0.0004
2025/05/07 10:53:15.649183071,1746607995,648211799,mti/imu_base_body,0.2609155043605697,0.9653205928502053,-0.0019199373337155114,-0.008692896193561324,0.017453292519943295,0.0,0.0,0.0,0.017453292519943295,0.0,0.0,0.0,0.15707963267948966,0.019473928958177567,0.009402078576385975,-0.00876891240477562,0.0004363323129985824,0.0,0.0,0.0,0.0004363323129985824,0.0,0.0,0.0,0.0004363323129985824,-0.181644007563591,0.05860394611954689,9.844504356384277,0.0004,0.0,0.0,0.0,0.0004,0.0,0.0,0.0,0.0004
2025/05/07 10:53:15.699128609,1746607995,697828831,mti/imu_base_body,0.260862414710245,0.9653349346529425,-0.0019389615262359462,-0.008689358914155686,0.017453292519943295,0.0,0.0,0.0,0.017453292519943295,0.0,0.0,0.0,0.15707963267948966,0.008581413887441158,-0.0010535460896790028,-0.009577102959156036,0.0004363323129985824,0.0,0.0,0.0,0.0004363323129985824,0.0,0.0,0.0,0.0004363323129985824,-0.1982860565185547,0.055985331535339355,9.805404663085938,0.0004,0.0,0.0,0.0,0.0004,0.0,0.0,0.0,0.0004
2025/05/07 10:53:15.748220818,1746607995,747843513,mti/imu_base_body,0.26075398977714287,0.9653642562075742,-0.0019126266959353174,-0.008692037230747698,0.017453292519943295,0.0,0.0,0.0,0.017453292519943295,0.0,0.0,0.0,0.15707963267948966,0.006527550984174013,0.0029767476953566074,-0.019296078011393547,0.0004363323129985824,0.0,0.0,0.0,0.0004363323129985824,0.0,0.0,0.0,0.0004363323129985824,-0.19765636324882507,0.0700269564986229,9.828673362731934,0.0004,0.0,0.0,0.0,0.0004,0.0,0.0,0.0,0.0004
2025/05/07 10:53:15.798970498,1746607995,798121867,mti/imu_base_body,0.26064706158242584,0.9653932528898574,-0.0019304880461448776,-0.008674663053423336,0.017453292519943295,0.0,0.0,0.0,0.017453292519943295,0.0,0.0,0.0,0.15707963267948966,0.017924215644598007,-0.0007135225459933281,-0.021559754386544228,0.0004363323129985824,0.0,0.0,0.0,0.0004363323129985824,0.0,0.0,0.0,0.0004363323129985824,-0.19162040948867798,0.09037792682647705,9.824235916137695,0.0004,0.0,0.0,0.0,0.0004,0.0,0.0,0.0,0.0004
2025/05/07 10:53:15.861178167,1746607995,848079440,mti/imu_base_body,0.260540379585092,0.965422205493641,-0.001982538724863059,-0.008645535590961421,0.017453292519943295,0.0,0.0,0.0,0.017453292519943295,0.0,0.0,0.0,0.15707963267948966,0.015313294716179371,-0.0022027678787708282,-0.015770262107253075,0.0004363323129985824,0.0,0.0,0.0,0.0004363323129985824,0.0,0.0,0.0,0.0004363323129985824,-0.19735701382160187,0.10269603133201599,9.845248222351074,0.0004,0.0,0.0,0.0,0.0004,0.0,0.0,0.0,0.0004
2025/05/07 10:53:15.898969134,1746607995,898021968,mti/imu_base_body,0.25736132970347625,0.9662694893194801,-0.002956563606727854,-0.008926293473176366,0.017453292519943295,0.0,0.0,0.0,0.017453292519943295,0.0,0.0,0.0,0.15707963267948966,0.008832890540361404,0.0031779299024492502,-0.014792471192777157,0.0004363323129985824,0.0,0.0,0.0,0.0004363323129985824,0.0,0.0,0.0,0.0004363323129985824,-0.21005654335021973,0.045308832079172134,9.749568939208984,0.0004,0.0,0.0,0.0,0.0004,0.0,0.0,0.0,0.0004
2025/05/07 10:53:15.951678796,1746607995,948273059,mti/imu_base_body,0.25726951842630713,0.9662937085242833,-0.0029758982747727547,-0.008944707068520316,0.017453292519943295,0.0,0.0,0.0,0.017453292519943295,0.0,0.0,0.0,0.15707963267948966,0.014302375726401806,0.005361618474125862,-0.015460901893675327,0.0004363323129985824,0.0,0.0,0.0,0.0004363323129985824,0.0,0.0,0.0,0.0004363323129985824,-0.16858723759651184,0.04650222882628441,9.866435050964355,0.0004,0.0,0.0,0.0,0.0004,0.0,0.0,0.0,0.0004
2025/05/07 10:53:15.998932149,1746607995,998153588,mti/imu_base_body,0.2572030788188361,0.9663114735055119,-0.0030003729659338306,-0.008928055767255874,0.017453292519943295,0.0,0.0,0.0,0.017453292519943295,0.0,0.0,0.0,0.15707963267948966,0.014339251443743706,-0.0005226305220276117,-0.007220681291073561,0.0004363323129985824,0.0,0.0,0.0,0.0004363323129985824,0.0,0.0,0.0,0.0004363323129985824,-0.1584521234035492,0.050762075930833817,9.860912322998047,0.0004,0.0,0.0,0.0,0.0004,0.0,0.0,0.0,0.0004
2025/05/07 10:53:16.49955904,1746607996,48684068,mti/imu_base_body,0.25715276044446816,0.9663246866107686,-0.0030244199077321824,-0.008939279982834808,0.017453292519943295,0.0,0.0,0.0,0.017453292519943295,0.0,0.0,0.0,0.15707963267948966,0.01691421866416931,0.003335388610139489,-0.01229778304696083,0.0004363323129985824,0.0,0.0,0.0,0.0004363323129985824,0.0,0.0,0.0,0.0004363323129985824,-0.17728634178638458,0.07133306562900543,9.839799880981445,0.0004,0.0,0.0,0.0,0.0004,0.0,0.0,0.0,0.0004
2025/05/07 10:53:16.106218122,1746607996,98181674,mti/imu_base_body,0.2570659056857754,0.9663474706555544,-0.003033753326836401,-0.008971200160324832,0.017453292519943295,0.0,0.0,0.0,0.017453292519943295,0.0,0.0,0.0,0.15707963267948966,0.018261592835187912,0.00794453639537096,-0.01490424107760191,0.0004363323129985824,0.0,0.0,0.0,0.0004363323129985824,0.0,0.0,0.0,0.0004363323129985824,-0.2041681855916977,0.07971944659948349,9.707904815673828,0.0004,0.0,0.0,0.0,0.0004,0.0,0.0,0.0,0.0004
2025/05/07 10:53:16.148731726,1746607996,147959294,mti/imu_base_body,0.25698548408289507,0.9663687231417997,-0.0030491603780338555,-0.008980786433078043,0.017453292519943295,0.0,0.0,0.0,0.017453292519943295,0.0,0.0,0.0,0.15707963267948966,0.010354418307542801,0.007640419062227011,-0.009975751861929893,0.0004363323129985824,0.0,0.0,0.0,0.0004363323129985824,0.0,0.0,0.0,0.0004363323129985824,-0.17905396223068237,0.060611166059970856,9.765741348266602,0.0004,0.0,0.0,0.0,0.0004,0.0,0.0,0.0,0.0004
