time,header_stamp_secs,header_stamp_nsecs,header_frame_id,orientation_x,orientation_y,orientation_z,orientation_w,orientation_covariance_0,orientation_covariance_1,orientation_covariance_2,orientation_covariance_3,orientation_covariance_4,orientation_covariance_5,orientation_covariance_6,orientation_covariance_7,orientation_covariance_8,angular_velocity_x,angular_velocity_y,angular_velocity_z,angular_velocity_covariance_0,angular_velocity_covariance_1,angular_velocity_covariance_2,angular_velocity_covariance_3,angular_velocity_covariance_4,angular_velocity_covariance_5,angular_velocity_covariance_6,angular_velocity_covariance_7,angular_velocity_covariance_8,linear_acceleration_x,linear_acceleration_y,linear_acceleration_z,linear_acceleration_covariance_0,linear_acceleration_covariance_1,linear_acceleration_covariance_2,linear_acceleration_covariance_3,linear_acceleration_covariance_4,linear_acceleration_covariance_5,linear_acceleration_covariance_6,linear_acceleration_covariance_7,linear_acceleration_covariance_8
2025/04/10 10:33:49.300453419,1744274029,299305321,mA1/imu,0.7056135164606568,0.7085963416137103,0.00030217118018030953,0.0008359020696227398,0.0,0.0,0.0,0.0,0.0,0.0,0.0,0.0,0.0,-0.0006316912646943753,-0.0006197504573892288,-7.5290541646647834e-06,0.0,0.0,0.0,0.0,0.0,0.0,0.0,0.0,0.0,0.008443344087303866,-0.06272672885841213,9.809951904937055,0.0,0.0,0.0,0.0,0.0,0.0,0.0,0.0,0.0
2025/04/10 10:33:49.350124412,1744274029,349761593,mA1/imu,0.7056133624910752,0.7085964905132589,0.0002880422698951965,0.0008445933827981401,0.0,0.0,0.0,0.0,0.0,0.0,0.0,0.0,0.0,-0.0007512003403444039,-0.0006558453963255493,-1.0318395307805668e-05,0.0,0.0,0.0,0.0,0.0,0.0,0.0,0.0,0.0,0.00864489132897761,-0.06769618088425078,9.811030718266691,0.0,0.0,0.0,0.0,0.0,0.0,0.0,0.0,0.0
2025/04/10 10:33:49.401493968,1744274029,400810820,mA1/imu,0.7056131586643363,0.7085966888647868,0.0002728549493546238,0.000853463400035368,0.0,0.0,0.0,0.0,0.0,0.0,0.0,0.0,0.0,-0.0009039908762236281,-0.000675943848290232,-1.3112000194366276e-05,0.0,0.0,0.0,0.0,0.0,0.0,0.0,0.0,0.0,0.008835203472988582,0.5484992212187562,9.81175309416263,0.0,0.0,0.0,0.0,0.0,0.0,0.0,0.0,0.0
2025/04/10 10:33:49.450772288,1744274029,450616539,mA1/imu,0.7056129169422481,0.7085969254509843,0.00025710183543024856,0.0008617333173384758,0.0,0.0,0.0,0.0,0.0,0.0,0.0,0.0,0.0,0.0006871925702000816,-0.000673560440409473,-1.4309055212444107e-05,0.0,0.0,0.0,0.0,0.0,0.0,0.0,0.0,0.0,0.008963899961875025,0.030578188059393357,9.80848722685047,0.0,0.0,0.0,0.0,0.0,0.0,0.0,0.0,0.0
2025/04/10 10:33:49.501923446,1744274029,501586493,mA1/imu,0.7056126615113825,0.7085971667966013,0.0002473737213567986,0.0008751736369315751,0.0,0.0,0.0,0.0,0.0,0.0,0.0,0.0,0.0,0.0008103886690685734,-0.000641278437155696,-1.4583124469291367e-05,0.0,0.0,0.0,0.0,0.0,0.0,0.0,0.0,0.0,0.008690320273553445,0.03942685871457995,9.80879717951932,0.0,0.0,0.0,0.0,0.0,0.0,0.0,0.0,0.0
2025/04/10 10:33:49.552547959,1744274029,552422909,mA1/imu,0.7056124016467559,0.7085974124836127,0.00023917886781042112,0.0008879511783575632,0.0,0.0,0.0,0.0,0.0,0.0,0.0,0.0,0.0,0.0009479682296113277,-0.0005723699201287843,-1.4794415973255777e-05,0.0,0.0,0.0,0.0,0.0,0.0,0.0,0.0,0.0,0.009066603208370962,-0.5821648297478337,9.809493095782033,0.0,0.0,0.0,0.0,0.0,0.0,0.0,0.0,0.0
2025/04/10 10:33:49.603505734,1744274029,603299087,mA1/imu,0.7056121381430805,0.7085976622732519,0.00023322163708256323,0.00089951859387207,0.0,0.0,0.0,0.0,0.0,0.0,0.0,0.0,0.0,-0.0006316629600564788,-0.00045265896580266385,-1.4923932801696089e-05,0.0,0.0,0.0,0.0,0.0,0.0,0.0,0.0,0.0,0.009296941270632814,-0.06258021056679913,9.809893131051059,0.0,0.0,0.0,0.0,0.0,0.0,0.0,0.0,0.0
2025/04/10 10:33:49.658107774,1744274029,653541645,mA1/imu,0.7056118686360441,0.7085979287443466,0.00022393325910531847,0.0009033676259484972,0.0,0.0,0.0,0.0,0.0,0.0,0.0,0.0,0.0,-0.0007532843143009721,-0.00030390859521278046,-1.6492516523820308e-05,0.0,0.0,0.0,0.0,0.0,0.0,0.0,0.0,0.0,0.008232275135523461,-0.06742750461659044,9.811006311222721,0.0,0.0,0.0,0.0,0.0,0.0,0.0,0.0,0.0
2025/04/10 10:33:49.695427402,1744274029,694520637,mA1/imu,0.7056115549474665,0.7085982421938111,0.00021701084076740238,0.0009042072519518001,0.0,0.0,0.0,0.0,0.0,0.0,0.0,0.0,0.0,-0.0009150702342928907,-0.00014645000606746346,-1.9008900829949245e-05,0.0,0.0,0.0,0.0,0.0,0.0,0.0,0.0,0.0,0.00867114668856379,0.5486025515414579,9.811751251645592,0.0,0.0,0.0,0.0,0.0,0.0,0.0,0.0,0.0
2025/04/10 10:33:49.747884815,1744274029,744429891,mA1/imu,0.7056112028061581,0.7085985975220385,0.00021266648058714942,0.0009015748527143003,0.0,0.0,0.0,0.0,0.0,0.0,0.0,0.0,0.0,0.000668488468580265,3.437636740629877e-05,-2.0225939291231292e-05,0.0,0.0,0.0,0.0,0.0,0.0,0.0,0.0,0.0,0.006822132945360125,0.030571581042679326,9.80852253951849,0.0,0.0,0.0,0.0,0.0,0.0,0.0,0.0,0.0
2025/04/10 10:33:49.797357079,1744274029,797038411,mA1/imu,0.7056108448114506,0.7085989532148544,0.00021767645194065578,0.000901001801172713,0.0,0.0,0.0,0.0,0.0,0.0,0.0,0.0,0.0,0.0007859117337473043,0.00023471084586927722,-1.9766749929249833e-05,0.0,0.0,0.0,0.0,0.0,0.0,0.0,0.0,0.0,0.006983447239083534,0.03935572035829118,9.80886571775855,0.0,0.0,0.0,0.0,0.0,0.0,0.0,0.0,0.0
2025/04/10 10:33:49.847711425,1744274029,847072129,mA1/imu,0.7056104937029989,0.7085993045188118,0.00022670712760496212,0.0008974494664416165,0.0,0.0,0.0,0.0,0.0,0.0,0.0,0.0,0.0,0.0009191883366286158,0.00041735063776478286,-1.9360355672749466e-05,0.0,0.0,0.0,0.0,0.0,0.0,0.0,0.0,0.0,0.007504049969463189,-0.5820745399225126,9.809587066957983,0.0,0.0,0.0,0.0,0.0,0.0,0.0,0.0,0.0
2025/04/10 10:33:49.898313264,1744274029,898039609,mA1/imu,0.705610148397349,0.7085996518130339,0.00023937066215782443,0.0008914206664568044,0.0,0.0,0.0,0.0,0.0,0.0,0.0,0.0,0.0,-0.0006637482461033664,0.000586337661847795,-1.8988932899144076e-05,0.0,0.0,0.0,0.0,0.0,0.0,0.0,0.0,0.0,0.008179248906145926,-0.062454753444602065,9.809987944224144,0.0,0.0,0.0,0.0,0.0,0.0,0.0,0.0,0.0
2025/04/10 10:33:49.949146389,1744274029,948394756,mA1/imu,0.7056098049155793,0.7086000079950547,0.000249044331814435,0.0008774128601726047,0.0,0.0,0.0,0.0,0.0,0.0,0.0,0.0,0.0,-0.0007876006125328255,0.0007341145006176329,-2.008206491279293e-05,0.0,0.0,0.0,0.0,0.0,0.0,0.0,0.0,0.0,0.006726434030241718,-0.06751682899372725,9.81110169916188,0.0,0.0,0.0,0.0,0.0,0.0,0.0,0.0,0.0
2025/04/10 10:33:49.999815005,1744274029,999383952,mA1/imu,0.7056094247926716,0.7086004025215853,0.00026050852061166804,0.0008610025047185122,0.0,0.0,0.0,0.0,0.0,0.0,0.0,0.0,0.0,-0.0009497395844749373,0.0008330955782307761,-2.220004163837839e-05,0.0,0.0,0.0,0.0,0.0,0.0,0.0,0.0,0.0,0.007576237565161624,0.5484939786064663,9.81184963856767,0.0,0.0,0.0,0.0,0.0,0.0,0.0,0.0,0.0
2025/04/10 10:33:50.52283810,1744274030,51790803,mA1/imu,0.7056090055908012,0.7086008371466928,0.0002728204626600474,0.0008428482436922727,0.0,0.0,0.0,0.0,0.0,0.0,0.0,0.0,0.0,0.0006342981343746251,0.000881788936930992,-2.4340458844056233e-05,0.0,0.0,0.0,0.0,0.0,0.0,0.0,0.0,0.0,0.007085358374102274,0.030222454798750912,9.808622857904595,0.0,0.0,0.0,0.0,0.0,0.0,0.0,0.0,0.0
2025/04/10 10:33:50.103767510,1744274030,103528400,mA1/imu,0.7056085392207011,0.7086013093634724,0.0002912177901671133,0.0008300237343588324,0.0,0.0,0.0,0.0,0.0,0.0,0.0,0.0,0.0,0.0007528543535673131,0.0008732714828078974,-2.6653755050809355e-05,0.0,0.0,0.0,0.0,0.0,0.0,0.0,0.0,0.0,0.007435179943332325,0.0390561184740421,9.808954841773582,0.0,0.0,0.0,0.0,0.0,0.0,0.0,0.0,0.0
2025/04/10 10:33:50.153753444,1744274030,153456870,mA1/imu,0.7056080319777014,0.7086018203461704,0.0003095842785789682,0.0008182714851766398,0.0,0.0,0.0,0.0,0.0,0.0,0.0,0.0,0.0,0.0008877044873307533,0.0008146854939340817,-2.9009406004976275e-05,0.0,0.0,0.0,0.0,0.0,0.0,0.0,0.0,0.0,0.007929363699195982,-0.5821887587992987,9.809674796657337,0.0,0.0,0.0,0.0,0.0,0.0,0.0,0.0,0.0
2025/04/10 10:33:50.194624090,1744274030,194354420,mA1/imu,0.705607483760053,0.7086023696496487,0.00032703162206616055,0.0008084794540325506,0.0,0.0,0.0,0.0,0.0,0.0,0.0,0.0,0.0,-0.000691311498706167,0.0007228405752033081,-3.1340986492678644e-05,0.0,0.0,0.0,0.0,0.0,0.0,0.0,0.0,0.0,0.008602047016426834,-0.06258299587503299,9.810053432125168,0.0,0.0,0.0,0.0,0.0,0.0,0.0,0.0,0.0
2025/04/10 10:33:50.246738207,1744274030,244101466,mA1/imu,0.7056069006311163,0.7086029605462528,0.00033650989490222933,0.0007955173952012228,0.0,0.0,0.0,0.0,0.0,0.0,0.0,0.0,0.0,-0.0008086022923518577,0.0005687125489969272,-3.381407044047954e-05,0.0,0.0,0.0,0.0,0.0,0.0,0.0,0.0,0.0,0.009436380110238937,-0.06747981738821524,9.81115160926149,0.0,0.0,0.0,0.0,0.0,0.0,0.0,0.0,0.0
2025/04/10 10:33:50.295454560,1744274030,295137585,mA1/imu,0.7056062712987126,0.7086035953190007,0.00034191913570563465,0.0007859365230366347,0.0,0.0,0.0,0.0,0.0,0.0,0.0,0.0,0.0,-0.0009736043109489591,0.0003398669618224411,-3.654017079667162e-05,0.0,0.0,0.0,0.0,0.0,0.0,0.0,0.0,0.0,0.009945373596106354,0.5478043124025366,9.81185580576751,0.0,0.0,0.0,0.0,0.0,0.0,0.0,0.0,0.0
2025/04/10 10:33:50.348785095,1744274030,348382956,mA1/imu,0.70560559651318,0.708604273527933,0.0003426238365649586,0.0007799462393450441,0.0,0.0,0.0,0.0,0.0,0.0,0.0,0.0,0.0,0.0006261946535165909,9.592142174270561e-05,-3.916653451964097e-05,0.0,0.0,0.0,0.0,0.0,0.0,0.0,0.0,0.0,0.00929333146142605,0.030082279031821195,9.808602716256505,0.0,0.0,0.0,0.0,0.0,0.0,0.0,0.0,0.0
2025/04/10 10:33:50.399520243,1744274030,399287480,mA1/imu,0.7056048709122174,0.7086049910184652,0.0003445907496939557,0.0007836490853989405,0.0,0.0,0.0,0.0,0.0,0.0,0.0,0.0,0.0,0.0007568626679912687,-0.0001485069636587557,-4.180656845253867e-05,0.0,0.0,0.0,0.0,0.0,0.0,0.0,0.0,0.0,0.009129129144873585,0.03916376079188537,9.808901858487083,0.0,0.0,0.0,0.0,0.0,0.0,0.0,0.0,0.0
2025/04/10 10:33:50.449390994,1744274030,449088135,mA1/imu,0.7056041026304217,0.7086057479954461,0.0003428829194510474,0.0007916376919484055,0.0,0.0,0.0,0.0,0.0,0.0,0.0,0.0,0.0,0.0009027192969214856,-0.00036798326743583753,-4.426891926391532e-05,0.0,0.0,0.0,0.0,0.0,0.0,0.0,0.0,0.0,0.008923315707577359,-0.5823883904727236,9.809602875686272,0.0,0.0,0.0,0.0,0.0,0.0,0.0,0.0,0.0
2025/04/10 10:33:50.500738138,1744274030,500492409,mA1/imu,0.7056032948467608,0.7086065414403109,0.0003381753079377555,0.0008033472830880141,0.0,0.0,0.0,0.0,0.0,0.0,0.0,0.0,0.0,-0.0006672383513605126,-0.0005363766714499835,-4.653789785428149e-05,0.0,0.0,0.0,0.0,0.0,0.0,0.0,0.0,0.0,0.009056662379837141,-0.06281171978349155,9.809992646698143,0.0,0.0,0.0,0.0,0.0,0.0,0.0,0.0,0.0
2025/04/10 10:33:50.550865999,1744274030,550669419,mA1/imu,0.7056024565733516,0.7086073723269981,0.00032497815504820915,0.0008121272543079958,0.0,0.0,0.0,0.0,0.0,0.0,0.0,0.0,0.0,-0.0007765523176455126,-0.0006607850496345773,-4.857561888890546e-05,0.0,0.0,0.0,0.0,0.0,0.0,0.0,0.0,0.0,0.007655106873352101,-0.06736333816947884,9.811074084597866,0.0,0.0,0.0,0.0,0.0,0.0,0.0,0.0,0.0
2025/04/10 10:33:50.601939755,1744274030,601602729,mA1/imu,0.7056015853106586,0.7086082352667762,0.00030941109238019393,0.0008221824412190128,0.0,0.0,0.0,0.0,0.0,0.0,0.0,0.0,0.0,-0.0009246856956383824,-0.0007461803512730865,-5.043875192923333e-05,0.0,0.0,0.0,0.0,0.0,0.0,0.0,0.0,0.0,0.007839922678008303,0.5486572705473437,9.811762896965536,0.0,0.0,0.0,0.0,0.0,0.0,0.0,0.0,0.0
2025/04/10 10:33:50.651624782,1744274030,651418271,mA1/imu,0.7056006942933061,0.7086091177655345,0.0002922092887563637,0.0008324938959445241,0.0,0.0,0.0,0.0,0.0,0.0,0.0,0.0,0.0,0.0006735756539742306,-0.0007832560402371837,-5.0527364973358494e-05,0.0,0.0,0.0,0.0,0.0,0.0,0.0,0.0,0.0,0.006925676182786774,0.030713755411184294,9.808468529967298,0.0,0.0,0.0,0.0,0.0,0.0,0.0,0.0,0.0
2025/04/10 10:33:50.702681403,1744274030,702348259,mA1/imu,0.7055998113301919,0.7086099829724171,0.00028052246727094444,0.0008482863749491385,0.0,0.0,0.0,0.0,0.0,0.0,0.0,0.0,0.0,0.0008005660206152148,-0.0007705197801837381,-4.959323862370426e-05,0.0,0.0,0.0,0.0,0.0,0.0,0.0,0.0,0.0,0.006665768866845273,0.039246665033626824,9.80877318634993,0.0,0.0,0.0,0.0,0.0,0.0,0.0,0.0,0.0
2025/04/10 10:33:50.753232006,1744274030,752248708,mA1/imu,0.7055989568827895,0.7086108197078108,0.0002703043042931844,0.000863234919928959,0.0,0.0,0.0,0.0,0.0,0.0,0.0,0.0,0.0,0.0009474623059175361,-0.0006669533569760297,-4.696068393278633e-05,0.0,0.0,0.0,0.0,0.0,0.0,0.0,0.0,0.0,0.004750730509913042,-0.5825083175142096,9.809500311853936,0.0,0.0,0.0,0.0,0.0,0.0,0.0,0.0,0.0
2025/04/10 10:33:50.803292137,1744274030,803101624,mA1/imu,0.705598165894797,0.7086115946941934,0.0002633343499801891,0.0008756745233583219,0.0,0.0,0.0,0.0,0.0,0.0,0.0,0.0,0.0,-0.0006247708154256464,-0.000478638880057542,-4.320559503741896e-05,0.0,0.0,0.0,0.0,0.0,0.0,0.0,0.0,0.0,0.005124521900804941,-0.06281923902646633,9.809915001436528,0.0,0.0,0.0,0.0,0.0,0.0,0.0,0.0,0.0
2025/04/10 10:33:50.853878497,1744274030,853565183,mA1/imu,0.7055974471014431,0.7086123095560686,0.00025404269007021007,0.0008791199304041925,0.0,0.0,0.0,0.0,0.0,0.0,0.0,0.0,0.0,-0.0007385578376275057,-0.0002700056016302662,-3.9446038933944896e-05,0.0,0.0,0.0,0.0,0.0,0.0,0.0,0.0,0.0,0.00442026463719084,-0.06741554856891814,9.811020128157807,0.0,0.0,0.0,0.0,0.0,0.0,0.0,0.0,0.0
2025/04/10 10:33:50.894669769,1744274030,894439154,mA1/imu,0.7055967928271251,0.7086129640036108,0.0002479033901317739,0.0008784884753616365,0.0,0.0,0.0,0.0,0.0,0.0,0.0,0.0,0.0,-0.0008929310172038998,-6.36834631057506e-05,-3.576956893481851e-05,0.0,0.0,0.0,0.0,0.0,0.0,0.0,0.0,0.0,0.00503146261485594,0.5485759068513741,9.811754663233193,0.0,0.0,0.0,0.0,0.0,0.0,0.0,0.0,0.0
2025/04/10 10:33:50.944564406,1744274030,944276923,mA1/imu,0.705596195831327,0.7086135654146241,0.000244720495605348,0.0008737566097460443,0.0,0.0,0.0,0.0,0.0,0.0,0.0,0.0,0.0,0.0006973073026160766,0.0001062193865587493,-3.325503099957876e-05,0.0,0.0,0.0,0.0,0.0,0.0,0.0,0.0,0.0,0.0069281763134647276,0.030513459796505965,9.808499064698765,0.0,0.0,0.0,0.0,0.0,0.0,0.0,0.0,0.0
2025/04/10 10:33:50.997253968,1744274030,995337134,mA1/imu,0.7055956099575075,0.7086141489102276,0.0002494641490196688,0.0008723190729405166,0.0,0.0,0.0,0.0,0.0,0.0,0.0,0.0,0.0,0.0008199070654832893,0.000215184934826227,-3.257829165616222e-05,0.0,0.0,0.0,0.0,0.0,0.0,0.0,0.0,0.0,0.007058702202498204,0.039300162299113234,9.8088365969963,0.0,0.0,0.0,0.0,0.0,0.0,0.0,0.0,0.0
2025/04/10 10:33:51.45746985,1744274031,45207034,mA1/imu,0.7055950354443485,0.7086147219956278,0.00025656466611649777,0.0008694262015285354,0.0,0.0,0.0,0.0,0.0,0.0,0.0,0.0,0.0,0.0009567505206077997,0.00030917510464013723,-3.192970256202906e-05,0.0,0.0,0.0,0.0,0.0,0.0,0.0,0.0,0.0,0.00754333048209372,-0.581981042353627,9.809586369943789,0.0,0.0,0.0,0.0,0.0,0.0,0.0,0.0,0.0
2025/04/10 10:33:51.96297840,1744274031,96104717,mA1/imu,0.7055944732608513,0.708615283194368,0.00026577575512712353,0.0008655000609060908,0.0,0.0,0.0,0.0,0.0,0.0,0.0,0.0,0.0,-0.0006247744797783835,0.0003981718998855282,-3.114078346297147e-05,0.0,0.0,0.0,0.0,0.0,0.0,0.0,0.0,0.0,0.008123936737096394,-0.06238955684227494,9.810017217898194,0.0,0.0,0.0,0.0,0.0,0.0,0.0,0.0,0.0
2025/04/10 10:33:51.146518611,1744274031,146228131,mA1/imu,0.7055939260708065,0.7086158390124329,0.00027059680383581113,0.0008549678714187311,0.0,0.0,0.0,0.0,0.0,0.0,0.0,0.0,0.0,-0.0007482427655389394,0.0004654614435200242,-3.134843675421563e-05,0.0,0.0,0.0,0.0,0.0,0.0,0.0,0.0,0.0,0.007159758970759185,-0.06753751493102848,9.811135307042134,0.0,0.0,0.0,0.0,0.0,0.0,0.0,0.0,0.0
2025/04/10 10:33:51.197724663,1744274031,197261905,mA1/imu,0.7055933523364627,0.7086164221340964,0.0002758938130963953,0.000843387851718429,0.0,0.0,0.0,0.0,0.0,0.0,0.0,0.0,0.0,-0.0009122674762840078,0.0004965911080339916,-3.313076259771185e-05,0.0,0.0,0.0,0.0,0.0,0.0,0.0,0.0,0.0,0.007856236463774414,0.548471799004071,9.811857770707233,0.0,0.0,0.0,0.0,0.0,0.0,0.0,0.0,0.0
2025/04/10 10:33:51.247344412,1744274031,247083592,mA1/imu,0.7055927464937248,0.7086170377934012,0.0002811444679046049,0.0008311450749302263,0.0,0.0,0.0,0.0,0.0,0.0,0.0,0.0,0.0,0.0006652085536891719,0.0004976235093809124,-3.4895733067666395e-05,0.0,0.0,0.0,0.0,0.0,0.0,0.0,0.0,0.0,0.007321255667536082,0.02998122008807615,9.808614701259,0.0,0.0,0.0,0.0,0.0,0.0,0.0,0.0,0.0
2025/04/10 10:33:51.300206690,1744274031,298042984,mA1/imu,0.7055921011559518,0.7086176833084481,0.00029196834917840785,0.000824889919988799,0.0,0.0,0.0,0.0,0.0,0.0,0.0,0.0,0.0,0.0007807024300572938,0.00046602503605495894,-3.67809466618456e-05,0.0,0.0,0.0,0.0,0.0,0.0,0.0,0.0,0.0,0.0075031274500478775,0.038959109889267415,9.808942468381954,0.0,0.0,0.0,0.0,0.0,0.0,0.0,0.0,0.0
2025/04/10 10:33:51.349898365,1744274031,348461525,mA1/imu,0.7055914230502985,0.708618359797074,0.00030266351226132217,0.0008199214338046383,0.0,0.0,0.0,0.0,0.0,0.0,0.0,0.0,0.0,0.0009109491018916769,0.0004081194017873855,-3.8668559464204324e-05,0.0,0.0,0.0,0.0,0.0,0.0,0.0,0.0,0.0,0.007959929802224345,-0.582163226261651,9.809670820048684,0.0,0.0,0.0,0.0,0.0,0.0,0.0,0.0,0.0
2025/04/10 10:33:51.401394013,1744274031,399490814,mA1/imu,0.7055907124281905,0.7086190666242902,0.000312840171670869,0.0008167512628581,0.0,0.0,0.0,0.0,0.0,0.0,0.0,0.0,0.0,-0.0006751958085018875,0.00034218618853533065,-4.0501664852734414e-05,0.0,0.0,0.0,0.0,0.0,0.0,0.0,0.0,0.0,0.008488157588393502,-0.06256777452189814,9.810064596052465,0.0,0.0,0.0,0.0,0.0,0.0,0.0,0.0,0.0
2025/04/10 10:33:51.451181287,1744274031,449314658,mA1/imu,0.7055899870367147,0.7086197953916672,0.0003157109585053507,0.0008099995006864453,0.0,0.0,0.0,0.0,0.0,0.0,0.0,0.0,0.0,-0.0007991136140091167,0.00021963336284399669,-4.0820156816222394e-05,0.0,0.0,0.0,0.0,0.0,0.0,0.0,0.0,0.0,0.009532032145913479,-0.06730498548587624,9.811160824905729,0.0,0.0,0.0,0.0,0.0,0.0,0.0,0.0,0.0
2025/04/10 10:33:51.500714189,1744274031,500457420,mA1/imu,0.7055892724791937,0.7086205118189403,0.00031538553001269525,0.0008058062502452959,0.0,0.0,0.0,0.0,0.0,0.0,0.0,0.0,0.0,-0.0009593847369543389,5.0812278252894725e-05,-4.0176492698282614e-05,0.0,0.0,0.0,0.0,0.0,0.0,0.0,0.0,0.0,0.009940164870822235,0.5487423472963983,9.81185808034193,0.0,0.0,0.0,0.0,0.0,0.0,0.0,0.0,0.0
2025/04/10 10:33:51.550570359,1744274031,550280134,mA1/imu,0.7055885711872044,0.708621213809184,0.0003117439311564512,0.0008039684818081435,0.0,0.0,0.0,0.0,0.0,0.0,0.0,0.0,0.0,0.0006271990331895831,-0.00010666040845663729,-3.944790111029229e-05,0.0,0.0,0.0,0.0,0.0,0.0,0.0,0.0,0.0,0.00877266369136418,0.030540056681925346,9.808596823271602,0.0,0.0,0.0,0.0,0.0,0.0,0.0,0.0,0.0
2025/04/10 10:33:51.601465352,1744274031,601221020,mA1/imu,0.7055878766109754,0.7086218984458545,0.0003113079591638101,0.0008102530238256877,0.0,0.0,0.0,0.0,0.0,0.0,0.0,0.0,0.0,0.0007483480327731308,-0.00024764486285730594,-3.879102819639125e-05,0.0,0.0,0.0,0.0,0.0,0.0,0.0,0.0,0.0,0.008615768280526473,0.0394051198294857,9.808892101302058,0.0,0.0,0.0,0.0,0.0,0.0,0.0,0.0,0.0
2025/04/10 10:33:51.651297233,1744274031,651023496,mA1/imu,0.7055872064713735,0.7086225566443726,0.0003094850680840018,0.0008188392449158434,0.0,0.0,0.0,0.0,0.0,0.0,0.0,0.0,0.0,0.0008856415144362557,-0.0003230733176386915,-3.6503989861771854e-05,0.0,0.0,0.0,0.0,0.0,0.0,0.0,0.0,0.0,0.006648179571998522,-0.5823107958685028,9.809609109143102,0.0,0.0,0.0,0.0,0.0,0.0,0.0,0.0,0.0
2025/04/10 10:33:51.702235340,1744274031,701956805,mA1/imu,0.7055865942435862,0.7086231559061078,0.0003076886453492451,0.0008284111916751469,0.0,0.0,0.0,0.0,0.0,0.0,0.0,0.0,0.0,-0.0006921903519037375,-0.00033017798798872845,-3.314116797398717e-05,0.0,0.0,0.0,0.0,0.0,0.0,0.0,0.0,0.0,0.006973293344177489,-0.06270074075162389,9.80997196821334,0.0,0.0,0.0,0.0,0.0,0.0,0.0,0.0,0.0
2025/04/10 10:33:51.752104777,1744274031,751792715,mA1/imu,0.7055860480228506,0.7086236981536467,0.0003001335544968848,0.0008325685523740638,0.0,0.0,0.0,0.0,0.0,0.0,0.0,0.0,0.0,-0.0008084533859911532,-0.00032071918246178143,-2.9779341194900973e-05,0.0,0.0,0.0,0.0,0.0,0.0,0.0,0.0,0.0,0.006198023580627177,-0.06740987583332933,9.811057201421113,0.0,0.0,0.0,0.0,0.0,0.0,0.0,0.0,0.0
2025/04/10 10:33:51.802984322,1744274031,802755049,mA1/imu,0.7055855608154548,0.7086241823868951,0.00029229742180408375,0.0008361025425932759,0.0,0.0,0.0,0.0,0.0,0.0,0.0,0.0,0.0,-0.0009617582922683514,-0.0003047425570278193,-2.6469406358837127e-05,0.0,0.0,0.0,0.0,0.0,0.0,0.0,0.0,0.0,0.006623232047640809,0.5485984209495713,9.811740189346496,0.0,0.0,0.0,0.0,0.0,0.0,0.0,0.0,0.0
2025/04/10 10:33:51.852743467,1744274031,852555454,mA1/imu,0.7055851318889602,0.7086246098033715,0.00028428663171806373,0.0008385817605856187,0.0,0.0,0.0,0.0,0.0,0.0,0.0,0.0,0.0,0.0006319154402456192,-0.00028495010130607644,-2.316442135096955e-05,0.0,0.0,0.0,0.0,0.0,0.0,0.0,0.0,0.0,0.006582136912796929,0.030369559451145122,9.808479502638232,0.0,0.0,0.0,0.0,0.0,0.0,0.0,0.0,0.0
2025/04/10 10:33:51.903690783,1744274031,903501024,mA1/imu,0.7055847526062857,0.7086249792095353,0.0002823998397135306,0.0008461560984536963,0.0,0.0,0.0,0.0,0.0,0.0,0.0,0.0,0.0,0.000750256155407363,-0.00025804373531935896,-2.0027191874861255e-05,0.0,0.0,0.0,0.0,0.0,0.0,0.0,0.0,0.0,0.00653570114336454,0.03850610495487915,9.808796357461821,0.0,0.0,0.0,0.0,0.0,0.0,0.0,0.0,0.0
2025/04/10 10:33:51.953605790,1744274031,953365928,mA1/imu,0.7055844285317379,0.7086252935777416,0.00028161688566242057,0.0008533506490556017,0.0,0.0,0.0,0.0,0.0,0.0,0.0,0.0,0.0,0.0009005643635999485,-0.00021860643157901565,-1.6937743493584072e-05,0.0,0.0,0.0,0.0,0.0,0.0,0.0,0.0,0.0,0.006972418856632561,-0.58248746640647,9.809522628421695,0.0,0.0,0.0,0.0,0.0,0.0,0.0,0.0,0.0
2025/04/10 10:33:51.994641092,1744274031,994441230,mA1/imu,0.7055841589109385,0.7086255539377698,0.0002820920819320511,0.0008598978949715275,0.0,0.0,0.0,0.0,0.0,0.0,0.0,0.0,0.0,-0.0006673948648205581,-0.00015139351403996507,-1.3862175149543198e-05,0.0,0.0,0.0,0.0,0.0,0.0,0.0,0.0,0.0,0.007366040390665914,-0.06270415036926563,9.809902679069042,0.0,0.0,0.0,0.0,0.0,0.0,0.0,0.0,0.0
2025/04/10 10:33:52.44367872,1744274032,44132345,mA1/imu,0.7055839388084099,0.7086257746340737,0.00027787778596995074,0.0008600022124930515,0.0,0.0,0.0,0.0,0.0,0.0,0.0,0.0,0.0,-0.0007899100164375327,-0.00010773495566594695,-1.289954054485168e-05,0.0,0.0,0.0,0.0,0.0,0.0,0.0,0.0,0.0,0.008707811907417215,-0.06845023374840695,9.811002494734963,0.0,0.0,0.0,0.0,0.0,0.0,0.0,0.0,0.0
2025/04/10 10:33:52.95443870,1744274032,95088529,mA1/imu,0.7055836912801435,0.708626023585131,0.00027310619345345764,0.0008594826464604793,0.0,0.0,0.0,0.0,0.0,0.0,0.0,0.0,0.0,-0.0009292367734147851,-0.00011223340869882295,-1.5079705770183041e-05,0.0,0.0,0.0,0.0,0.0,0.0,0.0,0.0,0.0,0.009110590553795726,0.5481696533334407,9.8117763007907,0.0,0.0,0.0,0.0,0.0,0.0,0.0,0.0,0.0
2025/04/10 10:33:52.146188298,1744274032,145132985,mA1/imu,0.7055834062508494,0.7086263111484009,0.0002676181110810766,0.0008581096696197799,0.0,0.0,0.0,0.0,0.0,0.0,0.0,0.0,0.0,0.0006723892246714319,-0.00011008444174432887,-1.7155716459471467e-05,0.0,0.0,0.0,0.0,0.0,0.0,0.0,0.0,0.0,0.008506050647484071,0.030187777284421048,9.808499615723724,0.0,0.0,0.0,0.0,0.0,0.0,0.0,0.0,0.0
2025/04/10 10:33:52.196773357,1744274032,196194239,mA1/imu,0.7055830769806204,0.7086266342771498,0.0002677994397976962,0.0008619484082291865,0.0,0.0,0.0,0.0,0.0,0.0,0.0,0.0,0.0,0.0008042247346037017,-0.00010179088519782144,-1.928528967972568e-05,0.0,0.0,0.0,0.0,0.0,0.0,0.0,0.0,0.0,0.008445941129774936,0.039127859280129185,9.808843530003811,0.0,0.0,0.0,0.0,0.0,0.0,0.0,0.0,0.0
2025/04/10 10:33:52.248725881,1744274032,246107450,mA1/imu,0.705582711006526,0.7086269937620593,0.00026861373281521727,0.0008657292245760446,0.0,0.0,0.0,0.0,0.0,0.0,0.0,0.0,0.0,0.0009499873946584725,-8.730131407832923e-05,-2.1365887703313275e-05,0.0,0.0,0.0,0.0,0.0,0.0,0.0,0.0,0.0,0.008851631071617683,-0.5822126045501776,9.809555850402084,0.0,0.0,0.0,0.0,0.0,0.0,0.0,0.0,0.0
2025/04/10 10:33:52.297356992,1744274032,297138572,mA1/imu,0.7055823090905086,0.70862738879148,0.00027024805939696294,0.0008694360591271908,0.0,0.0,0.0,0.0,0.0,0.0,0.0,0.0,0.0,-0.0006221594163714687,-5.083857412526545e-05,-2.3361757321549085e-05,0.0,0.0,0.0,0.0,0.0,0.0,0.0,0.0,0.0,0.009220708264051422,-0.06264234814867603,9.810025561462245,0.0,0.0,0.0,0.0,0.0,0.0,0.0,0.0,0.0
2025/04/10 10:33:52.349188733,1744274032,346941554,mA1/imu,0.7055818904323448,0.7086278100634207,0.000266771334777802,0.0008669092769297375,0.0,0.0,0.0,0.0,0.0,0.0,0.0,0.0,0.0,-0.0007341727765155343,3.892934825415514e-06,-2.37066746877212e-05,0.0,0.0,0.0,0.0,0.0,0.0,0.0,0.0,0.0,0.0076549649502793875,-0.0672393301060345,9.811144883423651,0.0,0.0,0.0,0.0,0.0,0.0,0.0,0.0,0.0
2025/04/10 10:33:52.398585339,1744274032,398345114,mA1/imu,0.705581482016941,0.708628222702269,0.0002637370616999333,0.0008629411119540917,0.0,0.0,0.0,0.0,0.0,0.0,0.0,0.0,0.0,-0.0008857880574489511,5.6561613262932416e-05,-2.3019079121739746e-05,0.0,0.0,0.0,0.0,0.0,0.0,0.0,0.0,0.0,0.008174924257246443,0.5487570932880945,9.811892004985516,0.0,0.0,0.0,0.0,0.0,0.0,0.0,0.0,0.0
2025/04/10 10:33:52.451190669,1744274032,449986120,mA1/imu,0.7055810855015076,0.7086286252159669,0.0002610591466951728,0.0008574118992394702,0.0,0.0,0.0,0.0,0.0,0.0,0.0,0.0,0.0,0.0007061767405449534,0.00010410886348691068,-2.2308355543744586e-05,0.0,0.0,0.0,0.0,0.0,0.0,0.0,0.0,0.0,0.007626064077582494,0.03052900847880071,9.808603662011173,0.0,0.0,0.0,0.0,0.0,0.0,0.0,0.0,0.0
2025/04/10 10:33:52.503876294,1744274032,501000932,mA1/imu,0.7055806928209588,0.7086290157601105,0.00026486201220529357,0.0008566150052996462,0.0,0.0,0.0,0.0,0.0,0.0,0.0,0.0,0.0,0.0008286145796247693,0.00014269997000379873,-2.1735169274652324e-05,0.0,0.0,0.0,0.0,0.0,0.0,0.0,0.0,0.0,0.007692820035698669,0.03934516882129167,9.808927379126311,0.0,0.0,0.0,0.0,0.0,0.0,0.0,0.0,0.0
2025/04/10 10:33:52.551146642,1744274032,550857042,mA1/imu,0.7055802995601722,0.7086294068146873,0.00026996399645944254,0.0008554469489837113,0.0,0.0,0.0,0.0,0.0,0.0,0.0,0.0,0.0,0.0009637355305316771,0.00018835202985311255,-2.2686650142205553e-05,0.0,0.0,0.0,0.0,0.0,0.0,0.0,0.0,0.0,0.007371092759302058,-0.5821970977644633,9.809638963229167,0.0,0.0,0.0,0.0,0.0,0.0,0.0,0.0,0.0
2025/04/10 10:33:52.602730326,1744274032,601905218,mA1/imu,0.7055798735049507,0.7086298303550768,0.0002766184940428027,0.0008538839978647237,0.0,0.0,0.0,0.0,0.0,0.0,0.0,0.0,0.0,-0.000620350288564098,0.00024791388734538537,-2.4596632017982162e-05,0.0,0.0,0.0,0.0,0.0,0.0,0.0,0.0,0.0,0.007901406020501314,-0.06261095248440979,9.810074157122399,0.0,0.0,0.0,0.0,0.0,0.0,0.0,0.0,0.0
2025/04/10 10:33:52.653204129,1744274032,651786193,mA1/imu,0.7055794202245064,0.7086302901655434,0.00027847637254697726,0.0008462071007506604,0.0,0.0,0.0,0.0,0.0,0.0,0.0,0.0,0.0,-0.0007454659916028296,0.0002909441077033202,-2.645816426486716e-05,0.0,0.0,0.0,0.0,0.0,0.0,0.0,0.0,0.0,0.007175440565987073,-0.06748024377571027,9.811169225265301,0.0,0.0,0.0,0.0,0.0,0.0,0.0,0.0,0.0
2025/04/10 10:33:52.703104616,1744274032,702693869,mA1/imu,0.7055789334445038,0.7086307839520364,0.0002804410815044897,0.000837894765872994,0.0,0.0,0.0,0.0,0.0,0.0,0.0,0.0,0.0,-0.0009101734432481718,0.0003034155003180404,-2.8326343673474017e-05,0.0,0.0,0.0,0.0,0.0,0.0,0.0,0.0,0.0,0.007794733443842414,0.5485291979168792,9.811879407985113,0.0,0.0,0.0,0.0,0.0,0.0,0.0,0.0,0.0
2025/04/10 10:33:52.752949171,1744274032,752504190,mA1/imu,0.7055784129872671,0.7086313116048809,0.0002818212261635482,0.0008294072051671591,0.0,0.0,0.0,0.0,0.0,0.0,0.0,0.0,0.0,0.0006698737991470868,0.00025427826899083664,-3.0240983372084183e-05,0.0,0.0,0.0,0.0,0.0,0.0,0.0,0.0,0.0,0.009306953573266233,0.03031725948678419,9.808572654897032,0.0,0.0,0.0,0.0,0.0,0.0,0.0,0.0,0.0
2025/04/10 10:33:52.804903584,1744274032,803917150,mA1/imu,0.7055778503872737,0.7086318709775012,0.00028763526417510514,0.0008280964648014259,0.0,0.0,0.0,0.0,0.0,0.0,0.0,0.0,0.0,0.0007821945971225214,0.00016143173870960157,-3.229256671278131e-05,0.0,0.0,0.0,0.0,0.0,0.0,0.0,0.0,0.0,0.009305300979806775,0.0391882982950184,9.808868846416484,0.0,0.0,0.0,0.0,0.0,0.0,0.0,0.0,0.0
2025/04/10 10:33:52.856061786,1744274032,855087718,mA1/imu,0.7055772751352765,0.7086324410128182,0.0002928642673081494,0.0008286057048018362,0.0,0.0,0.0,0.0,0.0,0.0,0.0,0.0,0.0,0.0009103620775601981,0.00011593359755230662,-3.113547592608788e-05,0.0,0.0,0.0,0.0,0.0,0.0,0.0,0.0,0.0,0.007108483041870641,-0.5822122191638098,9.80957017591416,0.0,0.0,0.0,0.0,0.0,0.0,0.0,0.0,0.0
2025/04/10 10:33:52.896297609,1744274032,895954036,mA1/imu,0.7055767539473061,0.7086329559865002,0.00029858032689871746,0.0008299571109950281,0.0,0.0,0.0,0.0,0.0,0.0,0.0,0.0,0.0,-0.000677170818801312,0.00011537552957909165,-2.788513797779163e-05,0.0,0.0,0.0,0.0,0.0,0.0,0.0,0.0,0.0,0.007587755760316055,-0.06263153795135393,9.809977490451798,0.0,0.0,0.0,0.0,0.0,0.0,0.0,0.0,0.0
2025/04/10 10:33:52.946305445,1744274032,946020250,mA1/imu,0.7055762962719145,0.708633416072127,0.0002985584061973345,0.0008262130677415331,0.0,0.0,0.0,0.0,0.0,0.0,0.0,0.0,0.0,-0.0008032758988375644,0.00010640450716230436,-2.467029591268768e-05,0.0,0.0,0.0,0.0,0.0,0.0,0.0,0.0,0.0,0.006844904869372693,-0.06743832416441299,9.811067120696832,0.0,0.0,0.0,0.0,0.0,0.0,0.0,0.0,0.0
2025/04/10 10:33:52.997396145,1744274032,997004841,mA1/imu,0.705575894630636,0.7086338204626907,0.00029783720757569195,0.0008226211924940645,0.0,0.0,0.0,0.0,0.0,0.0,0.0,0.0,0.0,-0.000966375826578507,7.874557579975719e-05,-2.15396360118154e-05,0.0,0.0,0.0,0.0,0.0,0.0,0.0,0.0,0.0,0.007383554957626126,0.5485781928215889,9.81176592571642,0.0,0.0,0.0,0.0,0.0,0.0,0.0,0.0,0.0
2025/04/10 10:33:53.48971902,1744274033,46889700,mA1/imu,0.7055755260062961,0.7086341921269368,0.0002959771177477123,0.000819296703245344,0.0,0.0,0.0,0.0,0.0,0.0,0.0,0.0,0.0,0.0006178078171185,1.3136862106562276e-05,-2.1549598697809258e-05,0.0,0.0,0.0,0.0,0.0,0.0,0.0,0.0,0.0,0.008368868180977873,0.030365569267111855,9.808470522674204,0.0,0.0,0.0,0.0,0.0,0.0,0.0,0.0,0.0
2025/04/10 10:33:53.98145290,1744274033,97810062,mA1/imu,0.7055751167740272,0.708634594188077,0.0002984269801039148,0.0008230738452482994,0.0,0.0,0.0,0.0,0.0,0.0,0.0,0.0,0.0,0.0007367360830648532,-7.459753563519308e-05,-2.3727004285593356e-05,0.0,0.0,0.0,0.0,0.0,0.0,0.0,0.0,0.0,0.008303980459114913,0.0392261027078226,9.808774137844859,0.0,0.0,0.0,0.0,0.0,0.0,0.0,0.0,0.0
2025/04/10 10:33:53.148000409,1744274033,147636689,mA1/imu,0.7055746816166737,0.7086350203540152,0.0003001066580407714,0.000828568275937285,0.0,0.0,0.0,0.0,0.0,0.0,0.0,0.0,0.0,0.0008745111002834094,-0.00013991017678522796,-2.4282728602868457e-05,0.0,0.0,0.0,0.0,0.0,0.0,0.0,0.0,0.0,0.007907641326980665,-0.5820215446820854,9.809509842193973,0.0,0.0,0.0,0.0,0.0,0.0,0.0,0.0,0.0
2025/04/10 10:33:53.198893804,1744274033,198543993,mA1/imu,0.705574254240566,0.7086354374078081,0.0003014953573399162,0.0008352863359922538,0.0,0.0,0.0,0.0,0.0,0.0,0.0,0.0,0.0,-0.0007010191413750074,-0.00016876556975681172,-2.3744360775079507e-05,0.0,0.0,0.0,0.0,0.0,0.0,0.0,0.0,0.0,0.00824928075602569,-0.062463501205855795,9.809939004451195,0.0,0.0,0.0,0.0,0.0,0.0,0.0,0.0,0.0
2025/04/10 10:33:53.248615606,1744274033,248451133,mA1/imu,0.7055738438152849,0.7086358461567062,0.00029668313999374533,0.0008369256880328324,0.0,0.0,0.0,0.0,0.0,0.0,0.0,0.0,0.0,-0.0008140785461247832,-0.0001778061956678716,-2.3136613035131735e-05,0.0,0.0,0.0,0.0,0.0,0.0,0.0,0.0,0.0,0.006939998571264976,-0.06721184696542949,9.81105006120542,0.0,0.0,0.0,0.0,0.0,0.0,0.0,0.0,0.0
2025/04/10 10:33:53.301105294,1744274033,299430199,mA1/imu,0.705573444560541,0.7086362444329308,0.00029125764784286633,0.0008381980356412948,0.0,0.0,0.0,0.0,0.0,0.0,0.0,0.0,0.0,-0.0009648584363655947,-0.00018071310803443883,-2.2515692418674142e-05,0.0,0.0,0.0,0.0,0.0,0.0,0.0,0.0,0.0,0.0073791439920385515,0.5487184806304524,9.811774018188654,0.0,0.0,0.0,0.0,0.0,0.0,0.0,0.0,0.0
2025/04/10 10:33:53.349465481,1744274033,349254460,mA1/imu,0.7055730457655076,0.7086366433419918,0.00028523654251137964,0.0008387146679617308,0.0,0.0,0.0,0.0,0.0,0.0,0.0,0.0,0.0,0.0006321865767274071,-0.00018030562373816207,-2.3387905227737033e-05,0.0,0.0,0.0,0.0,0.0,0.0,0.0,0.0,0.0,0.007073529616187545,0.030346239382074904,9.80850389868377,0.0,0.0,0.0,0.0,0.0,0.0,0.0,0.0,0.0
2025/04/10 10:33:53.401318378,1744274033,400954029,mA1/imu,0.7055726075189142,0.7086370728955904,0.0002848838806254609,0.0008445579342776877,0.0,0.0,0.0,0.0,0.0,0.0,0.0,0.0,0.0,0.0007620927520747124,-0.00017438999156680498,-2.535780217969386e-05,0.0,0.0,0.0,0.0,0.0,0.0,0.0,0.0,0.0,0.007028498804196759,0.03920410547872226,9.80884342679053,0.0,0.0,0.0,0.0,0.0,0.0,0.0,0.0,0.0
2025/04/10 10:33:53.451150640,1744274033,450908099,mA1/imu,0.7055721353605593,0.70863753595425,0.00028516415433381013,0.0008503651184402251,0.0,0.0,0.0,0.0,0.0,0.0,0.0,0.0,0.0,0.000908430061776348,-0.000159309826669541,-2.727878020368297e-05,0.0,0.0,0.0,0.0,0.0,0.0,0.0,0.0,0.0,0.0074531459802481955,-0.5822085218668439,9.809596623506819,0.0,0.0,0.0,0.0,0.0,0.0,0.0,0.0,0.0
2025/04/10 10:33:53.502664778,1744274033,501953222,mA1/imu,0.7055716300581742,0.7086380318052522,0.0002862786024836628,0.0008560261627077295,0.0,0.0,0.0,0.0,0.0,0.0,0.0,0.0,0.0,-0.0006610911269270295,-0.00011916510813870577,-2.911715998941021e-05,0.0,0.0,0.0,0.0,0.0,0.0,0.0,0.0,0.0,0.007838647343682361,-0.06261834567091919,9.81003638769034,0.0,0.0,0.0,0.0,0.0,0.0,0.0,0.0,0.0
2025/04/10 10:33:53.551999241,1744274033,551732792,mA1/imu,0.7055711209005812,0.7086385407328754,0.0002825567697905107,0.0008556288625783059,0.0,0.0,0.0,0.0,0.0,0.0,0.0,0.0,0.0,-0.0007810847911402286,-6.425870949260653e-05,-2.7814255341569383e-05,0.0,0.0,0.0,0.0,0.0,0.0,0.0,0.0,0.0,0.006568015426946467,-0.06817173540747411,9.811157903232504,0.0,0.0,0.0,0.0,0.0,0.0,0.0,0.0,0.0
2025/04/10 10:33:53.603929180,1744274033,603295388,mA1/imu,0.7055706672099109,0.7086389963239706,0.00027902846247845447,0.0008535836420346535,0.0,0.0,0.0,0.0,0.0,0.0,0.0,0.0,0.0,-0.0009216798334386599,-1.1673909496933035e-05,-2.4506291716949928e-05,0.0,0.0,0.0,0.0,0.0,0.0,0.0,0.0,0.0,0.007094546999806849,0.5482860633435072,9.811910065876903,0.0,0.0,0.0,0.0,0.0,0.0,0.0,0.0,0.0
2025/04/10 10:33:53.655097016,1744274033,653155216,mA1/imu,0.7055702715433888,0.7086393961470098,0.0002757188650772181,0.0008497774397748908,0.0,0.0,0.0,0.0,0.0,0.0,0.0,0.0,0.0,0.0006789962612252126,3.893113533876292e-05,-2.1218984778867745e-05,0.0,0.0,0.0,0.0,0.0,0.0,0.0,0.0,0.0,0.006556261428576304,0.030225015310936233,9.808643113142777,0.0,0.0,0.0,0.0,0.0,0.0,0.0,0.0,0.0
2025/04/10 10:33:53.704854036,1744274033,704135452,mA1/imu,0.7055699250185425,0.7086397391401973,0.000278817287397039,0.000850459617933235,0.0,0.0,0.0,0.0,0.0,0.0,0.0,0.0,0.0,0.0008101769705431654,8.355028461441966e-05,-1.8118760730921756e-05,0.0,0.0,0.0,0.0,0.0,0.0,0.0,0.0,0.0,0.006634359906890085,0.03911169622210328,9.808966764685707,0.0,0.0,0.0,0.0,0.0,0.0,0.0,0.0,0.0
2025/04/10 10:33:53.744243008,1744274033,743914249,mA1/imu,0.7055696384964322,0.7086400226851862,0.00028320371443018915,0.0008504565883575184,0.0,0.0,0.0,0.0,0.0,0.0,0.0,0.0,0.0,0.0009545843311769474,0.0001467277081219934,-1.4044911879196914e-05,0.0,0.0,0.0,0.0,0.0,0.0,0.0,0.0,0.0,0.005283621887517079,-0.5823359288578083,9.809622113411248,0.0,0.0,0.0,0.0,0.0,0.0,0.0,0.0,0.0
2025/04/10 10:33:53.795584227,1744274033,795304994,mA1/imu,0.7055694450913005,0.7086402141341388,0.00028966098810581485,0.0008492125692655431,0.0,0.0,0.0,0.0,0.0,0.0,0.0,0.0,0.0,-0.000620040584447988,0.0002511138225666618,-8.485783388492843e-06,0.0,0.0,0.0,0.0,0.0,0.0,0.0,0.0,0.0,0.005879859102198662,-0.06267651896997661,9.810024709176801,0.0,0.0,0.0,0.0,0.0,0.0,0.0,0.0,0.0
2025/04/10 10:33:53.846703864,1744274033,845081241,mA1/imu,0.7055693441877391,0.7086403233820071,0.0002916999997545071,0.0008411484045344449,0.0,0.0,0.0,0.0,0.0,0.0,0.0,0.0,0.0,-0.0007353021240163797,0.00029332368958624635,-5.110601431874125e-06,0.0,0.0,0.0,0.0,0.0,0.0,0.0,0.0,0.0,0.008335094110929472,-0.06733806930920715,9.811106297855114,0.0,0.0,0.0,0.0,0.0,0.0,0.0,0.0,0.0
2025/04/10 10:33:53.898159802,1744274033,896077656,mA1/imu,0.705569257770404,0.7086404184245899,0.0002927108564653828,0.0008331774708014432,0.0,0.0,0.0,0.0,0.0,0.0,0.0,0.0,0.0,-0.0008878620704083657,0.0002412049769506808,-4.948054996164472e-06,0.0,0.0,0.0,0.0,0.0,0.0,0.0,0.0,0.0,0.008886682800097606,0.5486905539140938,9.811866669881512,0.0,0.0,0.0,0.0,0.0,0.0,0.0,0.0,0.0
2025/04/10 10:33:53.946804159,1744274033,945903935,mA1/imu,0.7055691691798243,0.7086405157117385,0.00029217225480308525,0.000825608907019555,0.0,0.0,0.0,0.0,0.0,0.0,0.0,0.0,0.0,0.0007020507994138535,0.00017912799755180877,-5.776432623090683e-06,0.0,0.0,0.0,0.0,0.0,0.0,0.0,0.0,0.0,0.008023488272111329,0.030260213137219806,9.80859776574921,0.0,0.0,0.0,0.0,0.0,0.0,0.0,0.0,0.0
2025/04/10 10:33:53.998874982,1744274033,996844187,mA1/imu,0.7055690369020302,0.7086406467565561,0.00029626126554503114,0.00082471743878304,0.0,0.0,0.0,0.0,0.0,0.0,0.0,0.0,0.0,0.0008220099326932028,0.00011096733020236565,-8.225497947216158e-06,0.0,0.0,0.0,0.0,0.0,0.0,0.0,0.0,0.0,0.008049371612982055,0.03911475682195136,9.808898639700597,0.0,0.0,0.0,0.0,0.0,0.0,0.0,0.0,0.0
2025/04/10 10:33:54.46947667,1744274034,46657201,mA1/imu,0.7055637850227009,0.7086458689584773,0.0002902852733282338,0.0008327106246281613,0.0,0.0,0.0,0.0,0.0,0.0,0.0,0.0,0.0,0.0010971533536063723,-0.0015326780090569492,-0.0009677342833378347,0.0,0.0,0.0,0.0,0.0,0.0,0.0,0.0,0.0,0.12824411948560374,-0.5538585642803324,9.807211443639574,0.0,0.0,0.0,0.0,0.0,0.0,0.0,0.0,0.0
2025/04/10 10:33:54.97913868,1744274034,97531164,mA1/imu,0.7055300017188252,0.7086794682405029,0.00023773309456672696,0.0008783233848268989,0.0,0.0,0.0,0.0,0.0,0.0,0.0,0.0,0.0,-0.00013700132044259445,-0.002963581466445144,-0.002135468399312975,0.0,0.0,0.0,0.0,0.0,0.0,0.0,0.0,0.0,0.01650639493740473,-0.03194649933619389,9.809776385419429,0.0,0.0,0.0,0.0,0.0,0.0,0.0,0.0,0.0
2025/04/10 10:33:54.147701581,1744274034,147478754,mA1/imu,0.7054905622561495,0.7087187080539762,0.00017298324078477605,0.0009107681390614472,0.0,0.0,0.0,0.0,0.0,0.0,0.0,0.0,0.0,0.00026537699070128235,-0.00246809715927752,-0.0022279629139238437,0.0,0.0,0.0,0.0,0.0,0.0,0.0,0.0,0.0,-0.005556546700038216,0.0024139906487007836,9.81164461785739,0.0,0.0,0.0,0.0,0.0,0.0,0.0,0.0,0.0
2025/04/10 10:33:54.200297141,1744274034,198433006,mA1/imu,0.705449860448263,0.7087592223482587,0.00010782323102693305,0.0009205997875053294,0.0,0.0,0.0,0.0,0.0,0.0,0.0,0.0,0.0,0.0007403009211508351,-0.0019561296160421566,-0.002424042005794869,0.0,0.0,0.0,0.0,0.0,0.0,0.0,0.0,0.0,0.013751492309144442,0.614117863048161,9.814385528077276,0.0,0.0,0.0,0.0,0.0,0.0,0.0,0.0,0.0
2025/04/10 10:33:54.248732831,1744274034,248303724,mA1/imu,0.7054041623202432,0.7088047266370838,3.67037252680641e-05,0.0009088074831110351,0.0,0.0,0.0,0.0,0.0,0.0,0.0,0.0,0.0,0.0024355515953350063,-0.0012922185952014182,-0.002605559450466127,0.0,0.0,0.0,0.0,0.0,0.0,0.0,0.0,0.0,-0.012862988869838263,0.2887819571958838,9.808454765085333,0.0,0.0,0.0,0.0,0.0,0.0,0.0,0.0,0.0
2025/04/10 10:33:54.299694213,1744274034,299309140,mA1/imu,0.7053586752338419,0.7088500433020088,-2.644950964921113e-05,0.0008687252288941699,0.0,0.0,0.0,0.0,0.0,0.0,0.0,0.0,0.0,0.002476319741733947,-0.00020654454563680797,-0.00254742727530418,0.0,0.0,0.0,0.0,0.0,0.0,0.0,0.0,0.0,-0.009047858098844118,0.5360330486711491,9.81072019192292,0.0,0.0,0.0,0.0,0.0,0.0,0.0,0.0,0.0
2025/04/10 10:33:54.349341326,1744274034,349099066,mA1/imu,0.7053148818567938,0.7088937091175344,-9.36289431909399e-05,0.0007860270621212053,0.0,0.0,0.0,0.0,0.0,0.0,0.0,0.0,0.0,0.005594676161844934,0.0008756714389703185,-0.0024410633396976726,0.0,0.0,0.0,0.0,0.0,0.0,0.0,0.0,0.0,-0.01072589577473985,-0.19729035621057148,9.811260176751057,0.0,0.0,0.0,0.0,0.0,0.0,0.0,0.0,0.0
2025/04/10 10:33:54.400303412,1744274034,400072866,mA1/imu,0.70527213514158,0.70893634151494,-0.0001494102627067222,0.0006758319486375572,0.0,0.0,0.0,0.0,0.0,0.0,0.0,0.0,0.0,0.00465326005359305,0.001959617960822654,-0.002401701446017673,0.0,0.0,0.0,0.0,0.0,0.0,0.0,0.0,0.0,-0.01001306463721709,0.7326597720568683,9.811206629036523,0.0,0.0,0.0,0.0,0.0,0.0,0.0,0.0,0.0
2025/04/10 10:33:54.450971576,1744274034,450789664,mA1/imu,0.7052329084424798,0.7089754732814918,-0.0002012139192121361,0.0005316465033032118,0.0,0.0,0.0,0.0,0.0,0.0,0.0,0.0,0.0,0.007163073461906562,0.0030579822844182046,-0.002055900634534688,0.0,0.0,0.0,0.0,0.0,0.0,0.0,0.0,0.0,-0.016480056068473175,-0.12623176500845112,9.81079481471686,0.0,0.0,0.0,0.0,0.0,0.0,0.0,0.0,0.0
2025/04/10 10:33:54.504069569,1744274034,503366787,mA1/imu,0.7051997442806771,0.7090085526389133,-0.0002356306245080213,0.00037071491719795156,0.0,0.0,0.0,0.0,0.0,0.0,0.0,0.0,0.0,0.006673687060153356,0.0037354481387881586,-0.001833975864931676,0.0,0.0,0.0,0.0,0.0,0.0,0.0,0.0,0.0,0.0042747533480533215,-0.45188992193238997,9.809870309355743,0.0,0.0,0.0,0.0,0.0,0.0,0.0,0.0,0.0
2025/04/10 10:33:54.553438183,1744274034,553180700,mA1/imu,-0.7051676248351905,-0.7090405539557963,0.00027131111934774804,-0.00020030134842302988,0.0,0.0,0.0,0.0,0.0,0.0,0.0,0.0,0.0,0.005423545402839352,0.003898864087850738,-0.001800202234490659,0.0,0.0,0.0,0.0,0.0,0.0,0.0,0.0,0.0,-0.002404507652132814,0.08477268722190108,9.810182940556981,0.0,0.0,0.0,0.0,0.0,0.0,0.0,0.0,0.0
2025/04/10 10:33:54.595192161,1744274034,594842194,mA1/imu,-0.7051376400610583,-0.7090703892813766,0.0003013962540504397,-2.781684555100281e-05,0.0,0.0,0.0,0.0,0.0,0.0,0.0,0.0,0.0,0.004886101775547403,0.004170925896548549,-0.0015574147023868243,0.0,0.0,0.0,0.0,0.0,0.0,0.0,0.0,0.0,-0.007130951110607833,0.0751045086961033,9.810714889501106,0.0,0.0,0.0,0.0,0.0,0.0,0.0,0.0,0.0
2025/04/10 10:33:54.647225353,1744274034,644985434,mA1/imu,-0.705111248846077,-0.7090966121300489,0.0003220953532263553,0.00013293229853622384,0.0,0.0,0.0,0.0,0.0,0.0,0.0,0.0,0.0,0.004909137438164565,0.00373657454897779,-0.0014951918095197757,0.0,0.0,0.0,0.0,0.0,0.0,0.0,0.0,0.0,0.011029244915280637,0.1125465168207977,9.811225498452957,0.0,0.0,0.0,0.0,0.0,0.0,0.0,0.0,0.0
2025/04/10 10:33:54.698940276,1744274034,696053391,mA1/imu,-0.7050844210791037,-0.7091232469479737,0.0003321473631884085,0.0002635671404234385,0.0,0.0,0.0,0.0,0.0,0.0,0.0,0.0,0.0,0.002853030148139472,0.003137125520947079,-0.0015633846953271367,0.0,0.0,0.0,0.0,0.0,0.0,0.0,0.0,0.0,0.010405326898871765,0.5288931858906819,9.809397932074235,0.0,0.0,0.0,0.0,0.0,0.0,0.0,0.0,0.0
2025/04/10 10:33:54.746058059,1744274034,745887653,mA1/imu,-0.7050556574157503,-0.709151793823148,0.000343606113038882,0.0003676932073392841,0.0,0.0,0.0,0.0,0.0,0.0,0.0,0.0,0.0,0.001242968447908614,0.0022986142185005896,-0.001644010461377824,0.0,0.0,0.0,0.0,0.0,0.0,0.0,0.0,0.0,0.008124627215079892,0.6388338778800262,9.809363503107232,0.0,0.0,0.0,0.0,0.0,0.0,0.0,0.0,0.0
2025/04/10 10:33:54.797869176,1744274034,797531393,mA1/imu,-0.7050263441514474,-0.7091809011890929,0.00034188665508851833,0.0004319196523508148,0.0,0.0,0.0,0.0,0.0,0.0,0.0,0.0,0.0,0.0006119593925909056,0.001598338004619593,-0.0016551525121953224,0.0,0.0,0.0,0.0,0.0,0.0,0.0,0.0,0.0,-0.0009807364989126936,0.6826545619069104,9.810838492482418,0.0,0.0,0.0,0.0,0.0,0.0,0.0,0.0,0.0
2025/04/10 10:33:54.848451904,1744274034,847646063,mA1/imu,-0.7049966849263892,-0.7092103777195875,0.00032693236757923614,0.00045551385096219876,0.0,0.0,0.0,0.0,0.0,0.0,0.0,0.0,0.0,0.00016358497952335515,0.0007757373844287036,-0.0016856419257181873,0.0,0.0,0.0,0.0,0.0,0.0,0.0,0.0,0.0,-0.0020653430962168395,0.11647788872080939,9.806738329635627,0.0,0.0,0.0,0.0,0.0,0.0,0.0,0.0,0.0
2025/04/10 10:33:54.898682381,1744274034,898516000,mA1/imu,-0.704966705918437,-0.7092401937774183,0.0003064704347254293,0.00044401908820814644,0.0,0.0,0.0,0.0,0.0,0.0,0.0,0.0,0.0,-0.001668652773025882,-0.00016128652007700337,-0.0017102233778396039,0.0,0.0,0.0,0.0,0.0,0.0,0.0,0.0,0.0,0.008556343819822178,0.7157876141249867,9.809284074913753,0.0,0.0,0.0,0.0,0.0,0.0,0.0,0.0,0.0
2025/04/10 10:33:54.948972829,1744274034,948599859,mA1/imu,-0.7049359056748306,-0.709270852752168,0.0002762185651773788,0.0003873369634244686,0.0,0.0,0.0,0.0,0.0,0.0,0.0,0.0,0.0,-0.003600045964686267,-0.0010669278024879128,-0.0017501884412407078,0.0,0.0,0.0,0.0,0.0,0.0,0.0,0.0,0.0,-0.0018275343769726092,0.6670915940514489,9.809062162317352,0.0,0.0,0.0,0.0,0.0,0.0,0.0,0.0,0.0
2025/04/10 10:33:54.999923195,1744274034,999524639,mA1/imu,-0.704904505954593,-0.7093021139517781,0.00024342254832685197,0.0002989547005043329,0.0,0.0,0.0,0.0,0.0,0.0,0.0,0.0,0.0,-0.0035101678586711028,-0.001959339361611573,-0.0017917848283514797,0.0,0.0,0.0,0.0,0.0,0.0,0.0,0.0,0.0,0.007875540675543791,0.12994369286646287,9.808231201653939,0.0,0.0,0.0,0.0,0.0,0.0,0.0,0.0,0.0
2025/04/10 10:33:55.49608573,1744274035,49340397,mA1/imu,-0.7048721964445549,-0.7093342765211778,0.00020339086371206835,0.00017165011724016275,0.0,0.0,0.0,0.0,0.0,0.0,0.0,0.0,0.0,-0.00454983605113356,-0.0027706796882610595,-0.001838764486924664,0.0,0.0,0.0,0.0,0.0,0.0,0.0,0.0,0.0,0.0017392826877021786,0.12496858329400871,9.808231734799906,0.0,0.0,0.0,0.0,0.0,0.0,0.0,0.0,0.0
2025/04/10 10:33:55.102316054,1744274035,100307838,mA1/imu,-0.7048391607630273,-0.7093671354825193,0.0001561281032308116,1.3274484125036008e-05,0.0,0.0,0.0,0.0,0.0,0.0,0.0,0.0,0.0,-0.004740025946992131,-0.0034636866066381842,-0.0018873858706302308,0.0,0.0,0.0,0.0,0.0,0.0,0.0,0.0,0.0,0.0096736762440262,-0.38326011389337006,9.807218372220774,0.0,0.0,0.0,0.0,0.0,0.0,0.0,0.0,0.0
2025/04/10 10:33:55.151300542,1744274035,151124816,mA1/imu,0.7048050876942319,0.7094009786683381,-0.0001088209767406031,0.0001672803791843515,0.0,0.0,0.0,0.0,0.0,0.0,0.0,0.0,0.0,-0.007763472922764028,-0.003891500940720803,-0.0019319998988578616,0.0,0.0,0.0,0.0,0.0,0.0,0.0,0.0,0.0,-0.0012075105267629572,0.6246690044376034,9.809690070093776,0.0,0.0,0.0,0.0,0.0,0.0,0.0,0.0,0.0
2025/04/10 10:33:55.202361646,1744274035,202102147,mA1/imu,0.704771989033915,0.709433798091408,-5.757271189315609e-05,0.00035536482854818443,0.0,0.0,0.0,0.0,0.0,0.0,0.0,0.0,0.0,-0.007082141789031836,-0.0038068799564221134,-0.0017517243150841249,0.0,0.0,0.0,0.0,0.0,0.0,0.0,0.0,0.0,-0.007539351348845253,-0.1757869010386604,9.809736631508978,0.0,0.0,0.0,0.0,0.0,0.0,0.0,0.0,0.0
2025/04/10 10:33:55.252095294,1744274035,251935660,mA1/imu,0.7047417435160794,0.7094637294281437,-6.327275921492667e-06,0.0005399368407683925,0.0,0.0,0.0,0.0,0.0,0.0,0.0,0.0,0.0,-0.006368608653705015,-0.0037785515836534105,-0.0017100334001972635,0.0,0.0,0.0,0.0,0.0,0.0,0.0,0.0,0.0,0.0005265554857577567,0.10369095231769107,9.810944269793104,0.0,0.0,0.0,0.0,0.0,0.0,0.0,0.0,0.0
2025/04/10 10:33:55.304692294,1744274035,302942203,mA1/imu,0.7047111313876033,0.7094939769674999,4.407774350985265e-05,0.0007183330683962938,0.0,0.0,0.0,0.0,0.0,0.0,0.0,0.0,0.0,-0.006536719856830736,-0.0035797500187048446,-0.0017348140273111686,0.0,0.0,0.0,0.0,0.0,0.0,0.0,0.0,0.0,0.007685240405625876,0.704802965859511,9.811018872131955,0.0,0.0,0.0,0.0,0.0,0.0,0.0,0.0,0.0
2025/04/10 10:33:55.353409981,1744274035,353199367,mA1/imu,0.7046820615693586,0.7095226488364987,0.00010209995832952232,0.0008902055917207116,0.0,0.0,0.0,0.0,0.0,0.0,0.0,0.0,0.0,-0.006411364454497822,-0.002663992777884424,-0.0013532892052881646,0.0,0.0,0.0,0.0,0.0,0.0,0.0,0.0,0.0,-0.043760143161622515,0.4120396303270822,9.809033488262187,0.0,0.0,0.0,0.0,0.0,0.0,0.0,0.0,0.0
2025/04/10 10:33:55.394806921,1744274035,394525272,mA1/imu,0.7046645463296843,0.709539855920048,0.0001678746795123297,0.0010206983048929813,0.0,0.0,0.0,0.0,0.0,0.0,0.0,0.0,0.0,-0.0055343804175921165,-0.0016203675114203485,-0.0009440959490382505,0.0,0.0,0.0,0.0,0.0,0.0,0.0,0.0,0.0,0.008211180957680345,0.03673156320030885,9.81153970265479,0.0,0.0,0.0,0.0,0.0,0.0,0.0,0.0,0.0
2025/04/10 10:33:55.446626000,1744274035,444550297,mA1/imu,0.7046475293334165,0.7095565968519073,0.00021718519052830353,0.0011171834426959106,0.0,0.0,0.0,0.0,0.0,0.0,0.0,0.0,0.0,-0.003297121779343491,-0.001162175023440812,-0.0009595985240553813,0.0,0.0,0.0,0.0,0.0,0.0,0.0,0.0,0.0,0.008203147493031925,0.042488084491201034,9.811097947294524,0.0,0.0,0.0,0.0,0.0,0.0,0.0,0.0,0.0
2025/04/10 10:33:55.495793807,1744274035,495435947,mA1/imu,0.7046305948890496,0.7095732845031184,0.0002623352519683164,0.0011873693513386875,0.0,0.0,0.0,0.0,0.0,0.0,0.0,0.0,0.0,-0.0024675508416212573,-0.00047883619216740114,-0.0009505892767078083,0.0,0.0,0.0,0.0,0.0,0.0,0.0,0.0,0.0,0.007363178869635998,0.18604025256629436,9.811597723655783,0.0,0.0,0.0,0.0,0.0,0.0,0.0,0.0,0.0
2025/04/10 10:33:55.545873634,1744274035,545666701,mA1/imu,0.7046131052670627,0.709590564946782,0.00029955483296647536,0.0012297525426097175,0.0,0.0,0.0,0.0,0.0,0.0,0.0,0.0,0.0,-0.0007023754732698402,3.502920363372307e-05,-0.0010398730948383463,0.0,0.0,0.0,0.0,0.0,0.0,0.0,0.0,0.0,0.008313068213724493,-0.5189405870564053,9.809469557718419,0.0,0.0,0.0,0.0,0.0,0.0,0.0,0.0,0.0
2025/04/10 10:33:55.597367633,1744274035,596982880,mA1/imu,0.7045932851674398,0.7096102365126947,0.0003158687339741477,0.0012308372333854351,0.0,0.0,0.0,0.0,0.0,0.0,0.0,0.0,0.0,0.0006935097937254271,0.0006780583791640533,-0.001138893733185975,0.0,0.0,0.0,0.0,0.0,0.0,0.0,0.0,0.0,0.005243716534707449,-0.18806439250750168,9.811257682270124,0.0,0.0,0.0,0.0,0.0,0.0,0.0,0.0,0.0
2025/04/10 10:33:55.647161811,1744274035,646794888,mA1/imu,0.704572668793021,0.7096307562234698,0.00032189776358780423,0.0012002472312147394,0.0,0.0,0.0,0.0,0.0,0.0,0.0,0.0,0.0,0.001452640244286615,0.0012733834826937904,-0.0011765120701238278,0.0,0.0,0.0,0.0,0.0,0.0,0.0,0.0,0.0,0.004733828554286562,-0.5536073105897782,9.811988898082353,0.0,0.0,0.0,0.0,0.0,0.0,0.0,0.0,0.0
2025/04/10 10:33:55.698114159,1744274035,697809412,mA1/imu,0.7045543173259717,0.7096490907486626,0.0003176434279226357,0.0011318301919535628,0.0,0.0,0.0,0.0,0.0,0.0,0.0,0.0,0.0,0.0014171077047958533,0.0020548648969328006,-0.001011354326226096,0.0,0.0,0.0,0.0,0.0,0.0,0.0,0.0,0.0,0.007665410613750054,0.41058346564881304,9.813099815415423,0.0,0.0,0.0,0.0,0.0,0.0,0.0,0.0,0.0
2025/04/10 10:33:55.747991359,1744274035,747662872,mA1/imu,0.7045360055306583,0.7096674333070295,0.00029664121871408747,0.0010310277902725502,0.0,0.0,0.0,0.0,0.0,0.0,0.0,0.0,0.0,0.003063182620054612,0.0024214909759743743,-0.001087887125430312,0.0,0.0,0.0,0.0,0.0,0.0,0.0,0.0,0.0,0.0058037332439260765,0.47614076171472314,9.809791525565924,0.0,0.0,0.0,0.0,0.0,0.0,0.0,0.0,0.0
2025/04/10 10:33:55.801645684,1744274035,800987605,mA1/imu,0.704515376655859,0.7096880928170667,0.0002634189403308934,0.0009086141036884047,0.0,0.0,0.0,0.0,0.0,0.0,0.0,0.0,0.0,0.005215417103955821,0.0026100439536547765,-0.0011893294317301135,0.0,0.0,0.0,0.0,0.0,0.0,0.0,0.0,0.0,0.007151252677289041,0.09668774724866856,9.810602805188658,0.0,0.0,0.0,0.0,0.0,0.0,0.0,0.0,0.0
2025/04/10 10:33:55.849187313,1744274035,848719900,mA1/imu,0.7044940246609833,0.7097094659568032,0.00022031953818955907,0.0007711080211084845,0.0,0.0,0.0,0.0,0.0,0.0,0.0,0.0,0.0,0.006399423566566883,0.00277944839731915,-0.0012150937782282722,0.0,0.0,0.0,0.0,0.0,0.0,0.0,0.0,0.0,-0.0014194442676226538,-0.49539616987083096,9.80968058066492,0.0,0.0,0.0,0.0,0.0,0.0,0.0,0.0,0.0
2025/04/10 10:33:55.900063312,1744274035,899701688,mA1/imu,0.7044723412636436,0.7097311453343924,0.00017492129204638512,0.0006254113796203928,0.0,0.0,0.0,0.0,0.0,0.0,0.0,0.0,0.0,0.0046207522282939424,0.002808375585562944,-0.00124072209538835,0.0,0.0,0.0,0.0,0.0,0.0,0.0,0.0,0.0,0.009338478237691072,0.5229072255215863,9.811033842823093,0.0,0.0,0.0,0.0,0.0,0.0,0.0,0.0,0.0
2025/04/10 10:33:55.952369038,1744274035,949547657,mA1/imu,0.7044500680989714,0.7097533854278747,0.00011329272817779492,0.00046967412442162703,0.0,0.0,0.0,0.0,0.0,0.0,0.0,0.0,0.0,0.006599701083442946,0.002603093087110157,-0.0012684544262911049,0.0,0.0,0.0,0.0,0.0,0.0,0.0,0.0,0.0,0.005878979482805945,-0.5352751348687675,9.809506336350369,0.0,0.0,0.0,0.0,0.0,0.0,0.0,0.0,0.0
2025/04/10 10:33:56.932184,1744274036,532228,mA1/imu,0.7044273917733134,0.7097759836018478,4.5638397249042904e-05,0.0003173934670300619,0.0,0.0,0.0,0.0,0.0,0.0,0.0,0.0,0.0,0.006856062218231418,0.002268550860058136,-0.0012896910723462687,0.0,0.0,0.0,0.0,0.0,0.0,0.0,0.0,0.0,0.007250745842988095,-0.31208641639486245,9.809855120608525,0.0,0.0,0.0,0.0,0.0,0.0,0.0,0.0,0.0
2025/04/10 10:33:56.50738159,1744274036,50556717,mA1/imu,0.7044043360563789,0.7097989136627382,-1.980621296078596e-05,0.0001819776988684728,0.0,0.0,0.0,0.0,0.0,0.0,0.0,0.0,0.0,0.0056288647427220175,0.0018513026524670116,-0.001304486904771718,0.0,0.0,0.0,0.0,0.0,0.0,0.0,0.0,0.0,0.0011887866942749264,0.05270821439191888,9.809065096734946,0.0,0.0,0.0,0.0,0.0,0.0,0.0,0.0,0.0
2025/04/10 10:33:56.101776251,1744274036,101558242,mA1/imu,-0.7043811303246765,-0.7098219579555071,8.767594182433283e-05,-5.966297409025229e-05,0.0,0.0,0.0,0.0,0.0,0.0,0.0,0.0,0.0,0.00608740079999462,0.0012963674174559076,-0.001321381567090918,0.0,0.0,0.0,0.0,0.0,0.0,0.0,0.0,0.0,0.01041638964986345,-0.4159134003460078,9.808381154612919,0.0,0.0,0.0,0.0,0.0,0.0,0.0,0.0,0.0
2025/04/10 10:33:56.153235100,1744274036,151334963,mA1/imu,-0.7043574091772475,-0.7098454881010738,0.0001489329049696871,3.128343795117085e-05,0.0,0.0,0.0,0.0,0.0,0.0,0.0,0.0,0.0,0.0037177159323820547,0.0005697776774214778,-0.0013362598431087946,0.0,0.0,0.0,0.0,0.0,0.0,0.0,0.0,0.0,0.009059781721375348,0.43900661161568344,9.809891098221224,0.0,0.0,0.0,0.0,0.0,0.0,0.0,0.0,0.0
2025/04/10 10:33:56.203936244,1744274036,202258035,mA1/imu,-0.7043336632958922,-0.7098690294132927,0.0002074849877496305,9.369097333624887e-05,0.0,0.0,0.0,0.0,0.0,0.0,0.0,0.0,0.0,0.00293639307031386,-0.00019147862230121433,-0.0013519349252144053,0.0,0.0,0.0,0.0,0.0,0.0,0.0,0.0,0.0,0.011198007086679371,0.009673481576266994,9.809134086923178,0.0,0.0,0.0,0.0,0.0,0.0,0.0,0.0,0.0
2025/04/10 10:33:56.252379737,1744274036,252060482,mA1/imu,-0.7043087873333529,-0.709893689333776,0.00025902402990485605,0.00012180170069778271,0.0,0.0,0.0,0.0,0.0,0.0,0.0,0.0,0.0,0.001998402818093784,-0.0009722274759393268,-0.0014758174895183448,0.0,0.0,0.0,0.0,0.0,0.0,0.0,0.0,0.0,0.01022762432108836,0.05471360010239227,9.810771678282753,0.0,0.0,0.0,0.0,0.0,0.0,0.0,0.0,0.0
2025/04/10 10:33:56.304854377,1744274036,303031690,mA1/imu,-0.7042809702775947,-0.7099212717342644,0.00029946380923264696,0.00011474093137124841,0.0,0.0,0.0,0.0,0.0,0.0,0.0,0.0,0.0,-0.00014898083418588175,-0.001583230659922709,-0.0015986461238067377,0.0,0.0,0.0,0.0,0.0,0.0,0.0,0.0,0.0,0.00839105834723422,0.00662218411517042,9.810727273091983,0.0,0.0,0.0,0.0,0.0,0.0,0.0,0.0,0.0
2025/04/10 10:33:56.353126045,1744274036,352897872,mA1/imu,-0.7042527262014671,-0.7099492827844679,0.00032781859029765484,7.77598411404491e-05,0.0,0.0,0.0,0.0,0.0,0.0,0.0,0.0,0.0,-4.134338763273554e-05,-0.0019145147327253064,-0.0015058131169133865,0.0,0.0,0.0,0.0,0.0,0.0,0.0,0.0,0.0,-0.009191896184727549,-0.5242994497055301,9.807235314502872,0.0,0.0,0.0,0.0,0.0,0.0,0.0,0.0,0.0
2025/04/10 10:33:56.405879898,1744274036,403888029,mA1/imu,-0.7042281613856012,-0.7099736540108306,0.0003274581139219294,9.651352449544897e-06,0.0,0.0,0.0,0.0,0.0,0.0,0.0,0.0,0.0,-0.0029167166103098506,-0.0020771639975828682,-0.0013819257969394953,0.0,0.0,0.0,0.0,0.0,0.0,0.0,0.0,0.0,0.009831050661633693,-0.008181497145154381,9.808547200354862,0.0,0.0,0.0,0.0,0.0,0.0,0.0,0.0,0.0
2025/04/10 10:33:56.445462095,1744274036,444996309,mA1/imu,-0.7042031599668321,-0.7099984497609785,0.0003244304761167398,-7.466325553571977e-05,0.0,0.0,0.0,0.0,0.0,0.0,0.0,0.0,0.0,-0.005162425294048346,-0.002441160302153366,-0.001426589615987523,0.0,0.0,0.0,0.0,0.0,0.0,0.0,0.0,0.0,0.010566461226690957,0.5483148324634134,9.808432466588329,0.0,0.0,0.0,0.0,0.0,0.0,0.0,0.0,0.0
2025/04/10 10:33:56.494951268,1744274036,494606513,mA1/imu,-0.7041773068014108,-0.7100240781209235,0.000309330941226051,-0.00018272606082278683,0.0,0.0,0.0,0.0,0.0,0.0,0.0,0.0,0.0,-0.003298489012799822,-0.0027288233199403837,-0.0014737869777856475,0.0,0.0,0.0,0.0,0.0,0.0,0.0,0.0,0.0,0.00911488653544366,0.11786649677863073,9.808775427789378,0.0,0.0,0.0,0.0,0.0,0.0,0.0,0.0,0.0
2025/04/10 10:33:56.548553376,1744274036,544954057,mA1/imu,0.7041505900653393,0.710050539689422,-0.0002543922139648196,0.00033597916073017654,0.0,0.0,0.0,0.0,0.0,0.0,0.0,0.0,0.0,-0.004724181060879306,-0.0028526387698366035,-0.001518511416445869,0.0,0.0,0.0,0.0,0.0,0.0,0.0,0.0,0.0,0.009222673363144081,-0.5521750519969955,9.807799449655212,0.0,0.0,0.0,0.0,0.0,0.0,0.0,0.0,0.0
2025/04/10 10:33:56.596268701,1744274036,595964869,mA1/imu,0.7041233104399879,0.7100775307224627,-0.0002142390417653314,0.0004670757491994016,0.0,0.0,0.0,0.0,0.0,0.0,0.0,0.0,0.0,-0.0070519229980066205,-0.0024550205363878417,-0.001548251455280048,0.0,0.0,0.0,0.0,0.0,0.0,0.0,0.0,0.0,0.00824464955409525,0.22094078640359868,9.809025593030537,0.0,0.0,0.0,0.0,0.0,0.0,0.0,0.0,0.0
2025/04/10 10:33:56.646257832,1744274036,645796058,mA1/imu,0.7040952675551021,0.7101052329614064,-0.00013584286860278996,0.0006275938582804142,0.0,0.0,0.0,0.0,0.0,0.0,0.0,0.0,0.0,-0.006132191052637496,-0.0022626549035609845,-0.0015911686790060467,0.0,0.0,0.0,0.0,0.0,0.0,0.0,0.0,0.0,0.007800943154317987,-0.24294830225217343,9.809799043737183,0.0,0.0,0.0,0.0,0.0,0.0,0.0,0.0,0.0
2025/04/10 10:33:56.697045771,1744274036,696779013,mA1/imu,0.7040664897250252,0.7101336423918084,-7.059487453737443e-05,0.0007635482877133479,0.0,0.0,0.0,0.0,0.0,0.0,0.0,0.0,0.0,-0.007100306521908084,-0.0018462391222951356,-0.0016309211066048094,0.0,0.0,0.0,0.0,0.0,0.0,0.0,0.0,0.0,0.007374073193589972,-0.018080430135987653,9.80963601696205,0.0,0.0,0.0,0.0,0.0,0.0,0.0,0.0,0.0
2025/04/10 10:33:56.748618735,1744274036,746626166,mA1/imu,0.7040369924690579,0.7101627296261911,1.1137432834922403e-05,0.0009003115896676301,0.0,0.0,0.0,0.0,0.0,0.0,0.0,0.0,0.0,-0.005823980646041148,-0.0013773411116409803,-0.0016688950116693847,0.0,0.0,0.0,0.0,0.0,0.0,0.0,0.0,0.0,0.0061522194852250845,0.2285605275295003,9.810825474732178,0.0,0.0,0.0,0.0,0.0,0.0,0.0,0.0,0.0
2025/04/10 10:33:56.799745904,1744274036,797591257,mA1/imu,0.7040068438839636,0.7101924440333689,9.83866399745053e-05,0.0010229968327352171,0.0,0.0,0.0,0.0,0.0,0.0,0.0,0.0,0.0,-0.006011216326597617,-0.0007889830228271298,-0.0017040602194007552,0.0,0.0,0.0,0.0,0.0,0.0,0.0,0.0,0.0,0.006159325472422549,0.012687498767196916,9.810526348214829,0.0,0.0,0.0,0.0,0.0,0.0,0.0,0.0,0.0
2025/04/10 10:33:56.849256696,1744274036,847413065,mA1/imu,0.7039762207617485,0.7102226313662318,0.00018539111105715645,0.0011225539485883833,0.0,0.0,0.0,0.0,0.0,0.0,0.0,0.0,0.0,-0.004128429556331905,-3.619167979324594e-05,-0.0017146492287944874,0.0,0.0,0.0,0.0,0.0,0.0,0.0,0.0,0.0,-0.005211690448063973,-0.5373699865790977,9.810098870164994,0.0,0.0,0.0,0.0,0.0,0.0,0.0,0.0,0.0
2025/04/10 10:33:56.898561144,1744274036,898367330,mA1/imu,0.703945711415918,0.7102527254123027,0.000275294499189932,0.001194000197677921,0.0,0.0,0.0,0.0,0.0,0.0,0.0,0.0,0.0,-0.004387375033193248,0.0007772285227256822,-0.001717622234022335,0.0,0.0,0.0,0.0,0.0,0.0,0.0,0.0,0.0,0.004847894614459135,0.015240002646410022,9.813056542866853,0.0,0.0,0.0,0.0,0.0,0.0,0.0,0.0,0.0
2025/04/10 10:33:56.949770971,1744274036,949455672,mA1/imu,0.7039148378992928,0.7102832169459482,0.00035711720628166997,0.001234980740046889,0.0,0.0,0.0,0.0,0.0,0.0,0.0,0.0,0.0,-0.004481256152277435,0.0013827919353044998,-0.00174341493591848,0.0,0.0,0.0,0.0,0.0,0.0,0.0,0.0,0.0,0.005335420793755683,0.32740866842102695,9.81174231513066,0.0,0.0,0.0,0.0,0.0,0.0,0.0,0.0,0.0
2025/04/10 10:33:57.2442176,1744274037,616603,mA1/imu,0.7038834814198182,0.7103142331036584,0.00042708096541156594,0.0012459681084941556,0.0,0.0,0.0,0.0,0.0,0.0,0.0,0.0,0.0,-0.002478848988811331,0.0018478466977530363,-0.0017723352467080894,0.0,0.0,0.0,0.0,0.0,0.0,0.0,0.0,0.0,0.006639431229495089,0.22259716577007002,9.812591175037827,0.0,0.0,0.0,0.0,0.0,0.0,0.0,0.0,0.0
2025/04/10 10:33:57.52137035,1744274037,50410159,mA1/imu,0.7038517758917596,0.7103456513991429,0.0004808934069657958,0.0012255014788007871,0.0,0.0,0.0,0.0,0.0,0.0,0.0,0.0,0.0,-0.0002267951113101147,0.0022570513496158215,-0.0017766410671424078,0.0,0.0,0.0,0.0,0.0,0.0,0.0,0.0,0.0,0.004767313946798721,0.05317260459173204,9.81254670087905,0.0,0.0,0.0,0.0,0.0,0.0,0.0,0.0,0.0
2025/04/10 10:33:57.101735482,1744274037,101358881,mA1/imu,0.7038202542250871,0.7103769348956782,0.0005198558969581873,0.0011789234927997731,0.0,0.0,0.0,0.0,0.0,0.0,0.0,0.0,0.0,0.0009446263487363977,0.002491526009792556,-0.0017852450871322328,0.0,0.0,0.0,0.0,0.0,0.0,0.0,0.0,0.0,0.008343909872804004,0.04864677221361298,9.810412396201743,0.0,0.0,0.0,0.0,0.0,0.0,0.0,0.0,0.0
2025/04/10 10:33:57.151465018,1744274037,151153348,mA1/imu,0.7037878272543558,0.7104091497593763,0.0005440770047983438,0.0011127115375519935,0.0,0.0,0.0,0.0,0.0,0.0,0.0,0.0,0.0,0.0005177926310276211,0.0026372914178152927,-0.0018873068912500872,0.0,0.0,0.0,0.0,0.0,0.0,0.0,0.0,0.0,0.0046347200700914745,0.5593711628401141,9.810371674324987,0.0,0.0,0.0,0.0,0.0,0.0,0.0,0.0,0.0
2025/04/10 10:33:57.202541710,1744274037,202110548,mA1/imu,0.7037524711712643,0.7104443063484311,0.0005468093089619275,0.00102366841076578,0.0,0.0,0.0,0.0,0.0,0.0,0.0,0.0,0.0,0.0018945137838859963,0.0025943206101991093,-0.002021809212803283,0.0,0.0,0.0,0.0,0.0,0.0,0.0,0.0,0.0,0.007697188404484789,-0.13251532383546438,9.811720884771251,0.0,0.0,0.0,0.0,0.0,0.0,0.0,0.0,0.0
2025/04/10 10:33:57.252134477,1744274037,251965577,mA1/imu,0.7037159802482964,0.7104806271115591,0.0005199230633228687,0.000909572621350887,0.0,0.0,0.0,0.0,0.0,0.0,0.0,0.0,0.0,0.004221101928148359,0.0023930244580376223,-0.002086331892799283,0.0,0.0,0.0,0.0,0.0,0.0,0.0,0.0,0.0,0.009346516725766292,0.04449778801705774,9.811735399415827,0.0,0.0,0.0,0.0,0.0,0.0,0.0,0.0,0.0
2025/04/10 10:33:57.303628205,1744274037,303050070,mA1/imu,0.7036782271103891,0.7105181940923401,0.0004753789024016511,0.0007890306956058957,0.0,0.0,0.0,0.0,0.0,0.0,0.0,0.0,0.0,0.0050389927711230985,0.002018524762817812,-0.0021582688309186235,0.0,0.0,0.0,0.0,0.0,0.0,0.0,0.0,0.0,0.009629306907845955,0.675507797405853,9.810743014720794,0.0,0.0,0.0,0.0,0.0,0.0,0.0,0.0,0.0
2025/04/10 10:33:57.353070060,1744274037,352891904,mA1/imu,0.7036399613007154,0.710556249028916,0.0004175155232989177,0.0006689599934485643,0.0,0.0,0.0,0.0,0.0,0.0,0.0,0.0,0.0,0.007715629549365959,0.0016994315303113419,-0.002084258663309705,0.0,0.0,0.0,0.0,0.0,0.0,0.0,0.0,0.0,-0.005601455343794409,-0.44028405854525554,9.808588177467264,0.0,0.0,0.0,0.0,0.0,0.0,0.0,0.0,0.0
2025/04/10 10:33:57.404136057,1744274037,403842739,mA1/imu,0.7036051468923977,0.7105908643100074,0.0003509020273151891,0.0005456129136323036,0.0,0.0,0.0,0.0,0.0,0.0,0.0,0.0,0.0,0.007082881085878264,0.0013740052726080787,-0.001967480729908757,0.0,0.0,0.0,0.0,0.0,0.0,0.0,0.0,0.0,0.013291798230252725,-0.5070120864399172,9.808269038939919,0.0,0.0,0.0,0.0,0.0,0.0,0.0,0.0,0.0
2025/04/10 10:33:57.445390919,1744274037,445018607,mA1/imu,0.7035697159739163,0.7106260611547581,0.00026707284580490494,0.0004297023993373151,0.0,0.0,0.0,0.0,0.0,0.0,0.0,0.0,0.0,0.005414885211127808,0.0006345050675854205,-0.0020175792572115227,0.0,0.0,0.0,0.0,0.0,0.0,0.0,0.0,0.0,0.013259578492017208,0.0020300793641307834,9.809982768830446,0.0,0.0,0.0,0.0,0.0,0.0,0.0,0.0,0.0
2025/04/10 10:33:57.494791966,1744274037,494581436,mA1/imu,0.7035334179564755,0.710662079510419,0.0001724676877624076,0.0003298777087802538,0.0,0.0,0.0,0.0,0.0,0.0,0.0,0.0,0.0,0.0035077338233101153,-0.00012584556376625465,-0.002064879787486118,0.0,0.0,0.0,0.0,0.0,0.0,0.0,0.0,0.0,0.0135846917898582,0.5121403378459363,9.810050103600867,0.0,0.0,0.0,0.0,0.0,0.0,0.0,0.0,0.0
2025/04/10 10:33:57.547116596,1744274037,544757309,mA1/imu,0.7034962745455974,0.7106989010335052,6.497012658899319e-05,0.00024402687582137527,0.0,0.0,0.0,0.0,0.0,0.0,0.0,0.0,0.0,0.004561277837474323,-0.000866440428285131,-0.0021105170207732613,0.0,0.0,0.0,0.0,0.0,0.0,0.0,0.0,0.0,0.011719501295717607,-0.008878323346725017,9.80726555136195,0.0,0.0,0.0,0.0,0.0,0.0,0.0,0.0,0.0
2025/04/10 10:33:57.595962592,1744274037,595660233,mA1/imu,0.7034583298524841,0.7107364797658031,-4.5259623133454146e-05,0.00018011894499824128,0.0,0.0,0.0,0.0,0.0,0.0,0.0,0.0,0.0,0.00514389662758207,-0.0015425441279341146,-0.0021542796366610002,0.0,0.0,0.0,0.0,0.0,0.0,0.0,0.0,0.0,0.011211722259701597,-0.04269024709502737,9.80814235344129,0.0,0.0,0.0,0.0,0.0,0.0,0.0,0.0,0.0
2025/04/10 10:33:57.646858065,1744274037,645465072,mA1/imu,0.703419649094398,0.7107747564555975,-0.0001448055697282876,0.00014793494102953192,0.0,0.0,0.0,0.0,0.0,0.0,0.0,0.0,0.0,0.002752782526658356,-0.0020951148937571468,-0.0021885355754406033,0.0,0.0,0.0,0.0,0.0,0.0,0.0,0.0,0.0,0.010532447071762093,0.5998589675415519,9.809500705083947,0.0,0.0,0.0,0.0,0.0,0.0,0.0,0.0,0.0
2025/04/10 10:33:57.698693755,1744274037,698439784,mA1/imu,-0.703383413579689,-0.7108105939399539,0.00023332819703705666,-0.00013638792675344668,0.0,0.0,0.0,0.0,0.0,0.0,0.0,0.0,0.0,0.0014322660743899785,-0.0022894966154967935,-0.0020079400525512066,0.0,0.0,0.0,0.0,0.0,0.0,0.0,0.0,0.0,0.010368374999330104,0.5858165024831925,9.80961465483566,0.0,0.0,0.0,0.0,0.0,0.0,0.0,0.0,0.0
2025/04/10 10:33:57.750083444,1744274037,748246866,mA1/imu,-0.7033477425434055,-0.7108458595427429,0.0003070498054158962,-0.0001508325277181529,0.0,0.0,0.0,0.0,0.0,0.0,0.0,0.0,0.0,0.0005696820847243458,-0.002591206026776373,-0.002006488124769972,0.0,0.0,0.0,0.0,0.0,0.0,0.0,0.0,0.0,0.009837112777554134,-0.019980803391469307,9.809251435508362,0.0,0.0,0.0,0.0,0.0,0.0,0.0,0.0,0.0
2025/04/10 10:33:57.799587687,1744274037,799214119,mA1/imu,-0.703312080880925,-0.7108811064572419,0.0003666513062581015,-0.00018691145084537161,0.0,0.0,0.0,0.0,0.0,0.0,0.0,0.0,0.0,0.0008526736198253,-0.002751591574967731,-0.0020048571715303113,0.0,0.0,0.0,0.0,0.0,0.0,0.0,0.0,0.0,0.009237838976735193,-0.5487922135608468,9.80792706725957,0.0,0.0,0.0,0.0,0.0,0.0,0.0,0.0,0.0
2025/04/10 10:33:57.849671192,1744274037,849075341,mA1/imu,-0.7032763760153458,-0.7109163901402985,0.0004059170538024915,-0.0002457640208558187,0.0,0.0,0.0,0.0,0.0,0.0,0.0,0.0,0.0,-0.0007066710057673762,-0.0027897734714030387,-0.002012264343850094,0.0,0.0,0.0,0.0,0.0,0.0,0.0,0.0,0.0,0.011393157233083418,0.22211828637114597,9.80982904880356,0.0,0.0,0.0,0.0,0.0,0.0,0.0,0.0,0.0
2025/04/10 10:33:57.902086707,1744274037,900055862,mA1/imu,-0.7032404261855562,-0.7109519099089966,0.00042398171051625524,-0.0003240595876952697,0.0,0.0,0.0,0.0,0.0,0.0,0.0,0.0,0.0,-0.001457234887868069,-0.002675855301050984,-0.002025645898327494,0.0,0.0,0.0,0.0,0.0,0.0,0.0,0.0,0.0,0.009276804674983024,0.23167168478802957,9.809705316091284,0.0,0.0,0.0,0.0,0.0,0.0,0.0,0.0,0.0
2025/04/10 10:33:57.955457085,1744274037,950482600,mA1/imu,0.7032050359541371,0.7109868696958827,-0.0004144052684134927,0.00042047242977585945,0.0,0.0,0.0,0.0,0.0,0.0,0.0,0.0,0.0,-0.0012145177541775126,-0.0022303130958473616,-0.001883348883406649,0.0,0.0,0.0,0.0,0.0,0.0,0.0,0.0,0.0,-0.007200468900119817,-0.4551945255816525,9.808507055999307,0.0,0.0,0.0,0.0,0.0,0.0,0.0,0.0,0.0
2025/04/10 10:33:58.1541749,1744274038,1083922,mA1/imu,0.7031742057584359,0.7110173157707558,-0.0003700369541262303,0.0005254548456524627,0.0,0.0,0.0,0.0,0.0,0.0,0.0,0.0,0.0,-0.003968715496194095,-0.0015833154364556852,-0.0017114204333459188,0.0,0.0,0.0,0.0,0.0,0.0,0.0,0.0,0.0,0.011629440254833333,0.04737149156938954,9.81104804792849,0.0,0.0,0.0,0.0,0.0,0.0,0.0,0.0,0.0
2025/04/10 10:33:58.51835830,1744274038,50934357,mA1/imu,0.703143818913114,0.7110473084060404,-0.0003120313182671153,0.0006306895146184384,0.0,0.0,0.0,0.0,0.0,0.0,0.0,0.0,0.0,-0.004504330664630822,-0.0011907307354963135,-0.0016992308485952127,0.0,0.0,0.0,0.0,0.0,0.0,0.0,0.0,0.0,0.010570301441956415,0.05994786721542874,9.811556232800397,0.0,0.0,0.0,0.0,0.0,0.0,0.0,0.0,0.0
2025/04/10 10:33:58.105552888,1744274038,102010718,mA1/imu,0.7031136744702298,0.7110770402207158,-0.00023242550340612833,0.0007413651621301354,0.0,0.0,0.0,0.0,0.0,0.0,0.0,0.0,0.0,-0.0040244040640764825,-0.000725284986752651,-0.001683942541071802,0.0,0.0,0.0,0.0,0.0,0.0,0.0,0.0,0.0,0.009981189513194412,-0.5013769031631528,9.810673657879054,0.0,0.0,0.0,0.0,0.0,0.0,0.0,0.0,0.0
2025/04/10 10:33:58.152625239,1744274038,151790466,mA1/imu,0.703084076488166,0.7111062047134205,-0.00013218092258927703,0.0008541282465026002,0.0,0.0,0.0,0.0,0.0,0.0,0.0,0.0,0.0,-0.005626072245859489,-0.00013744456163816013,-0.0016152282902440053,0.0,0.0,0.0,0.0,0.0,0.0,0.0,0.0,0.0,0.005034494652830845,0.029454408486582435,9.810063623613237,0.0,0.0,0.0,0.0,0.0,0.0,0.0,0.0,0.0
2025/04/10 10:33:58.203162425,1744274038,202754967,mA1/imu,0.7030560294573618,0.7111338210647253,-2.2914286368348595e-05,0.0009526050952968334,0.0,0.0,0.0,0.0,0.0,0.0,0.0,0.0,0.0,-0.006148774747375632,0.0005183228893278108,-0.001554698782732843,0.0,0.0,0.0,0.0,0.0,0.0,0.0,0.0,0.0,0.008534275093626975,-0.0025114072714332233,9.809824181613411,0.0,0.0,0.0,0.0,0.0,0.0,0.0,0.0,0.0
2025/04/10 10:33:58.254707526,1744274038,252881980,mA1/imu,0.7030285610687488,0.7111608553509979,9.12914143214648e-05,0.0010352796332916663,0.0,0.0,0.0,0.0,0.0,0.0,0.0,0.0,0.0,-0.005961090868101796,0.0010908536953691103,-0.0015258389489509361,0.0,0.0,0.0,0.0,0.0,0.0,0.0,0.0,0.0,0.008391530295630802,0.17901500754623711,9.811232725093378,0.0,0.0,0.0,0.0,0.0,0.0,0.0,0.0,0.0
2025/04/10 10:33:58.305030000,1744274038,303854486,mA1/imu,0.7030015851347121,0.7111873978474142,0.00020766826764074278,0.0011015057859032741,0.0,0.0,0.0,0.0,0.0,0.0,0.0,0.0,0.0,-0.0055313779983176305,0.0015880513744163556,-0.0014981128982678817,0.0,0.0,0.0,0.0,0.0,0.0,0.0,0.0,0.0,0.008985101333814893,0.6138181742798592,9.81141483664111,0.0,0.0,0.0,0.0,0.0,0.0,0.0,0.0,0.0
2025/04/10 10:33:58.346734379,1744274038,344695285,mA1/imu,0.7029750731569032,0.7112134778719206,0.00032509982137479,0.001153136366438294,0.0,0.0,0.0,0.0,0.0,0.0,0.0,0.0,0.0,-0.005808229728280873,0.001996979554656328,-0.0014732474440931325,0.0,0.0,0.0,0.0,0.0,0.0,0.0,0.0,0.0,0.009135798997352368,0.5450858733708339,9.810904770627182,0.0,0.0,0.0,0.0,0.0,0.0,0.0,0.0,0.0
2025/04/10 10:33:58.394595131,1744274038,394425468,mA1/imu,0.7029490235950367,0.711239136359659,0.00042377003948501017,0.0011753961478760083,0.0,0.0,0.0,0.0,0.0,0.0,0.0,0.0,0.0,-0.0037478904019648805,0.0022496512431355925,-0.0014486188839730315,0.0,0.0,0.0,0.0,0.0,0.0,0.0,0.0,0.0,0.01021218235714451,0.6195540251618297,9.81177718682084,0.0,0.0,0.0,0.0,0.0,0.0,0.0,0.0,0.0
2025/04/10 10:33:58.444671452,1744274038,444306556,mA1/imu,0.7029233973440753,0.7112643908296166,0.0005142627794250961,0.00118293610619724,0.0,0.0,0.0,0.0,0.0,0.0,0.0,0.0,0.0,-0.0021048660126982725,0.002378003448291144,-0.0014266255880339806,0.0,0.0,0.0,0.0,0.0,0.0,0.0,0.0,0.0,0.009634732129745305,0.17517579473676845,9.810688959640439,0.0,0.0,0.0,0.0,0.0,0.0,0.0,0.0,0.0
2025/04/10 10:33:58.497930838,1744274038,496056467,mA1/imu,0.7028967457064923,0.7112906969540368,0.0005855619308043934,0.0011689393005674244,0.0,0.0,0.0,0.0,0.0,0.0,0.0,0.0,0.0,0.0003055249215166647,0.002391534933717675,-0.0015168801126436632,0.0,0.0,0.0,0.0,0.0,0.0,0.0,0.0,0.0,0.009249220883857323,-0.4768092604977439,9.808791270718162,0.0,0.0,0.0,0.0,0.0,0.0,0.0,0.0,0.0
2025/04/10 10:33:58.546580245,1744274038,545879272,mA1/imu,0.702872080260787,0.711315072668535,0.0006421917582938912,0.0011374419441557606,0.0,0.0,0.0,0.0,0.0,0.0,0.0,0.0,0.0,0.0006050711602452614,0.002774371550675291,-0.0010628815338392732,0.0,0.0,0.0,0.0,0.0,0.0,0.0,0.0,0.0,-0.033076934314115895,-0.15975981615484006,9.810741802248108,0.0,0.0,0.0,0.0,0.0,0.0,0.0,0.0,0.0
2025/04/10 10:33:58.597173496,1744274038,596833213,mA1/imu,0.7028601884558866,0.7113268811659642,0.0006876404544130482,0.0010727371827077752,0.0,0.0,0.0,0.0,0.0,0.0,0.0,0.0,0.0,0.00016635611543283003,0.0029811054883374447,-0.0006137144174915623,0.0,0.0,0.0,0.0,0.0,0.0,0.0,0.0,0.0,0.017545479232144744,-0.06410087146735838,9.811467914902176,0.0,0.0,0.0,0.0,0.0,0.0,0.0,0.0,0.0
2025/04/10 10:33:58.646898132,1744274038,646696189,mA1/imu,0.7028495854422001,0.7113374658365041,0.0006982218170073649,0.0009911747182243871,0.0,0.0,0.0,0.0,0.0,0.0,0.0,0.0,0.0,0.0012796898150050212,0.0023721461637119952,-0.0005839117860205965,0.0,0.0,0.0,0.0,0.0,0.0,0.0,0.0,0.0,0.016054529555234117,-0.06278108425110913,9.809322613393231,0.0,0.0,0.0,0.0,0.0,0.0,0.0,0.0,0.0
2025/04/10 10:33:58.697947991,1744274038,697613041,mA1/imu,0.7028395686060885,0.7113475146435616,0.0006708948555749801,0.0008967229940244804,0.0,0.0,0.0,0.0,0.0,0.0,0.0,0.0,0.0,0.003724612482258837,0.0016219247594373002,-0.0005535004573390735,0.0,0.0,0.0,0.0,0.0,0.0,0.0,0.0,0.0,0.016458475955934873,0.030499479200374498,9.808556974508765,0.0,0.0,0.0,0.0,0.0,0.0,0.0,0.0,0.0
2025/04/10 10:33:58.747860959,1744274038,747465143,mA1/imu,0.7028298179052049,0.7113573065535803,0.0006183284953779334,0.0008044538793729345,0.0,0.0,0.0,0.0,0.0,0.0,0.0,0.0,0.0,0.004524757994839492,0.0008610032964674238,-0.0005824307771007399,0.0,0.0,0.0,0.0,0.0,0.0,0.0,0.0,0.0,0.012795811095149563,0.6465858683668192,9.809459869925359,0.0,0.0,0.0,0.0,0.0,0.0,0.0,0.0,0.0
2025/04/10 10:33:58.798911412,1744274038,798538257,mA1/imu,0.702818793392335,0.7113683519213151,0.000544932631991393,0.0007173476985617952,0.0,0.0,0.0,0.0,0.0,0.0,0.0,0.0,0.0,0.00538322411811517,0.00011070326957716667,-0.0006243639844609921,0.0,0.0,0.0,0.0,0.0,0.0,0.0,0.0,0.0,0.012750917606041112,0.03781844375750866,9.808020297006435,0.0,0.0,0.0,0.0,0.0,0.0,0.0,0.0,0.0
2025/04/10 10:33:58.849706814,1744274038,848341788,mA1/imu,0.7028079489046591,0.7113792153603912,0.0004467240992432497,0.0006319392685432424,0.0,0.0,0.0,0.0,0.0,0.0,0.0,0.0,0.0,0.006319937909899642,-0.0006396253339886473,-0.0006089173181074106,0.0,0.0,0.0,0.0,0.0,0.0,0.0,0.0,0.0,0.013134311143247594,-0.5609422983229126,9.809007591501853,0.0,0.0,0.0,0.0,0.0,0.0,0.0,0.0,0.0
2025/04/10 10:33:58.900838380,1744274038,899336762,mA1/imu,0.7027974013380456,0.7113897726574993,0.0003237657450523801,0.0005469977547375338,0.0,0.0,0.0,0.0,0.0,0.0,0.0,0.0,0.0,0.0069980742444996575,-0.0013070890821157521,-0.0005915064087891355,0.0,0.0,0.0,0.0,0.0,0.0,0.0,0.0,0.0,0.01175882627200121,-0.5279688295438751,9.807987637631582,0.0,0.0,0.0,0.0,0.0,0.0,0.0,0.0,0.0
2025/04/10 10:33:58.951023554,1744274038,949160887,mA1/imu,0.7027871148082069,0.7114000321861558,0.00019351307882086742,0.00047751207415109643,0.0,0.0,0.0,0.0,0.0,0.0,0.0,0.0,0.0,0.005226270200079518,-0.001925256491245855,-0.0005784407670656033,0.0,0.0,0.0,0.0,0.0,0.0,0.0,0.0,0.0,0.012915523780671758,0.6099996613185731,9.810164195537975,0.0,0.0,0.0,0.0,0.0,0.0,0.0,0.0,0.0
2025/04/10 10:33:59.289053,1744274039,49365,mA1/imu,0.7027770164127568,0.7114100667297597,5.849192247893626e-05,0.00042277208672632564,0.0,0.0,0.0,0.0,0.0,0.0,0.0,0.0,0.0,0.004705747692906344,-0.0024260479635843874,-0.0005669644965006612,0.0,0.0,0.0,0.0,0.0,0.0,0.0,0.0,0.0,0.011574927288008255,0.084967797480317,9.809477284861972,0.0,0.0,0.0,0.0,0.0,0.0,0.0,0.0,0.0
2025/04/10 10:33:59.50027187,1744274039,49890137,mA1/imu,0.7027671188304359,0.7114198668934641,-8.044982868725476e-05,0.00037842816893609004,0.0,0.0,0.0,0.0,0.0,0.0,0.0,0.0,0.0,0.004843903067183956,-0.002762643648097619,-0.0005542367157826473,0.0,0.0,0.0,0.0,0.0,0.0,0.0,0.0,0.0,0.010833767438084941,0.014612045584450693,9.80875750801751,0.0,0.0,0.0,0.0,0.0,0.0,0.0,0.0,0.0
2025/04/10 10:33:59.102785962,1744274039,101074294,mA1/imu,0.7027574394034491,0.7114294166655953,-0.00021419517857257858,0.00034725550213022914,0.0,0.0,0.0,0.0,0.0,0.0,0.0,0.0,0.0,0.00439273921902624,-0.002914279063614195,-0.0005403692564086334,0.0,0.0,0.0,0.0,0.0,0.0,0.0,0.0,0.0,0.009346621131274324,0.3957088871988032,9.808688499876762,0.0,0.0,0.0,0.0,0.0,0.0,0.0,0.0,0.0
2025/04/10 10:33:59.152781190,1744274039,152406596,mA1/imu,0.7027453577033679,0.7114413089907994,-0.00032773615071785223,0.00034449504903605647,0.0,0.0,0.0,0.0,0.0,0.0,0.0,0.0,0.0,0.004006445142298661,-0.003566877536164319,-0.001022513464443359,0.0,0.0,0.0,0.0,0.0,0.0,0.0,0.0,0.0,0.061856030039832054,-0.436970300771009,9.812055490934563,0.0,0.0,0.0,0.0,0.0,0.0,0.0,0.0,0.0
2025/04/10 10:33:59.203669713,1744274039,203418412,mA1/imu,-0.7027194476406002,-0.7114668282087482,0.0004396813166573454,-0.00037006298508934993,0.0,0.0,0.0,0.0,0.0,0.0,0.0,0.0,0.0,0.0015628994421704291,-0.0037378795610797997,-0.0015116487578407094,0.0,0.0,0.0,0.0,0.0,0.0,0.0,0.0,0.0,0.002199794370321858,0.6168841677016378,9.810144659731296,0.0,0.0,0.0,0.0,0.0,0.0,0.0,0.0,0.0
2025/04/10 10:33:59.253646963,1744274039,253272440,mA1/imu,-0.7026929809971945,-0.7114928944982768,0.0005164917693625421,-0.00041081868579028423,0.0,0.0,0.0,0.0,0.0,0.0,0.0,0.0,0.0,0.00013413556414362652,-0.002913247262189625,-0.0013985906971054106,0.0,0.0,0.0,0.0,0.0,0.0,0.0,0.0,0.0,-0.013185239561063457,-0.026875876701671988,9.809851048432702,0.0,0.0,0.0,0.0,0.0,0.0,0.0,0.0,0.0
2025/04/10 10:33:59.295970728,1744274039,294491926,mA1/imu,-0.7026702720860762,-0.7115152652497033,0.0005595897550194862,-0.0004504469225587007,0.0,0.0,0.0,0.0,0.0,0.0,0.0,0.0,0.0,-0.0009456394696853898,-0.002052846233983863,-0.001267867522752924,0.0,0.0,0.0,0.0,0.0,0.0,0.0,0.0,0.0,0.006912938464240105,-0.020950516905696378,9.810033362055982,0.0,0.0,0.0,0.0,0.0,0.0,0.0,0.0,0.0
2025/04/10 10:33:59.344354876,1744274039,343956728,mA1/imu,-0.7026474790948704,-0.71153773494997,0.000570096940694501,-0.0004968434041251648,0.0,0.0,0.0,0.0,0.0,0.0,0.0,0.0,0.0,-0.0008740604803793034,-0.0013210737871289758,-0.001285890720641153,0.0,0.0,0.0,0.0,0.0,0.0,0.0,0.0,0.0,0.006634543435773634,-0.3529227016138568,9.81019856106679,0.0,0.0,0.0,0.0,0.0,0.0,0.0,0.0,0.0
2025/04/10 10:33:59.395039672,1744274039,394830307,mA1/imu,-0.7026243841425637,-0.7115605206568556,0.0005459764724042147,-0.0005496912946896313,0.0,0.0,0.0,0.0,0.0,0.0,0.0,0.0,0.0,-0.0010909516301410651,-0.0005016323586518865,-0.0013027774678813799,0.0,0.0,0.0,0.0,0.0,0.0,0.0,0.0,0.0,0.005473698051960053,-0.4976546813934311,9.808878221488252,0.0,0.0,0.0,0.0,0.0,0.0,0.0,0.0,0.0
2025/04/10 10:33:59.445000874,1744274039,444796850,mA1/imu,0.7026009758471987,0.7115836286894432,-0.000482426037471256,0.0006126865812351415,0.0,0.0,0.0,0.0,0.0,0.0,0.0,0.0,0.0,-0.0031164674395731695,0.000295779181681584,-0.0013213651081641219,0.0,0.0,0.0,0.0,0.0,0.0,0.0,0.0,0.0,0.007910015707500788,-0.1929064879026159,9.811605867799726,0.0,0.0,0.0,0.0,0.0,0.0,0.0,0.0,0.0
2025/04/10 10:33:59.496033892,1744274039,495708024,mA1/imu,0.7025771610333916,0.7116071404247609,-0.0003883627960867488,0.0006779860565343278,0.0,0.0,0.0,0.0,0.0,0.0,0.0,0.0,0.0,-0.004634347237730284,0.0010844024822171173,-0.0013443576252524076,0.0,0.0,0.0,0.0,0.0,0.0,0.0,0.0,0.0,0.008177713603989176,-0.6166181359176337,9.811363761079145,0.0,0.0,0.0,0.0,0.0,0.0,0.0,0.0,0.0
2025/04/10 10:33:59.545844168,1744274039,545596858,mA1/imu,0.7025529308953625,0.7116310520441915,-0.0002673873059188382,0.0007440166945248861,0.0,0.0,0.0,0.0,0.0,0.0,0.0,0.0,0.0,-0.006890609077318743,0.0018100990435129425,-0.0013641239824504295,0.0,0.0,0.0,0.0,0.0,0.0,0.0,0.0,0.0,0.007068711187551917,-0.09563257159047363,9.81029103045164,0.0,0.0,0.0,0.0,0.0,0.0,0.0,0.0,0.0
2025/04/10 10:33:59.596872355,1744274039,596679076,mA1/imu,0.7025283879143497,0.7116552624479631,-0.0001380802907052201,0.0007953228395126293,0.0,0.0,0.0,0.0,0.0,0.0,0.0,0.0,0.0,-0.007130905728496324,0.0024244345375659293,-0.0013814913207619171,0.0,0.0,0.0,0.0,0.0,0.0,0.0,0.0,0.0,0.008213693713418728,0.541033900802062,9.810508301727223,0.0,0.0,0.0,0.0,0.0,0.0,0.0,0.0,0.0
2025/04/10 10:33:59.646864841,1744274039,646549093,mA1/imu,0.7025057442875581,0.7116775704820314,1.565253508766716e-05,0.0008453820294634777,0.0,0.0,0.0,0.0,0.0,0.0,0.0,0.0,0.0,-0.005612437353340933,0.0035087868736403314,-0.0009786999813176326,0.0,0.0,0.0,0.0,0.0,0.0,0.0,0.0,0.0,-0.041419042822375594,0.02309431068278802,9.809828737335565,0.0,0.0,0.0,0.0,0.0,0.0,0.0,0.0,0.0
2025/04/10 10:33:59.697799266,1744274039,697572186,mA1/imu,0.702494820704902,0.71168829336941,0.0001934733742382734,0.000873230655588093,0.0,0.0,0.0,0.0,0.0,0.0,0.0,0.0,0.0,-0.006271907393623244,0.004315710837069783,-0.0005640208843694189,0.0,0.0,0.0,0.0,0.0,0.0,0.0,0.0,0.0,0.011884276956014477,0.528820613879386,9.81009411472882,0.0,0.0,0.0,0.0,0.0,0.0,0.0,0.0,0.0
2025/04/10 10:33:59.748536571,1744274039,747776974,mA1/imu,0.7024839760310593,0.711698895964867,0.00037078635852521284,0.0008985652228840546,0.0,0.0,0.0,0.0,0.0,0.0,0.0,0.0,0.0,-0.0074153816001703374,0.004112983137288848,-0.0006952464829308835,0.0,0.0,0.0,0.0,0.0,0.0,0.0,0.0,0.0,0.026310457733675324,0.49488001062669745,9.809791450573577,0.0,0.0,0.0,0.0,0.0,0.0,0.0,0.0,0.0
2025/04/10 10:33:59.799205730,1744274039,798834267,mA1/imu,0.7024687378347718,0.7117138171324594,0.0005216483566505254,0.0009180144654512058,0.0,0.0,0.0,0.0,0.0,0.0,0.0,0.0,0.0,-0.005260805793377878,0.0035838621821625265,-0.0008637707377766922,0.0,0.0,0.0,0.0,0.0,0.0,0.0,0.0,0.0,0.008473400197808378,-0.027227814496695202,9.810732114705871,0.0,0.0,0.0,0.0,0.0,0.0,0.0,0.0,0.0
2025/04/10 10:33:59.849021621,1744274039,848667952,mA1/imu,0.702453102822479,0.7117291239757938,0.0006538150849121713,0.0009300244919993904,0.0,0.0,0.0,0.0,0.0,0.0,0.0,0.0,0.0,-0.0036235038088173045,0.0031709361890148737,-0.0008829242218074047,0.0,0.0,0.0,0.0,0.0,0.0,0.0,0.0,0.0,0.01275702334739658,0.025782990249195295,9.810565747559028,0.0,0.0,0.0,0.0,0.0,0.0,0.0,0.0,0.0
2025/04/10 10:33:59.899865101,1744274039,899608715,mA1/imu,0.7024369101911558,0.7117449887923394,0.0007608367429122964,0.0009376873387841531,0.0,0.0,0.0,0.0,0.0,0.0,0.0,0.0,0.0,-0.002673833241166505,0.002510616993602698,-0.000916428190968981,0.0,0.0,0.0,0.0,0.0,0.0,0.0,0.0,0.0,0.012949343279618287,0.022878538578716037,9.808600338866672,0.0,0.0,0.0,0.0,0.0,0.0,0.0,0.0,0.0
2025/04/10 10:33:59.951293437,1744274039,950274999,mA1/imu,0.7024201542515237,0.7117614198064673,0.0008433982221280691,0.0009470247020307196,0.0,0.0,0.0,0.0,0.0,0.0,0.0,0.0,0.0,-0.0028836084029293376,0.0017347878313078774,-0.000948832070423547,0.0,0.0,0.0,0.0,0.0,0.0,0.0,0.0,0.0,0.012965181795014095,-0.06974429675322,9.808547850761528,0.0,0.0,0.0,0.0,0.0,0.0,0.0,0.0,0.0
2025/04/10 10:34:00.1993485,1744274040,1290473,mA1/imu,0.7024028805415367,0.7117784491546032,0.0008725250820614996,0.0009335020091092443,0.0,0.0,0.0,0.0,0.0,0.0,0.0,0.0,0.0,-0.0008977526279664887,0.0008589603906626075,-0.0009821463088962189,0.0,0.0,0.0,0.0,0.0,0.0,0.0,0.0,0.0,0.013617082222352944,-0.02188853100945552,9.810542222820043,0.0,0.0,0.0,0.0,0.0,0.0,0.0,0.0,0.0
2025/04/10 10:34:00.51277092,1744274040,51114187,mA1/imu,0.7023858714848746,0.7117952420979752,0.0008757705302385637,0.0009240622796311335,0.0,0.0,0.0,0.0,0.0,0.0,0.0,0.0,0.0,0.0009697879816414208,0.0001438817248509985,-0.0008583671223065747,0.0,0.0,0.0,0.0,0.0,0.0,0.0,0.0,0.0,-0.004226569990652236,0.02067730602655935,9.811488014780114,0.0,0.0,0.0,0.0,0.0,0.0,0.0,0.0,0.0
2025/04/10 10:34:00.102516793,1744274040,102106526,mA1/imu,0.7023729777408908,0.711808027280059,0.0008460199812709822,0.0009037086123625911,0.0,0.0,0.0,0.0,0.0,0.0,0.0,0.0,0.0,0.001868868067901674,-0.000642511035744404,-0.0007167999901869384,0.0,0.0,0.0,0.0,0.0,0.0,0.0,0.0,0.0,0.016055870838751738,0.0010888922453883322,9.80870818941534,0.0,0.0,0.0,0.0,0.0,0.0,0.0,0.0,0.0
2025/04/10 10:34:00.152258070,1744274040,152041923,mA1/imu,0.7023601957034591,0.7118207420730437,0.0007803077186998581,0.0008819103379398839,0.0,0.0,0.0,0.0,0.0,0.0,0.0,0.0,0.0,0.002223541965811225,-0.0015878158529989356,-0.0007245276941394348,0.0,0.0,0.0,0.0,0.0,0.0,0.0,0.0,0.0,0.014229218056885313,-0.04987404118520369,9.808946633297628,0.0,0.0,0.0,0.0,0.0,0.0,0.0,0.0,0.0
2025/04/10 10:34:00.203372512,1744274040,203033032,mA1/imu,0.7023473745267189,0.7118335342503662,0.0006763326923764953,0.0008529866040787548,0.0,0.0,0.0,0.0,0.0,0.0,0.0,0.0,0.0,0.0029453590426294376,-0.0024112120674656856,-0.0007285918854352805,0.0,0.0,0.0,0.0,0.0,0.0,0.0,0.0,0.0,0.014382112562819977,-0.07301411613080906,9.810958245429372,0.0,0.0,0.0,0.0,0.0,0.0,0.0,0.0,0.0
2025/04/10 10:34:00.254642686,1744274040,253621599,mA1/imu,0.7023345443568357,0.7118463537232385,0.000538386665634602,0.0008164764566769987,0.0,0.0,0.0,0.0,0.0,0.0,0.0,0.0,0.0,0.00514404745866123,-0.003078867276575257,-0.0007287888616147774,0.0,0.0,0.0,0.0,0.0,0.0,0.0,0.0,0.0,0.012568225600984133,0.02636430616985796,9.811316034221878,0.0,0.0,0.0,0.0,0.0,0.0,0.0,0.0,0.0
2025/04/10 10:34:00.296344701,1744274040,294397223,mA1/imu,0.7023217357214409,0.7118591299624951,0.0003833161287097556,0.000782106774920909,0.0,0.0,0.0,0.0,0.0,0.0,0.0,0.0,0.0,0.005683105235687739,-0.0035417591632793664,-0.0007276381667708468,0.0,0.0,0.0,0.0,0.0,0.0,0.0,0.0,0.0,0.010729926160842033,0.6539737060940566,9.810888593539087,0.0,0.0,0.0,0.0,0.0,0.0,0.0,0.0,0.0
2025/04/10 10:34:00.345181438,1744274040,344792863,mA1/imu,0.7023089610467613,0.7118718348802635,0.00022061624506808825,0.0007518418039759761,0.0,0.0,0.0,0.0,0.0,0.0,0.0,0.0,0.0,0.006177096198438869,-0.003786186605443919,-0.0007218660440464222,0.0,0.0,0.0,0.0,0.0,0.0,0.0,0.0,0.0,0.009761948672579578,0.03625867069357262,9.809136156376145,0.0,0.0,0.0,0.0,0.0,0.0,0.0,0.0,0.0
2025/04/10 10:34:00.396038871,1744274040,395734878,mA1/imu,0.7022963657505147,0.7118843279011698,5.147132490746788e-05,0.0007181176933205541,0.0,0.0,0.0,0.0,0.0,0.0,0.0,0.0,0.0,0.006984946702148833,-0.003771480719891781,-0.0007093135598312733,0.0,0.0,0.0,0.0,0.0,0.0,0.0,0.0,0.0,0.008381287233208093,-0.5421429654846807,9.809239384443881,0.0,0.0,0.0,0.0,0.0,0.0,0.0,0.0,0.0
2025/04/10 10:34:00.447491528,1744274040,445587571,mA1/imu,0.7022839731744801,0.7118965810618905,-0.00011448350967315879,0.0006824867640555955,0.0,0.0,0.0,0.0,0.0,0.0,0.0,0.0,0.0,0.006277400122942681,-0.003539726755087077,-0.0006977797662999048,0.0,0.0,0.0,0.0,0.0,0.0,0.0,0.0,0.0,0.007850366871463024,-0.3695075462638312,9.810060830662575,0.0,0.0,0.0,0.0,0.0,0.0,0.0,0.0,0.0
2025/04/10 10:34:00.496760370,1744274040,496516272,mA1/imu,0.7022701745179021,0.7119101842313643,-0.00026143696109499567,0.0006505543600587274,0.0,0.0,0.0,0.0,0.0,0.0,0.0,0.0,0.0,0.004475754549077395,-0.003002849141110365,-0.0008045371113567962,0.0,0.0,0.0,0.0,0.0,0.0,0.0,0.0,0.0,0.005925560610336579,-0.039370447285323656,9.810340655637512,0.0,0.0,0.0,0.0,0.0,0.0,0.0,0.0,0.0
2025/04/10 10:34:00.546560425,1744274040,546381850,mA1/imu,0.7022557199376668,0.7119244169168619,-0.0003955343280383479,0.0006098893432570598,0.0,0.0,0.0,0.0,0.0,0.0,0.0,0.0,0.0,0.002662834579998736,-0.002311121522835056,-0.0008228842849462521,0.0,0.0,0.0,0.0,0.0,0.0,0.0,0.0,0.0,0.005178834241690328,0.45823755447417325,9.811663118107518,0.0,0.0,0.0,0.0,0.0,0.0,0.0,0.0,0.0
2025/04/10 10:34:00.601227773,1744274040,598573005,mA1/imu,0.7022409238408421,0.7119389777623281,-0.0005123577598655535,0.0005606384021337158,0.0,0.0,0.0,0.0,0.0,0.0,0.0,0.0,0.0,0.004339711899835111,-0.0015338442369479182,-0.0008411862808343731,0.0,0.0,0.0,0.0,0.0,0.0,0.0,0.0,0.0,0.003871409263732398,0.6927745843145228,9.810665649644108,0.0,0.0,0.0,0.0,0.0,0.0,0.0,0.0,0.0
2025/04/10 10:34:00.648838935,1744274040,648551264,mA1/imu,-0.7022282719307513,-0.711951433685956,0.000566922199237546,-0.0005373759231381717,0.0,0.0,0.0,0.0,0.0,0.0,0.0,0.0,0.0,0.0038467558675120994,-0.00021330031030829876,-0.00038891230730394866,0.0,0.0,0.0,0.0,0.0,0.0,0.0,0.0,0.0,-0.03687543960902216,-0.5266728643253307,9.811463281242894,0.0,0.0,0.0,0.0,0.0,0.0,0.0,0.0,0.0
2025/04/10 10:34:00.699917945,1744274040,699369107,mA1/imu,-0.7022292097880031,-0.7119505314651668,0.0005842152728473028,-0.00048616817875690526,0.0,0.0,0.0,0.0,0.0,0.0,0.0,0.0,0.0,0.0008982072392050549,0.0013195462560860495,0.00010709309086794012,0.0,0.0,0.0,0.0,0.0,0.0,0.0,0.0,0.0,0.011831877370968262,-0.027415314718643884,9.809696439904096,0.0,0.0,0.0,0.0,0.0,0.0,0.0,0.0,0.0
2025/04/10 10:34:00.749952435,1744274040,749245507,mA1/imu,-0.7022310863875972,-0.711948722168883,0.0005676880604368762,-0.0004427677219143613,0.0,0.0,0.0,0.0,0.0,0.0,0.0,0.0,0.0,-0.0006906183121141369,0.0019772023539469333,6.71664987488316e-05,0.0,0.0,0.0,0.0,0.0,0.0,0.0,0.0,0.0,0.007729637434063662,0.4210033914305399,9.80863725503811,0.0,0.0,0.0,0.0,0.0,0.0,0.0,0.0,0.0
2025/04/10 10:34:00.800521422,1744274040,800211967,mA1/imu,-0.7022311542132765,-0.7119487127115385,0.0005172491148224915,-0.00041106450336091685,0.0,0.0,0.0,0.0,0.0,0.0,0.0,0.0,0.0,-0.00033660422120797257,0.002539125082495324,-1.4990275991283719e-06,0.0,0.0,0.0,0.0,0.0,0.0,0.0,0.0,0.0,0.008653655832779935,-0.5671779795369557,9.809278244518293,0.0,0.0,0.0,0.0,0.0,0.0,0.0,0.0,0.0
2025/04/10 10:34:00.851473448,1744274040,851113994,mA1/imu,-0.7022311804871385,-0.711948751678065,0.0004364036841521664,-0.0003920299852068067,0.0,0.0,0.0,0.0,0.0,0.0,0.0,0.0,0.0,-0.0026477945803257885,0.002958975321168097,-8.6188041862104e-07,0.0,0.0,0.0,0.0,0.0,0.0,0.0,0.0,0.0,0.010610602010611633,-0.015452687603801463,9.809531219062867,0.0,0.0,0.0,0.0,0.0,0.0,0.0,0.0,0.0
2025/04/10 10:34:00.902409308,1744274040,902176724,mA1/imu,0.7022311016584043,0.7119488885453145,-0.00032715161068295356,0.00039106845809460625,0.0,0.0,0.0,0.0,0.0,0.0,0.0,0.0,0.0,-0.00486465333400391,0.0031651144278191136,-6.870950023356518e-06,0.0,0.0,0.0,0.0,0.0,0.0,0.0,0.0,0.0,0.012181408034634258,0.26339111860123327,9.80948136700531,0.0,0.0,0.0,0.0,0.0,0.0,0.0,0.0,0.0
2025/04/10 10:34:00.952130675,1744274040,951912700,mA1/imu,0.7022309855828436,0.71194904391189,-0.0002032511609708297,0.0004005611809098223,0.0,0.0,0.0,0.0,0.0,0.0,0.0,0.0,0.0,-0.005394898614980265,0.0032452637200843354,-7.632688307299152e-07,0.0,0.0,0.0,0.0,0.0,0.0,0.0,0.0,0.0,0.009414074124034867,0.5615319944906733,9.81023878188689,0.0,0.0,0.0,0.0,0.0,0.0,0.0,0.0,0.0
2025/04/10 10:34:01.4641529,1744274041,4358587,mA1/imu,0.7022310818870968,0.7119489602644775,-6.393813268489818e-05,0.000426053896191519,0.0,0.0,0.0,0.0,0.0,0.0,0.0,0.0,0.0,-0.005004948246871358,0.00313098846300061,1.2718414272620387e-05,0.0,0.0,0.0,0.0,0.0,0.0,0.0,0.0,0.0,0.011149703296849393,-0.45369021180348895,9.808849988497041,0.0,0.0,0.0,0.0,0.0,0.0,0.0,0.0,0.0
2025/04/10 10:34:01.45998190,1744274041,44237155,mA1/imu,0.7022313786308757,0.7119486423562028,8.056657491375925e-05,0.0004637050424157813,0.0,0.0,0.0,0.0,0.0,0.0,0.0,0.0,0.0,-0.004749994104520719,0.002877953034546152,2.332731617870716e-05,0.0,0.0,0.0,0.0,0.0,0.0,0.0,0.0,0.0,0.008791598125264264,-0.567756303872237,9.807061486733735,0.0,0.0,0.0,0.0,0.0,0.0,0.0,0.0,0.0
2025/04/10 10:34:01.95614685,1744274041,95213919,mA1/imu,0.7022230380078033,0.7119567924129997,0.00022289290021810626,0.0005300441861183643,0.0,0.0,0.0,0.0,0.0,0.0,0.0,0.0,0.0,-0.006107034128006081,0.0018834236207298449,-0.0005674090561217658,0.0,0.0,0.0,0.0,0.0,0.0,0.0,0.0,0.0,0.007091654731972805,-0.1952403719035443,9.807670145285789,0.0,0.0,0.0,0.0,0.0,0.0,0.0,0.0,0.0
2025/04/10 10:34:01.146559287,1744274041,145082838,mA1/imu,0.7022123420006775,0.7119672326876272,0.00035377021944332305,0.0006009722768863372,0.0,0.0,0.0,0.0,0.0,0.0,0.0,0.0,0.0,-0.00665607777727498,0.0014903993144464377,-0.0006189506984389583,0.0,0.0,0.0,0.0,0.0,0.0,0.0,0.0,0.0,0.008364803177821262,-0.04962966840947247,9.809569417617581,0.0,0.0,0.0,0.0,0.0,0.0,0.0,0.0,0.0
2025/04/10 10:34:01.196331050,1744274041,196033750,mA1/imu,0.7022005382386578,0.7119787417257696,0.000469963543969401,0.0006742122784388201,0.0,0.0,0.0,0.0,0.0,0.0,0.0,0.0,0.0,-0.005950972580604494,0.0009752422559913995,-0.0006838261962214912,0.0,0.0,0.0,0.0,0.0,0.0,0.0,0.0,0.0,0.00923673187480441,0.10360810862851474,9.809966200628892,0.0,0.0,0.0,0.0,0.0,0.0,0.0,0.0,0.0
2025/04/10 10:34:01.247344058,1744274041,245894128,mA1/imu,0.7021875281963552,0.7119914186331882,0.0005723297977542459,0.000753310557325782,0.0,0.0,0.0,0.0,0.0,0.0,0.0,0.0,0.0,-0.005753799609568015,0.00037880861492253743,-0.0007559025855531053,0.0,0.0,0.0,0.0,0.0,0.0,0.0,0.0,0.0,0.011606921966806473,0.584689998319345,9.809124954440444,0.0,0.0,0.0,0.0,0.0,0.0,0.0,0.0,0.0
2025/04/10 10:34:01.297218246,1744274041,296856394,mA1/imu,0.7021760091387406,0.7120026209069932,0.0006560815851779989,0.0008304026235434023,0.0,0.0,0.0,0.0,0.0,0.0,0.0,0.0,0.0,-0.0044730547628865445,-8.217749527095894e-05,-0.0006342566243065978,0.0,0.0,0.0,0.0,0.0,0.0,0.0,0.0,0.0,0.01266243313335525,0.6218376770495355,9.810277123457151,0.0,0.0,0.0,0.0,0.0,0.0,0.0,0.0,0.0
2025/04/10 10:34:01.349694295,1744274041,346754294,mA1/imu,0.702164177497965,0.7120141455669575,0.0007128106669066783,0.0009034667203354962,0.0,0.0,0.0,0.0,0.0,0.0,0.0,0.0,0.0,-0.0029635985386584187,-0.0007423053830865159,-0.0006733801272456456,0.0,0.0,0.0,0.0,0.0,0.0,0.0,0.0,0.0,0.010212474197809088,-0.20751742094525508,9.810307916731661,0.0,0.0,0.0,0.0,0.0,0.0,0.0,0.0,0.0
2025/04/10 10:34:01.399648407,1744274041,399431939,mA1/imu,0.702151841505737,0.7120261982958935,0.0007395035139568362,0.0009682690494408472,0.0,0.0,0.0,0.0,0.0,0.0,0.0,0.0,0.0,-0.0027691649548093576,-0.0013164970129770873,-0.0007024773961805019,0.0,0.0,0.0,0.0,0.0,0.0,0.0,0.0,0.0,0.009818077957779675,0.5970924094266653,9.811053918907223,0.0,0.0,0.0,0.0,0.0,0.0,0.0,0.0,0.0
2025/04/10 10:34:01.450129450,1744274041,449261567,mA1/imu,0.7021389856120696,0.712038791011954,0.0007414973179551948,0.0010272096262925988,0.0,0.0,0.0,0.0,0.0,0.0,0.0,0.0,0.0,-0.0022217294156476925,-0.0018065876853639354,-0.0007350793752223798,0.0,0.0,0.0,0.0,0.0,0.0,0.0,0.0,0.0,0.009628535082687274,0.2974337341872997,9.810788399975344,0.0,0.0,0.0,0.0,0.0,0.0,0.0,0.0,0.0
2025/04/10 10:34:01.504731927,1744274041,501725659,mA1/imu,0.7021255756373324,0.7120519881384757,0.0007086906916712997,0.0010676991581068114,0.0,0.0,0.0,0.0,0.0,0.0,0.0,0.0,0.0,0.0005978571335149534,-0.002226136082306599,-0.000768014726547523,0.0,0.0,0.0,0.0,0.0,0.0,0.0,0.0,0.0,0.009680323092499872,-0.5962654739261005,9.810470085047015,0.0,0.0,0.0,0.0,0.0,0.0,0.0,0.0,0.0
2025/04/10 10:34:01.551844100,1744274041,551599265,mA1/imu,0.7021115948172011,0.7120657891494133,0.0006500011372995455,0.0010944609592086576,0.0,0.0,0.0,0.0,0.0,0.0,0.0,0.0,0.0,0.0014035382790397813,-0.0025224643580074257,-0.0008049411809139523,0.0,0.0,0.0,0.0,0.0,0.0,0.0,0.0,0.0,0.010061164859870318,-0.2919739633772106,9.812390569360359,0.0,0.0,0.0,0.0,0.0,0.0,0.0,0.0,0.0
2025/04/10 10:34:01.604198284,1744274041,602448531,mA1/imu,0.702096970320811,0.7120802685825625,0.0005653936901497424,0.0011025841007520913,0.0,0.0,0.0,0.0,0.0,0.0,0.0,0.0,0.0,0.0024782254844991744,-0.0026528083585680624,-0.0008418441583549817,0.0,0.0,0.0,0.0,0.0,0.0,0.0,0.0,0.0,0.009471767454878363,-0.629458728982346,9.812391584240087,0.0,0.0,0.0,0.0,0.0,0.0,0.0,0.0,0.0
2025/04/10 10:34:01.652596569,1744274041,652331210,mA1/imu,0.7020817444056285,0.7120953664388253,0.00046291046617876597,0.0010949806413739827,0.0,0.0,0.0,0.0,0.0,0.0,0.0,0.0,0.0,0.0031652504517283003,-0.002637416219630863,-0.0008739264405816345,0.0,0.0,0.0,0.0,0.0,0.0,0.0,0.0,0.0,0.008198601370104582,-0.12047299430035291,9.810732657932196,0.0,0.0,0.0,0.0,0.0,0.0,0.0,0.0,0.0
2025/04/10 10:34:01.703626733,1744274041,703281186,mA1/imu,0.702066004535053,0.7121109971278454,0.00034293221167874073,0.0010655718046987798,0.0,0.0,0.0,0.0,0.0,0.0,0.0,0.0,0.0,0.003630855709591114,-0.0024371289943454777,-0.0009033675447032839,0.0,0.0,0.0,0.0,0.0,0.0,0.0,0.0,0.0,0.007376826219930802,-0.04624403796854047,9.810457772473125,0.0,0.0,0.0,0.0,0.0,0.0,0.0,0.0,0.0
2025/04/10 10:34:01.753766246,1744274041,753116550,mA1/imu,0.702049716977056,0.7121271726461551,0.0002149811979017179,0.0010191440100755134,0.0,0.0,0.0,0.0,0.0,0.0,0.0,0.0,0.0,0.00410005366159169,-0.002129275868246706,-0.0009381037293723387,0.0,0.0,0.0,0.0,0.0,0.0,0.0,0.0,0.0,0.007699225066165294,0.573605043397048,9.81132260659697,0.0,0.0,0.0,0.0,0.0,0.0,0.0,0.0,0.0
2025/04/10 10:34:01.805834735,1744274041,804047728,mA1/imu,0.7020327699911393,0.712143992285958,8.467220776856748e-05,0.0009575699464684517,0.0,0.0,0.0,0.0,0.0,0.0,0.0,0.0,0.0,0.006043968998963991,-0.001727957870282538,-0.000974933779363531,0.0,0.0,0.0,0.0,0.0,0.0,0.0,0.0,0.0,0.006671703761985484,0.05236623822533566,9.80993163166213,0.0,0.0,0.0,0.0,0.0,0.0,0.0,0.0,0.0
2025/04/10 10:34:01.845878497,1744274041,843810277,mA1/imu,0.7020151748187411,0.7121614302287818,-3.5742663147670956e-05,0.000889011344512157,0.0,0.0,0.0,0.0,0.0,0.0,0.0,0.0,0.0,0.006297657157210814,-0.0012258259734684738,-0.0010087394208211573,0.0,0.0,0.0,0.0,0.0,0.0,0.0,0.0,0.0,0.007299081265087835,0.058096552570230615,9.812279864909197,0.0,0.0,0.0,0.0,0.0,0.0,0.0,0.0,0.0
2025/04/10 10:34:01.894994925,1744274041,894717734,mA1/imu,0.7019969840121133,0.7121794404823317,-0.00014566401918243179,0.0008110327758037414,0.0,0.0,0.0,0.0,0.0,0.0,0.0,0.0,0.0,0.0063354815713927495,-0.0006357511579502487,-0.0010403855999460384,0.0,0.0,0.0,0.0,0.0,0.0,0.0,0.0,0.0,0.006636494024774491,-0.559640081082546,9.81095438808939,0.0,0.0,0.0,0.0,0.0,0.0,0.0,0.0,0.0
2025/04/10 10:34:01.944884925,1744274041,944728922,mA1/imu,0.7019782528493017,0.7121979683598159,-0.00023958980886287738,0.0007273152797386926,0.0,0.0,0.0,0.0,0.0,0.0,0.0,0.0,0.0,0.004390307294613646,1.4416534276512223e-05,-0.0010659077004192444,0.0,0.0,0.0,0.0,0.0,0.0,0.0,0.0,0.0,0.004747684695297261,-0.04006660148548514,9.808409963148028,0.0,0.0,0.0,0.0,0.0,0.0,0.0,0.0,0.0
2025/04/10 10:34:01.995952190,1744274041,995669095,mA1/imu,0.7019572431067033,0.7122187337635345,-0.0003174005863278586,0.0006351245328797836,0.0,0.0,0.0,0.0,0.0,0.0,0.0,0.0,0.0,0.003626741709576364,0.0007411156615101782,-0.0012218744425156708,0.0,0.0,0.0,0.0,0.0,0.0,0.0,0.0,0.0,0.003789740209783978,-0.04985127213238921,9.808214252319624,0.0,0.0,0.0,0.0,0.0,0.0,0.0,0.0,0.0
2025/04/10 10:34:02.45832913,1744274042,45553410,mA1/imu,0.7019350053003967,0.7122407018264785,-0.00037301556695799984,0.0005402361003418827,0.0,0.0,0.0,0.0,0.0,0.0,0.0,0.0,0.0,0.0039029523091666297,0.0013791150665049166,-0.0012791058041463636,0.0,0.0,0.0,0.0,0.0,0.0,0.0,0.0,0.0,0.00789409728721022,-0.439712394977894,9.808018116873262,0.0,0.0,0.0,0.0,0.0,0.0,0.0,0.0,0.0
2025/04/10 10:34:02.96945367,1744274042,96729621,mA1/imu,0.7019191163457925,0.7122564166358168,-0.00039421463458889466,0.0004423395407761048,0.0,0.0,0.0,0.0,0.0,0.0,0.0,0.0,0.0,0.004457115234799295,0.0024122031104708026,-0.0008304284060003602,0.0,0.0,0.0,0.0,0.0,0.0,0.0,0.0,0.0,0.012016218839056615,-0.5031348603505729,9.807107890564215,0.0,0.0,0.0,0.0,0.0,0.0,0.0,0.0,0.0
2025/04/10 10:34:02.147073554,1744274042,146603096,mA1/imu,-0.7019042414279072,-0.7122711256680274,0.00038339551281289206,-0.0003638859656385636,0.0,0.0,0.0,0.0,0.0,0.0,0.0,0.0,0.0,0.0019914953145820026,0.0025923180420730635,-0.0008399363051935741,0.0,0.0,0.0,0.0,0.0,0.0,0.0,0.0,0.0,0.012321592741441562,0.02646523913731018,9.810049237580401,0.0,0.0,0.0,0.0,0.0,0.0,0.0,0.0,0.0
2025/04/10 10:34:02.197700493,1744274042,197511014,mA1/imu,-0.7018893032777053,-0.7122858912660444,0.0003532266663234605,-0.0003004639691839374,0.0,0.0,0.0,0.0,0.0,0.0,0.0,0.0,0.0,-0.0008115104113962894,0.002667957409170715,-0.000841626358954097,0.0,0.0,0.0,0.0,0.0,0.0,0.0,0.0,0.0,0.012944020185874462,0.16932937004817608,9.809736693701684,0.0,0.0,0.0,0.0,0.0,0.0,0.0,0.0,0.0
2025/04/10 10:34:02.247808817,1744274042,247499834,mA1/imu,-0.7018744093854548,-0.712300607227183,0.0003063640404886516,-0.0002540367692331819,0.0,0.0,0.0,0.0,0.0,0.0,0.0,0.0,0.0,-0.0007468087659869348,0.0026201178826145825,-0.0008301923730178322,0.0,0.0,0.0,0.0,0.0,0.0,0.0,0.0,0.0,0.009820377381460837,-0.42345686193212834,9.807711421991652,0.0,0.0,0.0,0.0,0.0,0.0,0.0,0.0,0.0
2025/04/10 10:34:02.300512838,1744274042,298452780,mA1/imu,-0.7018598366622376,-0.7123149995342926,0.0002458147197653488,-0.000225153373739327,0.0,0.0,0.0,0.0,0.0,0.0,0.0,0.0,0.0,-0.0004057502149925895,0.0024370863816168676,-0.0008117539261561355,0.0,0.0,0.0,0.0,0.0,0.0,0.0,0.0,0.0,0.01070121978579923,-0.529112886272302,9.80770340848834,0.0,0.0,0.0,0.0,0.0,0.0,0.0,0.0,0.0
2025/04/10 10:34:02.348611027,1744274042,348265352,mA1/imu,0.7018451951906667,0.7123294489485587,-0.0001614971321045296,0.00022818215073833257,0.0,0.0,0.0,0.0,0.0,0.0,0.0,0.0,0.0,-0.0031810825899111373,0.0021936987623789447,-0.0008668509428639794,0.0,0.0,0.0,0.0,0.0,0.0,0.0,0.0,0.0,0.007509598443124778,0.33152722397009776,9.808094674158584,0.0,0.0,0.0,0.0,0.0,0.0,0.0,0.0,0.0
2025/04/10 10:34:02.399533279,1744274042,399251315,mA1/imu,0.7018284702945231,0.7123459348624304,-6.796392710136481e-05,0.0002504993503377925,0.0,0.0,0.0,0.0,0.0,0.0,0.0,0.0,0.0,-0.0035949441703824496,0.0018454511722320434,-0.0009513925889916707,0.0,0.0,0.0,0.0,0.0,0.0,0.0,0.0,0.0,0.009076477634440095,0.018193459431609035,9.808658254856846,0.0,0.0,0.0,0.0,0.0,0.0,0.0,0.0,0.0
2025/04/10 10:34:02.449966435,1744274042,449678987,mA1/imu,0.7018112830892133,0.7123628524731653,3.520133942276488e-05,0.00029682626752866766,0.0,0.0,0.0,0.0,0.0,0.0,0.0,0.0,0.0,-0.003519766793152342,0.0013671911586631686,-0.0009747170906673036,0.0,0.0,0.0,0.0,0.0,0.0,0.0,0.0,0.0,0.010181025843201758,-0.5547293297431874,9.809224517590831,0.0,0.0,0.0,0.0,0.0,0.0,0.0,0.0,0.0
2025/04/10 10:34:02.500660255,1744274042,500461425,mA1/imu,0.7017935908928613,0.7123802383630536,0.00014042897876873176,0.00036338850299233753,0.0,0.0,0.0,0.0,0.0,0.0,0.0,0.0,0.0,-0.005013259297194238,0.0008197359641990448,-0.0010019641213627809,0.0,0.0,0.0,0.0,0.0,0.0,0.0,0.0,0.0,0.01118366941487018,-0.6231291735825317,9.810195715820502,0.0,0.0,0.0,0.0,0.0,0.0,0.0,0.0,0.0
2025/04/10 10:34:02.550797835,1744274042,550331006,mA1/imu,0.7017755506254636,0.7123979424435277,0.00023425017170546216,0.0004396287212077201,0.0,0.0,0.0,0.0,0.0,0.0,0.0,0.0,0.0,-0.0046810748700512475,0.00023345725824719152,-0.0009995968757932157,0.0,0.0,0.0,0.0,0.0,0.0,0.0,0.0,0.0,0.008429884027034606,0.04797609044270268,9.809621401386707,0.0,0.0,0.0,0.0,0.0,0.0,0.0,0.0,0.0
2025/04/10 10:34:02.603268197,1744274042,601273536,mA1/imu,0.7017578006564243,0.71241532833934,0.0003249605042076137,0.0005325088537195885,0.0,0.0,0.0,0.0,0.0,0.0,0.0,0.0,0.0,-0.005337003300278631,-0.00034345997384510374,-0.001006021697582523,0.0,0.0,0.0,0.0,0.0,0.0,0.0,0.0,0.0,0.010732284862482379,0.6413027730476789,9.810767867905886,0.0,0.0,0.0,0.0,0.0,0.0,0.0,0.0,0.0
2025/04/10 10:34:02.651424669,1744274042,651207735,mA1/imu,0.70173935081199,0.7124333657380116,0.0004114315679174243,0.0006431401404060197,0.0,0.0,0.0,0.0,0.0,0.0,0.0,0.0,0.0,-0.004772927289318447,-0.0009800822737870362,-0.0010495986772640065,0.0,0.0,0.0,0.0,0.0,0.0,0.0,0.0,0.0,0.011556318665120111,-0.0019302907020238656,9.811346891562591,0.0,0.0,0.0,0.0,0.0,0.0,0.0,0.0,0.0
2025/04/10 10:34:02.702398189,1744274042,702169562,mA1/imu,0.7017200903190683,0.712452188642689,0.0004760920178012488,0.0007530453048341353,0.0,0.0,0.0,0.0,0.0,0.0,0.0,0.0,0.0,-0.004361487264439414,-0.0015405531512198848,-0.0010956524155929246,0.0,0.0,0.0,0.0,0.0,0.0,0.0,0.0,0.0,0.011574866745590672,-0.5934899428590179,9.810579874482421,0.0,0.0,0.0,0.0,0.0,0.0,0.0,0.0,0.0
2025/04/10 10:34:02.752198893,1744274042,752035988,mA1/imu,0.7017000577374992,0.7124717699930955,0.0005181825428911349,0.0008587321749688929,0.0,0.0,0.0,0.0,0.0,0.0,0.0,0.0,0.0,-0.002988579864466838,-0.002017658864389649,-0.0011368063702408844,0.0,0.0,0.0,0.0,0.0,0.0,0.0,0.0,0.0,0.011027909371553839,-0.5418383040334599,9.810886035041923,0.0,0.0,0.0,0.0,0.0,0.0,0.0,0.0,0.0
2025/04/10 10:34:02.803410977,1744274042,803003903,mA1/imu,0.7016793453534846,0.7124920203730748,0.000542746073463476,0.0009605392749425292,0.0,0.0,0.0,0.0,0.0,0.0,0.0,0.0,0.0,-0.0029918156315520647,-0.0023304639848969765,-0.0011750091728878287,0.0,0.0,0.0,0.0,0.0,0.0,0.0,0.0,0.0,0.009139696836405949,0.21755294804146455,9.812354901214825,0.0,0.0,0.0,0.0,0.0,0.0,0.0,0.0,0.0
2025/04/10 10:34:02.854585776,1744274042,852807296,mA1/imu,0.7016576471338778,0.7125132442820296,0.0005532622504896365,0.0010568075178506368,0.0,0.0,0.0,0.0,0.0,0.0,0.0,0.0,0.0,-0.003577923901987144,-0.002485220079288755,-0.0012782483044926868,0.0,0.0,0.0,0.0,0.0,0.0,0.0,0.0,0.0,0.006908361142009304,0.5486417971042712,9.813805253558739,0.0,0.0,0.0,0.0,0.0,0.0,0.0,0.0,0.0
2025/04/10 10:34:02.904132365,1744274042,903786452,mA1/imu,0.7016329536983367,0.7125374585957659,0.0005394482029165164,0.0011302115161503812,0.0,0.0,0.0,0.0,0.0,0.0,0.0,0.0,0.0,-0.0015110617483078033,-0.0024273352121175224,-0.0014157011194935076,0.0,0.0,0.0,0.0,0.0,0.0,0.0,0.0,0.0,0.004651937178837181,-0.0008360501834671213,9.810836299336293,0.0,0.0,0.0,0.0,0.0,0.0,0.0,0.0,0.0
2025/04/10 10:34:02.953758401,1744274042,953619615,mA1/imu,0.7016071212320505,0.7125628464039051,0.0005037691205163169,0.0011762558875037976,0.0,0.0,0.0,0.0,0.0,0.0,0.0,0.0,0.0,0.0008631857643749363,-0.0022232153728620487,-0.0014775388356468237,0.0,0.0,0.0,0.0,0.0,0.0,0.0,0.0,0.0,0.005513595941431726,0.0850561627910212,9.810813188526952,0.0,0.0,0.0,0.0,0.0,0.0,0.0,0.0,0.0
2025/04/10 10:34:02.994859326,1744274042,994497278,mA1/imu,0.7015801250099806,0.7125893938956892,0.0004663647927147686,0.0012109509628729638,0.0,0.0,0.0,0.0,0.0,0.0,0.0,0.0,0.0,0.0005131493572043692,-0.0019077598503428439,-0.0015433882721644263,0.0,0.0,0.0,0.0,0.0,0.0,0.0,0.0,0.0,0.004408595595231803,0.6155778086897409,9.812048831759336,0.0,0.0,0.0,0.0,0.0,0.0,0.0,0.0,0.0
2025/04/10 10:34:03.47716226,1744274043,44401104,mA1/imu,0.7015520101409121,0.7126170984965644,0.0004126883662339309,0.0012156010428850568,0.0,0.0,0.0,0.0,0.0,0.0,0.0,0.0,0.0,0.0014783098021824773,-0.0014340826818633997,-0.001605752556804157,0.0,0.0,0.0,0.0,0.0,0.0,0.0,0.0,0.0,0.003144039594269288,-0.019824972065910572,9.81083277334553,0.0,0.0,0.0,0.0,0.0,0.0,0.0,0.0,0.0
2025/04/10 10:34:03.95900835,1744274043,95372286,mA1/imu,0.7015229037267052,0.7126458331807568,0.0003453652691632419,0.0011885788940563474,0.0,0.0,0.0,0.0,0.0,0.0,0.0,0.0,0.0,0.003925560681326003,-0.0008957379078726186,-0.0016608689910026255,0.0,0.0,0.0,0.0,0.0,0.0,0.0,0.0,0.0,0.00350701765766831,-0.5515643387233956,9.809011373453503,0.0,0.0,0.0,0.0,0.0,0.0,0.0,0.0,0.0
2025/04/10 10:34:03.146758476,1744274043,145212866,mA1/imu,0.7014927785431244,0.7126756038974094,0.00027239824106051587,0.0011362484360493844,0.0,0.0,0.0,0.0,0.0,0.0,0.0,0.0,0.0,0.004377784128477795,-0.00034631479011516976,-0.0017254369160600595,0.0,0.0,0.0,0.0,0.0,0.0,0.0,0.0,0.0,0.006470869179147937,0.04926802779783565,9.8099251121679,0.0,0.0,0.0,0.0,0.0,0.0,0.0,0.0,0.0
2025/04/10 10:34:03.196588597,1744274043,196184797,mA1/imu,0.7014613208423771,0.7127067015367898,0.00019865570125329794,0.0010646513651467967,0.0,0.0,0.0,0.0,0.0,0.0,0.0,0.0,0.0,0.003919581146479328,0.00018507971291173962,-0.0018029852987050418,0.0,0.0,0.0,0.0,0.0,0.0,0.0,0.0,0.0,0.005801513505479776,0.6035338732872845,9.810414941259072,0.0,0.0,0.0,0.0,0.0,0.0,0.0,0.0,0.0
2025/04/10 10:34:03.246235707,1744274043,246020074,mA1/imu,0.7014293820164246,0.7127382765990448,0.00012994013909309207,0.0009768470917492999,0.0,0.0,0.0,0.0,0.0,0.0,0.0,0.0,0.0,0.003145364316164887,0.0009834828414652674,-0.0017118542166361926,0.0,0.0,0.0,0.0,0.0,0.0,0.0,0.0,0.0,-0.01446051051514975,0.5126742722964361,9.81072571586755,0.0,0.0,0.0,0.0,0.0,0.0,0.0,0.0,0.0
2025/04/10 10:34:03.298909786,1744274043,297005850,mA1/imu,0.7014014446171557,0.7127659312547163,5.961786991918853e-05,0.0008585902826984512,0.0,0.0,0.0,0.0,0.0,0.0,0.0,0.0,0.0,0.004605331652873189,0.0015687187289168411,-0.0015716660364737747,0.0,0.0,0.0,0.0,0.0,0.0,0.0,0.0,0.0,0.00925340050056438,-0.025986676319801297,9.808087059737439,0.0,0.0,0.0,0.0,0.0,0.0,0.0,0.0,0.0
2025/04/10 10:34:03.347333687,1744274043,346805704,mA1/imu,0.7013731637957541,0.7127939001843744,-3.884047014247752e-06,0.0007354943894458004,0.0,0.0,0.0,0.0,0.0,0.0,0.0,0.0,0.0,0.00497321882278189,0.0018304964908917043,-0.0016055095779548261,0.0,0.0,0.0,0.0,0.0,0.0,0.0,0.0,0.0,0.009129998209213666,0.5605793770889522,9.809050804240059,0.0,0.0,0.0,0.0,0.0,0.0,0.0,0.0,0.0
2025/04/10 10:34:03.397840855,1744274043,397676643,mA1/imu,0.7013442990504175,0.7128224118964075,-5.622301301226742e-05,0.0006165441099829092,0.0,0.0,0.0,0.0,0.0,0.0,0.0,0.0,0.0,0.005063299083714321,0.001967270700417094,-0.0016375477052045827,0.0,0.0,0.0,0.0,0.0,0.0,0.0,0.0,0.0,0.009260029547589426,0.024979160642319607,9.80784159256836,0.0,0.0,0.0,0.0,0.0,0.0,0.0,0.0,0.0
2025/04/10 10:34:03.448038976,1744274043,447607837,mA1/imu,0.7013149076813626,0.7128514160668029,-0.00010450846838779186,0.0004979492099848848,0.0,0.0,0.0,0.0,0.0,0.0,0.0,0.0,0.0,0.004447537994679009,0.002058604204390332,-0.001661181108907047,0.0,0.0,0.0,0.0,0.0,0.0,0.0,0.0,0.0,0.008320708762999816,0.009589050091966186,9.8101551419191,0.0,0.0,0.0,0.0,0.0,0.0,0.0,0.0,0.0
2025/04/10 10:34:03.498754063,1744274043,498512067,mA1/imu,0.7012851735321232,0.712880729602974,-0.0001436639745623825,0.00038743439933598055,0.0,0.0,0.0,0.0,0.0,0.0,0.0,0.0,0.0,0.004306285329131829,0.0020370461640225397,-0.0016781007682992823,0.0,0.0,0.0,0.0,0.0,0.0,0.0,0.0,0.0,0.008712872200144403,0.04691902212447605,9.809382597367959,0.0,0.0,0.0,0.0,0.0,0.0,0.0,0.0,0.0
2025/04/10 10:34:03.550378050,1744274043,548500166,mA1/imu,0.7012550404953628,0.7129104095442858,-0.00016523820961535855,0.00029805969176121937,0.0,0.0,0.0,0.0,0.0,0.0,0.0,0.0,0.0,0.003867839039572132,0.0018462065732985486,-0.0017063718256040432,0.0,0.0,0.0,0.0,0.0,0.0,0.0,0.0,0.0,0.01115145243173895,-0.20289811580939446,9.807757388445859,0.0,0.0,0.0,0.0,0.0,0.0,0.0,0.0,0.0
2025/04/10 10:34:03.599725609,1744274043,599531723,mA1/imu,0.7012242598223273,0.7129407086260744,-0.0001748950709844434,0.0002298523311797862,0.0,0.0,0.0,0.0,0.0,0.0,0.0,0.0,0.0,0.0014643592449801635,0.0015361571754282394,-0.0017421947376981654,0.0,0.0,0.0,0.0,0.0,0.0,0.0,0.0,0.0,0.01174179633475594,0.19356391365510023,9.809241793611996,0.0,0.0,0.0,0.0,0.0,0.0,0.0,0.0,0.0
2025/04/10 10:34:03.651236342,1744274043,649602105,mA1/imu,-0.701192866594605,-0.71297159791443,0.00017881319750619106,-0.00018008338466625834,0.0,0.0,0.0,0.0,0.0,0.0,0.0,0.0,0.0,0.00048472240015626645,0.0011638422515063244,-0.0017744873095501487,0.0,0.0,0.0,0.0,0.0,0.0,0.0,0.0,0.0,0.010977295651701222,0.4743349637836256,9.807526591613446,0.0,0.0,0.0,0.0,0.0,0.0,0.0,0.0,0.0
2025/04/10 10:34:03.701713108,1744274043,700455846,mA1/imu,0.7011608991466757,0.7130030433959688,-0.0001594117367156661,0.00016793989968371368,0.0,0.0,0.0,0.0,0.0,0.0,0.0,0.0,0.0,-0.0012911450700821303,0.0007038329787626413,-0.0018061858311989617,0.0,0.0,0.0,0.0,0.0,0.0,0.0,0.0,0.0,0.01185726465951168,0.22036740872930297,9.809615859768847,0.0,0.0,0.0,0.0,0.0,0.0,0.0,0.0,0.0
2025/04/10 10:34:03.750563253,1744274043,750319689,mA1/imu,0.7011283928394031,0.7130350109367732,-0.00013260206452431566,0.00017985973358413825,0.0,0.0,0.0,0.0,0.0,0.0,0.0,0.0,0.0,-0.001378305785820328,0.00020486290909256104,-0.0018336131854885002,0.0,0.0,0.0,0.0,0.0,0.0,0.0,0.0,0.0,0.011937468290216677,0.007085697315622538,9.810157799893078,0.0,0.0,0.0,0.0,0.0,0.0,0.0,0.0,0.0
2025/04/10 10:34:03.801555543,1744274043,801266395,mA1/imu,0.7010954508466726,0.7130673958347832,-9.277765356933537e-05,0.00022179226399454485,0.0,0.0,0.0,0.0,0.0,0.0,0.0,0.0,0.0,-0.0029355374071715077,-0.00027047329431276684,-0.0018561529138381517,0.0,0.0,0.0,0.0,0.0,0.0,0.0,0.0,0.0,0.011131931876840504,-0.017825291926029024,9.808622747971956,0.0,0.0,0.0,0.0,0.0,0.0,0.0,0.0,0.0
2025/04/10 10:34:03.851325269,1744274043,851108637,mA1/imu,0.7010621215554171,0.7131001421103011,-3.657156162453174e-05,0.00029615031093270305,0.0,0.0,0.0,0.0,0.0,0.0,0.0,0.0,0.0,-0.0060096053397765085,-0.0007076106229078925,-0.0018748083978457012,0.0,0.0,0.0,0.0,0.0,0.0,0.0,0.0,0.0,0.010287148769117183,0.4673852518644264,9.810014117580739,0.0,0.0,0.0,0.0,0.0,0.0,0.0,0.0,0.0
2025/04/10 10:34:03.902605632,1744274043,902230385,mA1/imu,0.7010285586197823,0.7131330964247257,1.6282632867288906e-05,0.0003827767356272166,0.0,0.0,0.0,0.0,0.0,0.0,0.0,0.0,0.0,-0.004485001126235997,-0.0011295492518281272,-0.0018863418853028303,0.0,0.0,0.0,0.0,0.0,0.0,0.0,0.0,0.0,0.009655751657857857,0.005914206594400058,9.812428371216098,0.0,0.0,0.0,0.0,0.0,0.0,0.0,0.0,0.0
2025/04/10 10:34:03.953912922,1744274043,951988882,mA1/imu,0.7009947151706877,0.7131662892318044,8.415570711890576e-05,0.0004961087802403701,0.0,0.0,0.0,0.0,0.0,0.0,0.0,0.0,0.0,-0.0036426836386653397,-0.0014689937367709782,-0.0019019324330173996,0.0,0.0,0.0,0.0,0.0,0.0,0.0,0.0,0.0,0.010369920332933907,-0.44906817396159016,9.810870926009976,0.0,0.0,0.0,0.0,0.0,0.0,0.0,0.0,0.0
2025/04/10 10:34:04.3106446,1744274044,2935933,mA1/imu,0.7009605476504511,0.7131997496328855,0.00016597446316936906,0.000632624412033735,0.0,0.0,0.0,0.0,0.0,0.0,0.0,0.0,0.0,-0.005624240846626439,-0.0016954677250018693,-0.0019178382040717769,0.0,0.0,0.0,0.0,0.0,0.0,0.0,0.0,0.0,0.00911775687995503,0.009551169351306106,9.809746022933442,0.0,0.0,0.0,0.0,0.0,0.0,0.0,0.0,0.0
2025/04/10 10:34:04.54674419,1744274044,52782739,mA1/imu,0.7009263217046802,0.7132332251209729,0.00024536170615821603,0.0007732546255526456,0.0,0.0,0.0,0.0,0.0,0.0,0.0,0.0,0.0,-0.006555746412785311,-0.0018463776157754074,-0.0018875814347596106,0.0,0.0,0.0,0.0,0.0,0.0,0.0,0.0,0.0,0.010704805484480854,0.4320488781819587,9.811978555349453,0.0,0.0,0.0,0.0,0.0,0.0,0.0,0.0,0.0
2025/04/10 10:34:04.103843006,1744274044,103708216,mA1/imu,0.7008933291321301,0.7132654410845778,0.0003260895285221018,0.0009194553395708482,0.0,0.0,0.0,0.0,0.0,0.0,0.0,0.0,0.0,-0.005857654165580161,-0.0019350634941963272,-0.0018349066771847478,0.0,0.0,0.0,0.0,0.0,0.0,0.0,0.0,0.0,0.010864621336471704,-0.3910560922485428,9.810104559712775,0.0,0.0,0.0,0.0,0.0,0.0,0.0,0.0,0.0
2025/04/10 10:34:04.144306911,1744274044,144141616,mA1/imu,0.7008605746362386,0.7132973902384981,0.0004012917875739149,0.0010615857997612415,0.0,0.0,0.0,0.0,0.0,0.0,0.0,0.0,0.0,-0.004900720076955198,-0.0019447960343503055,-0.0018278120553904924,0.0,0.0,0.0,0.0,0.0,0.0,0.0,0.0,0.0,0.011384653692300219,-0.5811142067416897,9.810673744482772,0.0,0.0,0.0,0.0,0.0,0.0,0.0,0.0,0.0
2025/04/10 10:34:04.195333251,1744274044,195065904,mA1/imu,0.7008278318670472,0.7133293065799529,0.0004704919644888041,0.001195446363784413,0.0,0.0,0.0,0.0,0.0,0.0,0.0,0.0,0.0,-0.004099288961988952,-0.0018318045101922479,-0.0018284121345353015,0.0,0.0,0.0,0.0,0.0,0.0,0.0,0.0,0.0,0.010420682254875743,-0.5577900960360023,9.810707892490052,0.0,0.0,0.0,0.0,0.0,0.0,0.0,0.0,0.0
2025/04/10 10:34:04.245292780,1744274044,244971786,mA1/imu,0.7007951406080493,0.7133611596602193,0.0005352642955123376,0.0013191969169071528,0.0,0.0,0.0,0.0,0.0,0.0,0.0,0.0,0.0,-0.004168688387702023,-0.0016076689886231844,-0.0018171178095624586,0.0,0.0,0.0,0.0,0.0,0.0,0.0,0.0,0.0,0.008083499778731854,0.008508152828350077,9.810819762951024,0.0,0.0,0.0,0.0,0.0,0.0,0.0,0.0,0.0
2025/04/10 10:34:04.296238304,1744274044,295911525,mA1/imu,0.7007598918718683,0.7133955347935346,0.0005886664219264916,0.001427708730138903,0.0,0.0,0.0,0.0,0.0,0.0,0.0,0.0,0.0,-0.002256118863588892,-0.001479017176030841,-0.002000275153117308,0.0,0.0,0.0,0.0,0.0,0.0,0.0,0.0,0.0,0.005261286059047007,-0.5427887081936589,9.809358593445001,0.0,0.0,0.0,0.0,0.0,0.0,0.0,0.0,0.0
2025/04/10 10:34:04.346069428,1744274044,345804855,mA1/imu,0.7007241219030002,0.7134304594413083,0.0006322990582278637,0.0015115298654770437,0.0,0.0,0.0,0.0,0.0,0.0,0.0,0.0,0.0,-0.002511808297478599,-0.0009698386927808069,-0.0020001521805773667,0.0,0.0,0.0,0.0,0.0,0.0,0.0,0.0,0.0,0.007316799561531263,-0.01259602582998056,9.81223702908091,0.0,0.0,0.0,0.0,0.0,0.0,0.0,0.0,0.0
2025/04/10 10:34:04.397013193,1744274044,396775832,mA1/imu,0.7006883222038267,0.7134654519062362,0.000671797639603911,0.0015724984413200095,0.0,0.0,0.0,0.0,0.0,0.0,0.0,0.0,0.0,-0.0031038369323158565,-0.0004156992024812124,-0.0020031386330226814,0.0,0.0,0.0,0.0,0.0,0.0,0.0,0.0,0.0,0.007511438231313814,-0.12869625695976275,9.81243160646005,0.0,0.0,0.0,0.0,0.0,0.0,0.0,0.0,0.0
2025/04/10 10:34:04.448494752,1744274044,446722679,mA1/imu,0.7006524727616374,0.7135005921778675,0.0006900596913271992,0.0015941118084746896,0.0,0.0,0.0,0.0,0.0,0.0,0.0,0.0,0.0,-0.0014176130723151372,8.084002497826012e-05,-0.0020163976942889454,0.0,0.0,0.0,0.0,0.0,0.0,0.0,0.0,0.0,0.012805625137954083,-0.2985828419145908,9.809537181950216,0.0,0.0,0.0,0.0,0.0,0.0,0.0,0.0,0.0
2025/04/10 10:34:04.500724963,1744274044,497642198,mA1/imu,0.700616370135398,0.7135360425260215,0.0006981647682736052,0.0015907484272490084,0.0,0.0,0.0,0.0,0.0,0.0,0.0,0.0,0.0,0.0006079906946830283,0.0005454911126009272,-0.002019852726339115,0.0,0.0,0.0,0.0,0.0,0.0,0.0,0.0,0.0,0.006360853063277293,-0.669181107549487,9.809112769268676,0.0,0.0,0.0,0.0,0.0,0.0,0.0,0.0,0.0
2025/04/10 10:34:04.547583943,1744274044,547460941,mA1/imu,0.7005804752969148,0.7135713813478507,0.0006890323390997375,0.0015513183119257798,0.0,0.0,0.0,0.0,0.0,0.0,0.0,0.0,0.0,0.0031051799928684984,0.0010645603901888437,-0.0020120085165220053,0.0,0.0,0.0,0.0,0.0,0.0,0.0,0.0,0.0,0.007504537768437108,-0.5816739656404288,9.808863405253316,0.0,0.0,0.0,0.0,0.0,0.0,0.0,0.0,0.0
2025/04/10 10:34:04.598583000,1744274044,598396733,mA1/imu,0.7005446740203262,0.7136066589616846,0.0006797547029091249,0.0014946306703663866,0.0,0.0,0.0,0.0,0.0,0.0,0.0,0.0,0.0,0.0017847038124996866,0.0015304093296759239,-0.0020076357592133474,0.0,0.0,0.0,0.0,0.0,0.0,0.0,0.0,0.0,0.007298586599876451,0.519387729062519,9.809075342251147,0.0,0.0,0.0,0.0,0.0,0.0,0.0,0.0,0.0
2025/04/10 10:34:04.648509234,1744274044,648236903,mA1/imu,0.7005089639000078,0.7136419011655373,0.0006584415001040066,0.0014123920722636694,0.0,0.0,0.0,0.0,0.0,0.0,0.0,0.0,0.0,0.002879689738753416,0.0018935546398724974,-0.0020050514547401473,0.0,0.0,0.0,0.0,0.0,0.0,0.0,0.0,0.0,0.00733189916651068,-0.09753514935480148,9.807199399458463,0.0,0.0,0.0,0.0,0.0,0.0,0.0,0.0,0.0
2025/04/10 10:34:04.700595732,1744274044,700385656,mA1/imu,0.7004732997751171,0.7136771368754617,0.0006243383589620634,0.0013079774523637533,0.0,0.0,0.0,0.0,0.0,0.0,0.0,0.0,0.0,0.004811673018755922,0.0020992744657151534,-0.0020036226023184734,0.0,0.0,0.0,0.0,0.0,0.0,0.0,0.0,0.0,0.008899196264506316,-0.6458954326573583,9.807374413635491,0.0,0.0,0.0,0.0,0.0,0.0,0.0,0.0,0.0
2025/04/10 10:34:04.750551180,1744274044,750282814,mA1/imu,0.7004368738697753,0.7137131309694741,0.000579068448904938,0.0011904138013768002,0.0,0.0,0.0,0.0,0.0,0.0,0.0,0.0,0.0,0.005084821504494094,0.0019308044876773865,-0.0021555067490869003,0.0,0.0,0.0,0.0,0.0,0.0,0.0,0.0,0.0,0.02977303727583834,-0.04130791319894988,9.806794285648266,0.0,0.0,0.0,0.0,0.0,0.0,0.0,0.0,0.0
2025/04/10 10:34:04.801634836,1744274044,801325600,mA1/imu,0.7003960571508978,0.7137534080322058,0.0005253705388642164,0.0010768638190130908,0.0,0.0,0.0,0.0,0.0,0.0,0.0,0.0,0.0,0.006163864253297839,0.0017039340995167829,-0.002313874774943605,0.0,0.0,0.0,0.0,0.0,0.0,0.0,0.0,0.0,0.007841080205678478,-0.4739752453270935,9.80667277997432,0.0,0.0,0.0,0.0,0.0,0.0,0.0,0.0,0.0
2025/04/10 10:34:04.851351117,1744274044,851113323,mA1/imu,0.7003548240841019,0.7137940736596917,0.00046711543215556593,0.0009605173618883227,0.0,0.0,0.0,0.0,0.0,0.0,0.0,0.0,0.0,0.004050177237818925,0.0016894243655614883,-0.002314551265508698,0.0,0.0,0.0,0.0,0.0,0.0,0.0,0.0,0.0,0.006796230587598067,0.4952136415668258,9.809388203097424,0.0,0.0,0.0,0.0,0.0,0.0,0.0,0.0,0.0
2025/04/10 10:34:04.902335945,1744274044,902073710,mA1/imu,0.7003136823567016,0.7138346238040872,0.0004056329028008606,0.0008435783440028748,0.0,0.0,0.0,0.0,0.0,0.0,0.0,0.0,0.0,0.004425380853712223,0.001577126417995529,-0.0023087324487683835,0.0,0.0,0.0,0.0,0.0,0.0,0.0,0.0,0.0,0.007137576637825536,0.5348693756589901,9.809863953914553,0.0,0.0,0.0,0.0,0.0,0.0,0.0,0.0,0.0
2025/04/10 10:34:04.952158901,1744274044,951895063,mA1/imu,0.7002724926853399,0.7138751684454635,0.00035536208428177385,0.0007440315926300705,0.0,0.0,0.0,0.0,0.0,0.0,0.0,0.0,0.0,0.004173039325940582,0.0012616721468577086,-0.002324193996583161,0.0,0.0,0.0,0.0,0.0,0.0,0.0,0.0,0.0,0.01658720562630224,-0.08548417233985989,9.809097497510226,0.0,0.0,0.0,0.0,0.0,0.0,0.0,0.0,0.0
2025/04/10 10:34:05.3148392,1744274045,2739817,mA1/imu,0.7002307675436008,0.7139162113176668,0.00029839820423966474,0.0006529637357326777,0.0,0.0,0.0,0.0,0.0,0.0,0.0,0.0,0.0,0.004689454206549832,0.0008753402353293906,-0.0023433467534133656,0.0,0.0,0.0,0.0,0.0,0.0,0.0,0.0,0.0,0.008556000782700812,-0.6388575559848317,9.809745542461048,0.0,0.0,0.0,0.0,0.0,0.0,0.0,0.0,0.0
