time,header_stamp_secs,header_stamp_nsecs,header_frame_id,orientation_x,orientation_y,orientation_z,orientation_w,orientation_covariance_0,orientation_covariance_1,orientation_covariance_2,orientation_covariance_3,orientation_covariance_4,orientation_covariance_5,orientation_covariance_6,orientation_covariance_7,orientation_covariance_8,angular_velocity_x,angular_velocity_y,angular_velocity_z,angular_velocity_covariance_0,angular_velocity_covariance_1,angular_velocity_covariance_2,angular_velocity_covariance_3,angular_velocity_covariance_4,angular_velocity_covariance_5,angular_velocity_covariance_6,angular_velocity_covariance_7,angular_velocity_covariance_8,linear_acceleration_x,linear_acceleration_y,linear_acceleration_z,linear_acceleration_covariance_0,linear_acceleration_covariance_1,linear_acceleration_covariance_2,linear_acceleration_covariance_3,linear_acceleration_covariance_4,linear_acceleration_covariance_5,linear_acceleration_covariance_6,linear_acceleration_covariance_7,linear_acceleration_covariance_8
2025/05/20 13:08:13.271599130,1747739292,318749260,mA1/imu,0.25381354894412617,0.9672527444078597,0.0006725165190345174,0.000598773231565107,0.0,0.0,0.0,0.0,0.0,0.0,0.0,0.0,0.0,-0.0009437118790255697,0.0001594857301146733,-4.412510115580041e-05,0.0,0.0,0.0,0.0,0.0,0.0,0.0,0.0,0.0,0.007917103291017337,0.5536693146747235,9.811412690910911,0.0,0.0,0.0,0.0,0.0,0.0,0.0,0.0,0.0
2025/05/20 13:08:13.275701245,1747739292,368260535,mA1/imu,0.25381248605799717,0.9672530206366163,0.0006787319753602834,0.0005960816271418568,0.0,0.0,0.0,0.0,0.0,0.0,0.0,0.0,0.0,-0.000789054171082886,0.00017600544613123156,-4.3453891102240823e-05,0.0,0.0,0.0,0.0,0.0,0.0,0.0,0.0,0.0,0.0074421094819044995,-0.06340354825617121,9.810408300911154,0.0,0.0,0.0,0.0,0.0,0.0,0.0,0.0,0.0
2025/05/20 13:08:13.283965693,1747739292,419279074,mA1/imu,0.25381144376962267,0.9672532983912051,0.0006769231487200765,0.0005912173582935873,0.0,0.0,0.0,0.0,0.0,0.0,0.0,0.0,0.0,0.0008189241716162279,0.00016845584628801403,-4.2789847415538375e-05,0.0,0.0,0.0,0.0,0.0,0.0,0.0,0.0,0.0,0.00781959080418592,-0.585034283708306,9.8086487624831,0.0,0.0,0.0,0.0,0.0,0.0,0.0,0.0,0.0
2025/05/20 13:08:13.291708780,1747739292,469236272,mA1/imu,0.2538106055520112,0.9672535218225355,0.0006748416994163468,0.0005878944666915741,0.0,0.0,0.0,0.0,0.0,0.0,0.0,0.0,0.0,0.0007073984086007585,6.353738748532384e-05,-2.9467407607230457e-05,0.0,0.0,0.0,0.0,0.0,0.0,0.0,0.0,0.0,0.009771500939831953,0.032824898468051866,9.809908121410748,0.0,0.0,0.0,0.0,0.0,0.0,0.0,0.0,0.0
2025/05/20 13:08:13.721095478,1747739292,761758885,mA1/imu,0.2538050585758972,0.9672549784560579,0.000681905508426302,0.0005778391938100967,0.0,0.0,0.0,0.0,0.0,0.0,0.0,0.0,0.0,-0.000660829691784999,1.2247725107334107e-05,-3.973621975253797e-05,0.0,0.0,0.0,0.0,0.0,0.0,0.0,0.0,0.0,0.007593219474187526,-0.06337072912410453,9.810211145924368,0.0,0.0,0.0,0.0,0.0,0.0,0.0,0.0,0.0
2025/05/20 13:08:13.725878343,1747739292,813607003,mA1/imu,0.2538041091613609,0.967255232484626,0.0006758892615144739,0.0005766954363003086,0.0,0.0,0.0,0.0,0.0,0.0,0.0,0.0,0.0,0.0009410628905678055,-3.199795790260339e-05,-3.919662342733815e-05,0.0,0.0,0.0,0.0,0.0,0.0,0.0,0.0,0.0,0.007885008312058246,-0.5850936317214813,9.808444415645374,0.0,0.0,0.0,0.0,0.0,0.0,0.0,0.0,0.0
2025/05/20 13:08:13.731599532,1747739292,862627938,mA1/imu,0.2538031724220168,0.9672554823569036,0.0006701351092351953,0.0005765743399000282,0.0,0.0,0.0,0.0,0.0,0.0,0.0,0.0,0.0,0.0008085042156234361,-7.277093572857589e-05,-3.869751414174544e-05,0.0,0.0,0.0,0.0,0.0,0.0,0.0,0.0,0.0,0.008378553426656419,0.03237651141070656,9.809685837342975,0.0,0.0,0.0,0.0,0.0,0.0,0.0,0.0,0.0
2025/05/20 13:08:14.215950125,1747739293,268290433,mA1/imu,0.2537961414512281,0.9672573264857127,0.0006526902370803844,0.0005974442518560155,0.0,0.0,0.0,0.0,0.0,0.0,0.0,0.0,0.0,0.0007360575614015236,-0.00010266074100670911,-3.4276470338614954e-05,0.0,0.0,0.0,0.0,0.0,0.0,0.0,0.0,0.0,0.008137454941569158,0.03234344741930774,9.809842272007392,0.0,0.0,0.0,0.0,0.0,0.0,0.0,0.0,0.0
2025/05/20 13:08:14.217921932,1747739293,321098141,mA1/imu,0.2537953189816286,0.9672575378703036,0.0006564512194052019,0.0006004730539382393,0.0,0.0,0.0,0.0,0.0,0.0,0.0,0.0,0.0,-0.0008781157053169774,-6.647350993605729e-05,-3.375586073493401e-05,0.0,0.0,0.0,0.0,0.0,0.0,0.0,0.0,0.0,0.007811180494167081,0.553681908628812,9.81137367057112,0.0,0.0,0.0,0.0,0.0,0.0,0.0,0.0,0.0
2025/05/20 13:08:14.226693615,1747739293,363669159,mA1/imu,0.2537945093760328,0.9672577464355419,0.0006601377536559129,0.0006026517750005096,0.0,0.0,0.0,0.0,0.0,0.0,0.0,0.0,0.0,-0.00075235773488948,-2.8581154910008476e-05,-3.320177124880702e-05,0.0,0.0,0.0,0.0,0.0,0.0,0.0,0.0,0.0,0.007324325755608459,-0.06340686134827113,9.810373045674696,0.0,0.0,0.0,0.0,0.0,0.0,0.0,0.0,0.0
2025/05/20 13:08:14.236710152,1747739293,414038658,mA1/imu,0.2537937167451119,0.9672579570594462,0.0006567067553312486,0.0006021479268305123,0.0,0.0,0.0,0.0,0.0,0.0,0.0,0.0,0.0,0.0008250722094642275,-2.4537770251588073e-06,-3.264901606171985e-05,0.0,0.0,0.0,0.0,0.0,0.0,0.0,0.0,0.0,0.007637718348755524,-0.5850953521776973,9.80863584781356,0.0,0.0,0.0,0.0,0.0,0.0,0.0,0.0,0.0
2025/05/20 13:08:14.247120061,1747739293,467591002,mA1/imu,0.25379293522181257,0.9672581642495928,0.0006544947024453758,0.0006011328382664588,0.0,0.0,0.0,0.0,0.0,0.0,0.0,0.0,0.0,0.0006733835378410145,2.459601034289467e-05,-3.216167665713489e-05,0.0,0.0,0.0,0.0,0.0,0.0,0.0,0.0,0.0,0.008144892135183827,0.03239601533117276,9.809925876135903,0.0,0.0,0.0,0.0,0.0,0.0,0.0,0.0,0.0
2025/05/20 13:08:14.257472250,1747739293,518597542,mA1/imu,0.253792159905583,0.9672583635108762,0.0006603928246887375,0.0006013900878774156,0.0,0.0,0.0,0.0,0.0,0.0,0.0,0.0,0.0,-0.0009300313358922066,6.249120569929914e-05,-3.171329048161848e-05,0.0,0.0,0.0,0.0,0.0,0.0,0.0,0.0,0.0,0.007857763459427998,0.5539525382377121,9.811428465172375,0.0,0.0,0.0,0.0,0.0,0.0,0.0,0.0,0.0
2025/05/20 13:08:15.214587499,1747739294,264927836,mA1/imu,0.2537817047135888,0.9672611098978848,0.0006708991791172992,0.0005844023172018849,0.0,0.0,0.0,0.0,0.0,0.0,0.0,0.0,0.0,0.0007934387946819291,-0.00010963788201999463,-2.6407137642984243e-05,0.0,0.0,0.0,0.0,0.0,0.0,0.0,0.0,0.0,0.008319169910229064,0.0323934691912226,9.809747321659124,0.0,0.0,0.0,0.0,0.0,0.0,0.0,0.0,0.0
2025/05/20 13:08:15.219863546,1747739294,315850687,mA1/imu,0.25378107092912866,0.9672612729046226,0.000672705850017356,0.0005877447007957527,0.0,0.0,0.0,0.0,0.0,0.0,0.0,0.0,0.0,-0.0007960743476753013,-0.00011487700106381514,-2.6112219878212873e-05,0.0,0.0,0.0,0.0,0.0,0.0,0.0,0.0,0.0,0.007957321255657082,0.5537091354255249,9.81126124124249,0.0,0.0,0.0,0.0,0.0,0.0,0.0,0.0,0.0
2025/05/20 13:08:16.162827548,1747739295,213915836,mA1/imu,0.2537710225688326,0.967263911398892,0.0006734862364706016,0.0005832889290016666,0.0,0.0,0.0,0.0,0.0,0.0,0.0,0.0,0.0,0.000794948193633664,6.230188449698581e-05,-2.0595462316435506e-05,0.0,0.0,0.0,0.0,0.0,0.0,0.0,0.0,0.0,0.007887844406180188,-0.5850534136996333,9.808441573663448,0.0,0.0,0.0,0.0,0.0,0.0,0.0,0.0,0.0
2025/05/20 13:08:16.166177430,1747739295,263616666,mA1/imu,0.25377052703950176,0.9672640435122545,0.0006718929179281479,0.0005816307452254048,0.0,0.0,0.0,0.0,0.0,0.0,0.0,0.0,0.0,0.0006645609447079988,3.3273980590654836e-05,-2.042792719364561e-05,0.0,0.0,0.0,0.0,0.0,0.0,0.0,0.0,0.0,0.008377716256684969,0.03242389483120324,9.809714696602677,0.0,0.0,0.0,0.0,0.0,0.0,0.0,0.0,0.0
2025/05/20 13:08:16.167021507,1747739295,314938826,mA1/imu,0.25377003153299577,0.9672641689823862,0.0006776517439628849,0.0005824831931345721,0.0,0.0,0.0,0.0,0.0,0.0,0.0,0.0,0.0,-0.0009218977022517966,1.6137088035586336e-05,-2.028255452002854e-05,0.0,0.0,0.0,0.0,0.0,0.0,0.0,0.0,0.0,0.008064761731010261,0.553661831736822,9.811196423515016,0.0,0.0,0.0,0.0,0.0,0.0,0.0,0.0,0.0
2025/05/20 13:08:16.173353584,1747739295,364539855,mA1/imu,0.25376954127731355,0.967264293643664,0.0006822781729332054,0.0005836595071251693,0.0,0.0,0.0,0.0,0.0,0.0,0.0,0.0,0.0,-0.0007666350992278782,-3.4116150297737717e-06,-2.009399795961825e-05,0.0,0.0,0.0,0.0,0.0,0.0,0.0,0.0,0.0,0.007568512082039849,-0.06341392670216922,9.810180291373745,0.0,0.0,0.0,0.0,0.0,0.0,0.0,0.0,0.0
2025/05/20 13:08:16.183385620,1747739295,415508686,mA1/imu,0.2537690606542385,0.967264422439515,0.0006786938803659564,0.0005833626947893015,0.0,0.0,0.0,0.0,0.0,0.0,0.0,0.0,0.0,0.0008408946907061188,-3.49840684515415e-05,-1.98899224116555e-05,0.0,0.0,0.0,0.0,0.0,0.0,0.0,0.0,0.0,0.007867973852582937,-0.5850703770771309,9.808445154036956,0.0,0.0,0.0,0.0,0.0,0.0,0.0,0.0,0.0
2025/05/20 13:08:16.193955044,1747739295,465403720,mA1/imu,0.2537685844461239,0.9672645495655663,0.0006752497797483556,0.0005837291047503893,0.0,0.0,0.0,0.0,0.0,0.0,0.0,0.0,0.0,0.0007186095346981884,-6.29388098634332e-05,-1.9729210228724596e-05,0.0,0.0,0.0,0.0,0.0,0.0,0.0,0.0,0.0,0.008346871982007623,0.032405551217033104,9.809749844488136,0.0,0.0,0.0,0.0,0.0,0.0,0.0,0.0,0.0
2025/05/20 13:08:16.204372320,1747739295,516629759,mA1/imu,0.2537681083550538,0.9672646701736641,0.0006790212565705066,0.0005864689792283919,0.0,0.0,0.0,0.0,0.0,0.0,0.0,0.0,0.0,-0.0008621131242625919,-7.414922442933232e-05,-1.9575228286811473e-05,0.0,0.0,0.0,0.0,0.0,0.0,0.0,0.0,0.0,0.008005431413299952,0.5536923530349621,9.811277691276727,0.0,0.0,0.0,0.0,0.0,0.0,0.0,0.0,0.0
2025/05/20 13:08:17.165932315,1747739296,212954048,mA1/imu,0.25370467339165775,0.967281286149148,0.0006538442693454472,0.0006516537068503291,0.0,0.0,0.0,0.0,0.0,0.0,0.0,0.0,0.0,0.0007728540790443854,-0.0005628883519785117,-0.0007273617119198737,0.0,0.0,0.0,0.0,0.0,0.0,0.0,0.0,0.0,0.009363450185781556,-0.5831733646645595,9.80862727982965,0.0,0.0,0.0,0.0,0.0,0.0,0.0,0.0,0.0
2025/05/20 13:08:17.169733468,1747739296,262826038,mA1/imu,0.253687849846274,0.9672856939550973,0.0006490778389462066,0.0006631803213660687,0.0,0.0,0.0,0.0,0.0,0.0,0.0,0.0,0.0,0.0006585348809613561,-0.0004490872899595385,-0.0006751888349503771,0.0,0.0,0.0,0.0,0.0,0.0,0.0,0.0,0.0,0.009755721890051963,0.034085787256210226,9.809839104877621,0.0,0.0,0.0,0.0,0.0,0.0,0.0,0.0,0.0
2025/05/20 13:08:17.179257948,1747739296,314356575,mA1/imu,0.25367226706559076,0.9672897716809594,0.0006522062000359104,0.0006731643733269173,0.0,0.0,0.0,0.0,0.0,0.0,0.0,0.0,0.0,-0.0009055063167221002,-0.00029299868695703416,-0.00062418860374138,0.0,0.0,0.0,0.0,0.0,0.0,0.0,0.0,0.0,0.009259790858724646,0.5562290610315203,9.811077257577479,0.0,0.0,0.0,0.0,0.0,0.0,0.0,0.0,0.0
2025/05/20 13:08:17.190425920,1747739296,363685753,mA1/imu,0.25365789242903575,0.9672935354578566,0.0006548895142033915,0.0006789621671683705,0.0,0.0,0.0,0.0,0.0,0.0,0.0,0.0,0.0,-0.0007292633063864986,-0.00012502906110903474,-0.000574795884898311,0.0,0.0,0.0,0.0,0.0,0.0,0.0,0.0,0.0,0.00871449991268776,-0.0609246320708164,9.810075111001469,0.0,0.0,0.0,0.0,0.0,0.0,0.0,0.0,0.0
2025/05/20 13:08:17.201874438,1747739296,414640384,mA1/imu,0.25364471006635203,0.9672969956729013,0.0006501900942925555,0.0006785796760501713,0.0,0.0,0.0,0.0,0.0,0.0,0.0,0.0,0.0,0.0008905730175547476,3.4012305278068956e-05,-0.0005256646159744073,0.0,0.0,0.0,0.0,0.0,0.0,0.0,0.0,0.0,0.0091987839051545,-0.5836279361879902,9.808541215829008,0.0,0.0,0.0,0.0,0.0,0.0,0.0,0.0,0.0
2025/05/20 13:08:17.211323495,1747739296,464405419,mA1/imu,0.25363270938143273,0.9673001479209252,0.0006465158578038046,0.0006742263975965906,0.0,0.0,0.0,0.0,0.0,0.0,0.0,0.0,0.0,0.0007774037628707016,0.00018968318319800552,-0.0004767405547703693,0.0,0.0,0.0,0.0,0.0,0.0,0.0,0.0,0.0,0.009677545529878113,0.03381234552179503,9.809810834458771,0.0,0.0,0.0,0.0,0.0,0.0,0.0,0.0,0.0
2025/05/20 13:08:18.165666745,1747739297,216093983,mA1/imu,0.2536727948019863,0.9672897266481976,0.0006901157348300261,0.0004707849586259396,0.0,0.0,0.0,0.0,0.0,0.0,0.0,0.0,0.0,0.0006977351712196076,-0.001093183721247389,0.00021016160548638756,0.0,0.0,0.0,0.0,0.0,0.0,0.0,0.0,0.0,0.006795560456678008,-0.584519686801251,9.808623715733946,0.0,0.0,0.0,0.0,0.0,0.0,0.0,0.0,0.0
2025/05/20 13:08:18.169502508,1747739297,266078938,mA1/imu,0.253677830358493,0.9672883960824566,0.0006833895482584488,0.0005001675334603368,0.0,0.0,0.0,0.0,0.0,0.0,0.0,0.0,0.0,0.000536183851844136,-0.0012752104882388698,0.00020560218633922174,0.0,0.0,0.0,0.0,0.0,0.0,0.0,0.0,0.0,0.007161052175407972,0.03233684333515247,9.809888441897465,0.0,0.0,0.0,0.0,0.0,0.0,0.0,0.0,0.0
2025/05/20 13:08:18.175782758,1747739297,317089907,mA1/imu,0.253682758445766,0.9672870847941687,0.0006839083087014642,0.0005347215827955435,0.0,0.0,0.0,0.0,0.0,0.0,0.0,0.0,0.0,-0.0010681240854104113,-0.0013628866344751896,0.0002013509311327561,0.0,0.0,0.0,0.0,0.0,0.0,0.0,0.0,0.0,0.006316681502156642,0.5540593635109093,9.81131289312409,0.0,0.0,0.0,0.0,0.0,0.0,0.0,0.0,0.0
2025/05/20 13:08:18.186582219,1747739297,367242463,mA1/imu,0.25368758884745,0.9672857979639308,0.0006834760982090263,0.0005702477285378759,0.0,0.0,0.0,0.0,0.0,0.0,0.0,0.0,0.0,-0.0009219714625975942,-0.0013741902130344503,0.00019740904549811662,0.0,0.0,0.0,0.0,0.0,0.0,0.0,0.0,0.0,0.0057312294811250174,-0.06311810830714132,9.810338845806491,0.0,0.0,0.0,0.0,0.0,0.0,0.0,0.0,0.0
2025/05/20 13:08:18.196549453,1747739297,418201856,mA1/imu,0.2536923299500576,0.967284540444881,0.0006753656647998235,0.0006028449760638443,0.0,0.0,0.0,0.0,0.0,0.0,0.0,0.0,0.0,0.0006824262811765992,-0.0012960313857181976,0.00019357230828106762,0.0,0.0,0.0,0.0,0.0,0.0,0.0,0.0,0.0,0.0027959170250900483,-0.5853571028857725,9.808608164051808,0.0,0.0,0.0,0.0,0.0,0.0,0.0,0.0,0.0
2025/05/20 13:08:18.206646682,1747739297,468110185,mA1/imu,0.2536931008938969,0.9672843223141374,0.0006679255682323845,0.0006357983598243462,0.0,0.0,0.0,0.0,0.0,0.0,0.0,0.0,0.0,0.0005196630986628386,-0.0014249587393986175,-9.255949231487892e-05,0.0,0.0,0.0,0.0,0.0,0.0,0.0,0.0,0.0,0.014553361552374676,0.026300459888193687,9.80916656911516,0.0,0.0,0.0,0.0,0.0,0.0,0.0,0.0,0.0
2025/05/20 13:08:18.569240480,1747739297,620919175,mA1/imu,0.2536735760131819,0.9672893917829479,0.0006655852094153193,0.0007115990358844108,0.0,0.0,0.0,0.0,0.0,0.0,0.0,0.0,0.0,0.0007261024565406833,-0.0004351430856668295,-0.00041892461900334656,0.0,0.0,0.0,0.0,0.0,0.0,0.0,0.0,0.0,0.003545198624551443,-0.5873150591283366,9.808220265985714,0.0,0.0,0.0,0.0,0.0,0.0,0.0,0.0,0.0
2025/05/20 13:08:18.572981758,1747739297,670047440,mA1/imu,0.25366194421166804,0.9672924402860971,0.0006638042634246955,0.0007158128411480274,0.0,0.0,0.0,0.0,0.0,0.0,0.0,0.0,0.0,0.0006207326076934245,-1.8010653147484152e-05,-0.0005225066595329425,0.0,0.0,0.0,0.0,0.0,0.0,0.0,0.0,0.0,0.0041537893020699036,0.030301096052242005,9.80936514068249,0.0,0.0,0.0,0.0,0.0,0.0,0.0,0.0,0.0
2025/05/20 13:08:18.579138166,1747739297,710963550,mA1/imu,0.25364782845440664,0.9672961397736499,0.0006714139821670736,0.0007115494531472953,0.0,0.0,0.0,0.0,0.0,0.0,0.0,0.0,0.0,-0.0009290550925127271,0.0004066514317165824,-0.0006231769482740601,0.0,0.0,0.0,0.0,0.0,0.0,0.0,0.0,0.0,0.0036681745510505383,0.552526760584109,9.811381635890227,0.0,0.0,0.0,0.0,0.0,0.0,0.0,0.0,0.0
2025/05/20 13:08:18.589767246,1747739297,760844725,mA1/imu,0.25363134185416464,0.967300467420883,0.0006797184158966649,0.000697237027132529,0.0,0.0,0.0,0.0,0.0,0.0,0.0,0.0,0.0,-0.0007348390281949868,0.0007939937419929332,-0.0007194156559409812,0.0,0.0,0.0,0.0,0.0,0.0,0.0,0.0,0.0,0.0033301813907412447,-0.06438410110943336,9.810499611587689,0.0,0.0,0.0,0.0,0.0,0.0,0.0,0.0,0.0
2025/05/20 13:08:18.600254084,1747739297,811836202,mA1/imu,0.25361428704852984,0.9673049573169158,0.0006818042768386158,0.0006694011606483469,0.0,0.0,0.0,0.0,0.0,0.0,0.0,0.0,0.0,0.0009208012171319651,0.001293463586572239,-0.0006948791987808707,0.0,0.0,0.0,0.0,0.0,0.0,0.0,0.0,0.0,-0.0014493427702894756,-0.584933338919722,9.808564702922672,0.0,0.0,0.0,0.0,0.0,0.0,0.0,0.0,0.0
2025/05/20 13:08:18.610344845,1747739297,861753170,mA1/imu,0.25359780494802686,0.9673093017981668,0.0006858720267060237,0.00063052347195962,0.0,0.0,0.0,0.0,0.0,0.0,0.0,0.0,0.0,0.0008422825506895635,0.0016946198944348056,-0.0006712460668245363,0.0,0.0,0.0,0.0,0.0,0.0,0.0,0.0,0.0,-0.00044472258441331965,0.03234309181762243,9.809682417186599,0.0,0.0,0.0,0.0,0.0,0.0,0.0,0.0,0.0
2025/05/20 13:08:19.568417339,1747739298,619182338,mA1/imu,0.2534219331964344,0.967355506180744,0.0006757305039099387,0.00043797838371387795,0.0,0.0,0.0,0.0,0.0,0.0,0.0,0.0,0.0,0.0007551630929699446,-0.0014448673473353626,7.461408243453001e-05,0.0,0.0,0.0,0.0,0.0,0.0,0.0,0.0,0.0,0.004190761778744906,-0.5856052198522897,9.808772641067629,0.0,0.0,0.0,0.0,0.0,0.0,0.0,0.0,0.0
2025/05/20 13:08:19.571547886,1747739298,668989715,mA1/imu,0.25342308652033785,0.9673551931974462,0.0006655652695975746,0.0004758521923773595,0.0,0.0,0.0,0.0,0.0,0.0,0.0,0.0,0.0,0.000573988936659159,-0.0016441287799983664,2.9339072061414248e-05,0.0,0.0,0.0,0.0,0.0,0.0,0.0,0.0,0.0,0.005621083365635387,0.03209595817119688,9.80980533451115,0.0,0.0,0.0,0.0,0.0,0.0,0.0,0.0,0.0
2025/05/20 13:08:19.579643431,1747739298,719962860,mA1/imu,0.25342380605779247,0.9673549841996459,0.0006635765502444327,0.0005183950686815546,0.0,0.0,0.0,0.0,0.0,0.0,0.0,0.0,0.0,-0.0010665683551706775,-0.0016719015058839829,2.8422186805905214e-05,0.0,0.0,0.0,0.0,0.0,0.0,0.0,0.0,0.0,0.003659230198552829,0.5541963530559808,9.811305243937841,0.0,0.0,0.0,0.0,0.0,0.0,0.0,0.0,0.0
2025/05/20 13:08:19.588492034,1747739298,769799335,mA1/imu,0.2534245056472324,0.9673547785536547,0.0006619839184158943,0.0005604678020976601,0.0,0.0,0.0,0.0,0.0,0.0,0.0,0.0,0.0,-0.0009586575790214946,-0.001608248958185484,2.773194344588562e-05,0.0,0.0,0.0,0.0,0.0,0.0,0.0,0.0,0.0,0.0031193150325995005,-0.06283193713206892,9.810368693106911,0.0,0.0,0.0,0.0,0.0,0.0,0.0,0.0,0.0
2025/05/20 13:08:19.591694699,1747739298,811556167,mA1/imu,0.25342519256093066,0.967354581512788,0.0006541196331068624,0.0005979374379612069,0.0,0.0,0.0,0.0,0.0,0.0,0.0,0.0,0.0,0.0006089281778549036,-0.0014617371401466255,2.7267097767041365e-05,0.0,0.0,0.0,0.0,0.0,0.0,0.0,0.0,0.0,0.002968802888026232,-0.5854834250877472,9.808688629521798,0.0,0.0,0.0,0.0,0.0,0.0,0.0,0.0,0.0
2025/05/20 13:08:19.599162713,1747739298,860631516,mA1/imu,0.25342586817575935,0.9673543873011288,0.0006486434783299513,0.0006308488396659187,0.0,0.0,0.0,0.0,0.0,0.0,0.0,0.0,0.0,0.00045584305883567715,-0.0012349975239193999,2.7056657413554997e-05,0.0,0.0,0.0,0.0,0.0,0.0,0.0,0.0,0.0,0.003457772966117951,0.03198673151689554,9.80986695532422,0.0,0.0,0.0,0.0,0.0,0.0,0.0,0.0,0.0
2025/05/20 13:08:19.609779272,1747739298,911698447,mA1/imu,0.2534265306807166,0.9673541920946799,0.0006527885752382131,0.0006591290168977415,0.0,0.0,0.0,0.0,0.0,0.0,0.0,0.0,0.0,-0.0011415553791842507,-0.0009266573616493484,2.6931090120099368e-05,0.0,0.0,0.0,0.0,0.0,0.0,0.0,0.0,0.0,0.003007037201019731,0.554236242702026,9.811247985721353,0.0,0.0,0.0,0.0,0.0,0.0,0.0,0.0,0.0
2025/05/20 13:08:20.567537384,1747739299,618028702,mA1/imu,0.2534577409850254,0.9673461147498968,0.000724466359127232,0.00037810255412177847,0.0,0.0,0.0,0.0,0.0,0.0,0.0,0.0,0.0,0.001167029763585387,0.0009280742573108372,0.0006564768729644383,0.0,0.0,0.0,0.0,0.0,0.0,0.0,0.0,0.0,0.01134256575389846,-0.5860790455408204,9.808737309761911,0.0,0.0,0.0,0.0,0.0,0.0,0.0,0.0,0.0
2025/05/20 13:08:20.571335915,1747739299,667960375,mA1/imu,0.2534772146831971,0.9673410254329926,0.000717547088613046,0.00035675884055895934,0.0,0.0,0.0,0.0,0.0,0.0,0.0,0.0,0.0,0.0010840343823057092,0.000606883998439795,0.000920427708252793,0.0,0.0,0.0,0.0,0.0,0.0,0.0,0.0,0.0,0.0072640519429809725,0.0365063510710613,9.809556867287412,0.0,0.0,0.0,0.0,0.0,0.0,0.0,0.0,0.0
2025/05/20 13:08:20.578171565,1747739299,719507539,mA1/imu,0.2535010713814418,0.9673347785633811,0.0007143071330592581,0.0003503648315416216,0.0,0.0,0.0,0.0,0.0,0.0,0.0,0.0,0.0,-0.0005048319064437513,-6.476436163956184e-05,0.0010302511220594765,0.0,0.0,0.0,0.0,0.0,0.0,0.0,0.0,0.0,0.012662302487687297,0.5569876375178212,9.811531932164804,0.0,0.0,0.0,0.0,0.0,0.0,0.0,0.0,0.0
2025/05/20 13:08:20.588390466,1747739299,768881601,mA1/imu,0.2535306620310951,0.9673270269897053,0.0007069376912015262,0.00035567461751683367,0.0,0.0,0.0,0.0,0.0,0.0,0.0,0.0,0.0,-0.0003232730137558151,-0.000330455787785707,0.001393439703654168,0.0,0.0,0.0,0.0,0.0,0.0,0.0,0.0,0.0,-0.005751506373633663,-0.051782734229108535,9.811382199064449,0.0,0.0,0.0,0.0,0.0,0.0,0.0,0.0,0.0
2025/05/20 13:08:20.598536272,1747739299,819880514,mA1/imu,0.25356810412324027,0.9673172213181281,0.0006893242410961364,0.0003670760296369198,0.0,0.0,0.0,0.0,0.0,0.0,0.0,0.0,0.0,0.0012485660009008363,-0.0009214587895650452,0.001571890760717925,0.0,0.0,0.0,0.0,0.0,0.0,0.0,0.0,0.0,0.017051944242901716,-0.5833397279467104,9.808707662238469,0.0,0.0,0.0,0.0,0.0,0.0,0.0,0.0,0.0
2025/05/20 13:08:20.608551511,1747739299,869679243,mA1/imu,0.25360710806829173,0.9673069997234326,0.000667933149024905,0.0003960916529022607,0.0,0.0,0.0,0.0,0.0,0.0,0.0,0.0,0.0,0.0010789389001561115,-0.0016045033991522433,0.0016458524021727163,0.0,0.0,0.0,0.0,0.0,0.0,0.0,0.0,0.0,0.014152491766065279,0.03526616879062943,9.809876324690514,0.0,0.0,0.0,0.0,0.0,0.0,0.0,0.0,0.0
2025/05/20 13:08:21.566317318,1747739300,617889799,mA1/imu,0.25420344420365765,0.9671503540459914,0.0007241832968169057,0.0005264810198132339,0.0,0.0,0.0,0.0,0.0,0.0,0.0,0.0,0.0,0.00083226788818979,0.005005047642494273,0.002655354087540889,0.0,0.0,0.0,0.0,0.0,0.0,0.0,0.0,0.0,-0.01000997431101806,-0.5814819725616845,9.807326687635422,0.0,0.0,0.0,0.0,0.0,0.0,0.0,0.0,0.0
2025/05/20 13:08:21.569518653,1747739300,667834619,mA1/imu,0.2542688448641361,0.9671331995381197,0.0007502234613320621,0.00040748911072103816,0.0,0.0,0.0,0.0,0.0,0.0,0.0,0.0,0.0,0.0008597469976186166,0.004646257148288418,0.0026797401258046825,0.0,0.0,0.0,0.0,0.0,0.0,0.0,0.0,0.0,0.011151097020046206,0.04401663787068174,9.809937081952096,0.0,0.0,0.0,0.0,0.0,0.0,0.0,0.0,0.0
2025/05/20 13:08:21.576930787,1747739300,718777262,mA1/imu,0.25433305735857065,0.9671163337019737,0.0007749580960051632,0.0003040747340632569,0.0,0.0,0.0,0.0,0.0,0.0,0.0,0.0,0.0,-0.00042270900708500647,0.0039692609313611155,0.0026620723033231324,0.0,0.0,0.0,0.0,0.0,0.0,0.0,0.0,0.0,0.006986610814312325,0.517818712323832,9.811480550987948,0.0,0.0,0.0,0.0,0.0,0.0,0.0,0.0,0.0
2025/05/20 13:08:21.586999486,1747739300,768590339,mA1/imu,0.2543976091382924,0.9670993677789707,0.0007885839595634233,0.00021781086843520312,0.0,0.0,0.0,0.0,0.0,0.0,0.0,0.0,0.0,-0.00018630408205350677,0.0031262768489159595,0.0026779878711865085,0.0,0.0,0.0,0.0,0.0,0.0,0.0,0.0,0.0,0.0067875285384295546,-0.04750376970481218,9.810555188170031,0.0,0.0,0.0,0.0,0.0,0.0,0.0,0.0,0.0
2025/05/20 13:08:21.597399872,1747739300,820288473,mA1/imu,0.2544625699680552,0.9670822905620565,0.0007876330983541748,0.0001529725498335308,0.0,0.0,0.0,0.0,0.0,0.0,0.0,0.0,0.0,0.0013356930182807296,0.0020651632703478236,0.0026940037337538324,0.0,0.0,0.0,0.0,0.0,0.0,0.0,0.0,0.0,0.009898372817576212,-0.5857480057390091,9.808957590115131,0.0,0.0,0.0,0.0,0.0,0.0,0.0,0.0,0.0
2025/05/20 13:08:21.970221651,1747739301,11709527,mA1/imu,0.25472523063399877,0.9670132046492723,0.0007015873293643719,0.00016336345977867913,0.0,0.0,0.0,0.0,0.0,0.0,0.0,0.0,0.0,0.0009090528673335222,-0.002432747810521407,0.0027415706046643356,0.0,0.0,0.0,0.0,0.0,0.0,0.0,0.0,0.0,0.008869012902160415,-0.031192579098097944,9.810929318075143,0.0,0.0,0.0,0.0,0.0,0.0,0.0,0.0,0.0
2025/05/20 13:08:21.973291120,1747739301,61158641,mA1/imu,0.2547916660523297,0.9669957120192199,0.0006680719277626094,0.00023135820570366062,0.0,0.0,0.0,0.0,0.0,0.0,0.0,0.0,0.0,-0.0005794076994878049,-0.003281016458906624,0.0027451266123119837,0.0,0.0,0.0,0.0,0.0,0.0,0.0,0.0,0.0,0.0059844662129480645,0.3162604805423892,9.810242088292217,0.0,0.0,0.0,0.0,0.0,0.0,0.0,0.0,0.0
2025/05/20 13:08:21.982107961,1747739301,112092127,mA1/imu,0.2548582297463754,0.9669781764331752,0.0006243820965807718,0.000314927788731717,0.0,0.0,0.0,0.0,0.0,0.0,0.0,0.0,0.0,-0.0003722788308244457,-0.003889813620159504,0.002750741747964996,0.0,0.0,0.0,0.0,0.0,0.0,0.0,0.0,0.0,0.006112184770401593,0.009367936332000344,9.811487336206016,0.0,0.0,0.0,0.0,0.0,0.0,0.0,0.0,0.0
2025/05/20 13:08:21.992007391,1747739301,161873989,mA1/imu,0.2549249638954521,0.9669605786917849,0.0005776883418327721,0.00041026227098846604,0.0,0.0,0.0,0.0,0.0,0.0,0.0,0.0,0.0,0.0003861232862056172,-0.00426867561723199,0.002755533094335241,0.0,0.0,0.0,0.0,0.0,0.0,0.0,0.0,0.0,0.002569417020300728,-0.016432610651630698,9.808051672933733,0.0,0.0,0.0,0.0,0.0,0.0,0.0,0.0,0.0
2025/05/20 13:08:22.2045195,1747739301,212829471,mA1/imu,0.2549919014092957,0.9669429058243998,0.0005332723434850556,0.0005125545294270182,0.0,0.0,0.0,0.0,0.0,0.0,0.0,0.0,0.0,0.001489603647564088,-0.004476879690665615,0.002773192465270465,0.0,0.0,0.0,0.0,0.0,0.0,0.0,0.0,0.0,0.005211749331334638,-0.45962113967553386,9.809702693937576,0.0,0.0,0.0,0.0,0.0,0.0,0.0,0.0,0.0
2025/05/20 13:08:22.12375677,1747739301,262872743,mA1/imu,0.25505948301455866,0.9669250397873463,0.0004958329139973851,0.0006178238473608525,0.0,0.0,0.0,0.0,0.0,0.0,0.0,0.0,0.0,0.0004639126229341738,-0.0044072081607336375,0.0028114347160062576,0.0,0.0,0.0,0.0,0.0,0.0,0.0,0.0,0.0,0.004504410817301144,-0.14809321630695715,9.808517222679813,0.0,0.0,0.0,0.0,0.0,0.0,0.0,0.0,0.0
2025/05/20 13:08:22.969063849,1747739302,20244137,mA1/imu,0.25602082576747476,0.9666708246466599,0.0006812400905904492,0.0006240690873294691,0.0,0.0,0.0,0.0,0.0,0.0,0.0,0.0,0.0,0.0003754805132408781,0.0024502196674777684,0.001987243485088225,0.0,0.0,0.0,0.0,0.0,0.0,0.0,0.0,0.0,0.015830575365365956,-0.5827809875946358,9.808875112065117,0.0,0.0,0.0,0.0,0.0,0.0,0.0,0.0,0.0
2025/05/20 13:08:22.974181768,1747739302,70117458,mA1/imu,0.2560680862952104,0.966658326427881,0.0006996182062177919,0.0005706690129971968,0.0,0.0,0.0,0.0,0.0,0.0,0.0,0.0,0.0,-0.000645357962067216,0.002104923562665302,0.0019375940219460998,0.0,0.0,0.0,0.0,0.0,0.0,0.0,0.0,0.0,0.016504984696179743,0.5896832958668252,9.81052187600752,0.0,0.0,0.0,0.0,0.0,0.0,0.0,0.0,0.0
2025/05/20 13:08:22.982140374,1747739302,111411233,mA1/imu,0.2561141790899478,0.9666461296999456,0.0007139542610095657,0.0005267584940612437,0.0,0.0,0.0,0.0,0.0,0.0,0.0,0.0,0.0,-0.001368423296380441,0.0016627947090824553,0.0018895394842281781,0.0,0.0,0.0,0.0,0.0,0.0,0.0,0.0,0.0,0.016437422672666478,0.5280032800290694,9.810107697407009,0.0,0.0,0.0,0.0,0.0,0.0,0.0,0.0,0.0
2025/05/20 13:08:22.990342936,1747739302,160897300,mA1/imu,0.2561597870487533,0.9666340587631463,0.0007195887598567479,0.0004920673126830944,0.0,0.0,0.0,0.0,0.0,0.0,0.0,0.0,0.0,0.0002988686810039816,0.0012230068581356457,0.0018979857587381505,0.0,0.0,0.0,0.0,0.0,0.0,0.0,0.0,0.0,0.012237465568414947,-0.6267748088890466,9.808920224982788,0.0,0.0,0.0,0.0,0.0,0.0,0.0,0.0,0.0
2025/05/20 13:08:23.919410144,1747739302,968007700,mA1/imu,0.25682138886900385,0.9664584573297779,0.00043925253487213763,0.000794690098313982,0.0,0.0,0.0,0.0,0.0,0.0,0.0,0.0,0.0,-0.0003321830603717364,6.797702160988453e-05,0.0017366030055128597,0.0,0.0,0.0,0.0,0.0,0.0,0.0,0.0,0.0,0.01364807847706748,0.014441761094137529,9.810586063404822,0.0,0.0,0.0,0.0,0.0,0.0,0.0,0.0,0.0
2025/05/20 13:08:23.919911995,1747739303,18895548,mA1/imu,0.2568628053074119,0.9664474454493313,0.00045507021961449414,0.0007920512378686275,0.0,0.0,0.0,0.0,0.0,0.0,0.0,0.0,0.0,-0.00026803994117819915,0.00038373317778741726,0.0017004625500399969,0.0,0.0,0.0,0.0,0.0,0.0,0.0,0.0,0.0,0.013613757954760055,-0.5978997807077205,9.810214424786935,0.0,0.0,0.0,0.0,0.0,0.0,0.0,0.0,0.0
2025/05/20 13:08:23.929659377,1747739303,68980867,mA1/imu,0.25690335153372945,0.9664366639278376,0.00047777454785685486,0.0007837845688577486,0.0,0.0,0.0,0.0,0.0,0.0,0.0,0.0,0.0,-0.0008169840802597327,0.0006680192471063325,0.0016649369789910745,0.0,0.0,0.0,0.0,0.0,0.0,0.0,0.0,0.0,0.013527095423799318,0.1221778773846639,9.809469417956961,0.0,0.0,0.0,0.0,0.0,0.0,0.0,0.0,0.0
2025/05/20 13:08:23.940196517,1747739303,120505615,mA1/imu,0.2569430462054636,0.9664261084927797,0.0005051158878088041,0.0007698623896452927,0.0,0.0,0.0,0.0,0.0,0.0,0.0,0.0,0.0,-0.0009491065776271065,0.000910432192757454,0.001630222964979138,0.0,0.0,0.0,0.0,0.0,0.0,0.0,0.0,0.0,0.013987477435093452,-0.0015050693905953125,9.810587735650941,0.0,0.0,0.0,0.0,0.0,0.0,0.0,0.0,0.0
2025/05/20 13:08:23.950454310,1747739303,169860711,mA1/imu,0.25698084305825625,0.9664160627549404,0.0005278216228531676,0.0007492360385948152,0.0,0.0,0.0,0.0,0.0,0.0,0.0,0.0,0.0,-0.0002726048750460444,0.0011053729300886585,0.0015213745315677649,0.0,0.0,0.0,0.0,0.0,0.0,0.0,0.0,0.0,0.013540172134851893,0.046654888449271376,9.807794183409174,0.0,0.0,0.0,0.0,0.0,0.0,0.0,0.0,0.0
2025/05/20 13:08:23.960541529,1747739303,220741050,mA1/imu,0.25701696000951674,0.9664064544211837,0.0005635061360865028,0.0007277234212256429,0.0,0.0,0.0,0.0,0.0,0.0,0.0,0.0,0.0,-0.0003409888601298811,0.0012439420246601782,0.0014799262811536513,0.0,0.0,0.0,0.0,0.0,0.0,0.0,0.0,0.0,0.013782229617843773,0.04455978252493433,9.809210130451458,0.0,0.0,0.0,0.0,0.0,0.0,0.0,0.0,0.0
2025/05/20 13:08:24.918306252,1747739303,967630163,mA1/imu,0.2574921548224559,0.9662800297079267,0.0005055275461055387,0.0006624457990601212,0.0,0.0,0.0,0.0,0.0,0.0,0.0,0.0,0.0,-0.00016983500441366232,-0.0010255416178948686,0.0011475988030593897,0.0,0.0,0.0,0.0,0.0,0.0,0.0,0.0,0.0,0.012825863312832834,0.5474561775013668,9.810851929288274,0.0,0.0,0.0,0.0,0.0,0.0,0.0,0.0,0.0
2025/05/20 13:08:24.919283437,1747739304,18896566,mA1/imu,0.2575194788875557,0.9662727537278382,0.0004712474586052461,0.0006792072844086587,0.0,0.0,0.0,0.0,0.0,0.0,0.0,0.0,0.0,-0.00027852956186948346,-0.0009606752748600084,0.0011183051089381918,0.0,0.0,0.0,0.0,0.0,0.0,0.0,0.0,0.0,0.012959606342258909,0.5445649216517757,9.810248785840788,0.0,0.0,0.0,0.0,0.0,0.0,0.0,0.0,0.0
2025/05/20 13:08:24.929212410,1747739304,68473916,mA1/imu,0.25754612742991606,0.9662656543417323,0.0004420874519872727,0.0006942939451663305,0.0,0.0,0.0,0.0,0.0,0.0,0.0,0.0,0.0,0.00023326577646149387,-0.0008187427019652941,0.0010913365021266352,0.0,0.0,0.0,0.0,0.0,0.0,0.0,0.0,0.0,0.012102792943414726,-0.04115941329565516,9.808964662791354,0.0,0.0,0.0,0.0,0.0,0.0,0.0,0.0,0.0
2025/05/20 13:08:24.939672681,1747739304,120141560,mA1/imu,0.25757213234067866,0.9662587283127193,0.0004120867395625746,0.0007048301081141716,0.0,0.0,0.0,0.0,0.0,0.0,0.0,0.0,0.0,0.0016894379228030135,-0.0006397783900726766,0.0010649883790867136,0.0,0.0,0.0,0.0,0.0,0.0,0.0,0.0,0.0,0.012116620350830965,-0.5623846111513935,9.809583861527544,0.0,0.0,0.0,0.0,0.0,0.0,0.0,0.0,0.0
2025/05/20 13:08:24.950014041,1747739304,169514421,mA1/imu,0.25759749735840937,0.9662519723703478,0.0003865711411361514,0.0007112016942356674,0.0,0.0,0.0,0.0,0.0,0.0,0.0,0.0,0.0,0.0014199540296112258,-0.0004233856369753155,0.0010385270777532988,0.0,0.0,0.0,0.0,0.0,0.0,0.0,0.0,0.0,0.012531352686461055,0.0562256675353438,9.810691842555174,0.0,0.0,0.0,0.0,0.0,0.0,0.0,0.0,0.0
2025/05/20 13:08:24.960120460,1747739304,220958583,mA1/imu,0.2576222194489256,0.9662453827700945,0.00037529643711602307,0.000715174291582583,0.0,0.0,0.0,0.0,0.0,0.0,0.0,0.0,0.0,-0.0003813639143003393,-0.0001697311645672932,0.0010127830654825202,0.0,0.0,0.0,0.0,0.0,0.0,0.0,0.0,0.0,0.01213538057148559,0.5781717296809694,9.809664184473755,0.0,0.0,0.0,0.0,0.0,0.0,0.0,0.0,0.0
2025/05/20 13:08:25.917581271,1747739304,966866429,mA1/imu,0.25795231905944654,0.9661573189889252,0.0006451273792139211,0.00046889940325846053,0.0,0.0,0.0,0.0,0.0,0.0,0.0,0.0,0.0,-0.002088431668378948,-0.00012609647493266987,0.0009568484052173974,0.0,0.0,0.0,0.0,0.0,0.0,0.0,0.0,0.0,0.011897341178491849,0.5234974163581816,9.810984921641172,0.0,0.0,0.0,0.0,0.0,0.0,0.0,0.0,0.0
2025/05/20 13:08:25.927626896,1747739305,17844961,mA1/imu,0.25797529707063105,0.9661511812588512,0.0006423673714838625,0.00047793054520869004,0.0,0.0,0.0,0.0,0.0,0.0,0.0,0.0,0.0,-0.0013669751453485525,-0.0005182030300654757,0.0009473830109251033,0.0,0.0,0.0,0.0,0.0,0.0,0.0,0.0,0.0,0.012000609608109562,0.555926168911207,9.810284967637473,0.0,0.0,0.0,0.0,0.0,0.0,0.0,0.0,0.0
2025/05/20 13:08:25.937801209,1747739305,67854590,mA1/imu,0.2579980928121787,0.9661450916065225,0.0006333012061661534,0.0004949742262262691,0.0,0.0,0.0,0.0,0.0,0.0,0.0,0.0,0.0,0.0010581540630781369,-0.0008879108011904187,0.0009402848341318432,0.0,0.0,0.0,0.0,0.0,0.0,0.0,0.0,0.0,0.011459734638259335,0.4578359199513546,9.81152633006259,0.0,0.0,0.0,0.0,0.0,0.0,0.0,0.0,0.0
2025/05/20 13:08:25.947965599,1747739305,119321134,mA1/imu,0.25802071040976,0.9661390436912769,0.0006250680678732218,0.0005201392680619075,0.0,0.0,0.0,0.0,0.0,0.0,0.0,0.0,0.0,0.001312316788138808,-0.001172049800752464,0.0009327943382936824,0.0,0.0,0.0,0.0,0.0,0.0,0.0,0.0,0.0,0.010413663339518993,0.08561648832468245,9.810128719094394,0.0,0.0,0.0,0.0,0.0,0.0,0.0,0.0,0.0
2025/05/20 13:08:25.958294410,1747739305,168809579,mA1/imu,0.25804315085078633,0.966133036842837,0.0006187102249635528,0.0005519216370665235,0.0,0.0,0.0,0.0,0.0,0.0,0.0,0.0,0.0,0.0001080673270465593,-0.0013762401344642843,0.0009254468669828437,0.0,0.0,0.0,0.0,0.0,0.0,0.0,0.0,0.0,0.011037911499176462,-0.01209716372806001,9.811282064783603,0.0,0.0,0.0,0.0,0.0,0.0,0.0,0.0,0.0
2025/05/20 13:08:26.916978862,1747739305,966080714,mA1/imu,0.25835755493611096,0.966048879655318,0.00035170229315031133,0.0009012378356720876,0.0,0.0,0.0,0.0,0.0,0.0,0.0,0.0,0.0,-0.002476194340949374,-0.0006416218081207158,0.0004656519804371758,0.0,0.0,0.0,0.0,0.0,0.0,0.0,0.0,0.0,0.02283784661578707,0.45297816038466915,9.810773809065237,0.0,0.0,0.0,0.0,0.0,0.0,0.0,0.0,0.0
2025/05/20 13:08:26.919396757,1747739306,17261228,mA1/imu,0.25836779732152204,0.9660461215839279,0.00036210099886231986,0.0009171492476764496,0.0,0.0,0.0,0.0,0.0,0.0,0.0,0.0,0.0,-0.0012479872807362453,-0.000381276022810451,0.00039336503310168254,0.0,0.0,0.0,0.0,0.0,0.0,0.0,0.0,0.0,0.02261246710424179,0.6091856622454469,9.811782241075312,0.0,0.0,0.0,0.0,0.0,0.0,0.0,0.0,0.0
2025/05/20 13:08:27.118418121,1747739306,167851624,mA1/imu,0.25838933373805417,0.966040312376776,0.0004505911956054882,0.0009295380359602289,0.0,0.0,0.0,0.0,0.0,0.0,0.0,0.0,0.0,-0.0006124953427344648,0.0006723431170640178,0.00026822103136292535,0.0,0.0,0.0,0.0,0.0,0.0,0.0,0.0,0.0,0.019221075561114423,0.04015433467032379,9.81116805028927,0.0,0.0,0.0,0.0,0.0,0.0,0.0,0.0,0.0
2025/05/20 13:08:27.128426716,1747739306,219181469,mA1/imu,0.258395834903154,0.9660385704409874,0.00048504169003690497,0.0009152374525888747,0.0,0.0,0.0,0.0,0.0,0.0,0.0,0.0,0.0,-0.0012508200063869176,0.001062283155873821,0.0002724279561999618,0.0,0.0,0.0,0.0,0.0,0.0,0.0,0.0,0.0,0.018494616972411393,0.6288266226976608,9.811703457092102,0.0,0.0,0.0,0.0,0.0,0.0,0.0,0.0,0.0
2025/05/20 13:08:27.715205230,1747739306,763298728,mA1/imu,0.25843660933794027,0.9660278184067849,0.0007296464856141238,0.0004905447409690419,0.0,0.0,0.0,0.0,0.0,0.0,0.0,0.0,0.0,-0.00038179054805221756,0.0011415857845942623,-0.0007788488456177342,0.0,0.0,0.0,0.0,0.0,0.0,0.0,0.0,0.0,0.0008909329834666125,0.5563677939979584,9.808663639992934,0.0,0.0,0.0,0.0,0.0,0.0,0.0,0.0,0.0
2025/05/20 13:08:27.716889172,1747739306,815332798,mA1/imu,0.2584189277065621,0.9660325721892165,0.0007212242321640264,0.00045509129186067205,0.0,0.0,0.0,0.0,0.0,0.0,0.0,0.0,0.0,0.00034987130853972667,0.0013788111232530295,-0.0007006501515186421,0.0,0.0,0.0,0.0,0.0,0.0,0.0,0.0,0.0,-0.007746851974903762,-0.035114499066715196,9.809161454295754,0.0,0.0,0.0,0.0,0.0,0.0,0.0,0.0,0.0
2025/05/20 13:08:27.725103877,1747739306,864312740,mA1/imu,0.258401824527616,0.9660371699905164,0.0007154647905562811,0.00041398991123547935,0.0,0.0,0.0,0.0,0.0,0.0,0.0,0.0,0.0,0.0006393075694882185,0.0015991066372540996,-0.0007154466416667856,0.0,0.0,0.0,0.0,0.0,0.0,0.0,0.0,0.0,-0.007446052918812031,-0.6537678840073808,9.809292478125759,0.0,0.0,0.0,0.0,0.0,0.0,0.0,0.0,0.0
2025/05/20 13:08:27.734903933,1747739306,915276223,mA1/imu,0.2583855586405036,0.9660415584632622,0.0006910888515314978,0.00036442297613518537,0.0,0.0,0.0,0.0,0.0,0.0,0.0,0.0,0.0,0.0021179181496085086,0.001685526453012476,-0.000653445718776564,0.0,0.0,0.0,0.0,0.0,0.0,0.0,0.0,0.0,-0.005456478689983077,-0.5597085761963995,9.809025250766153,0.0,0.0,0.0,0.0,0.0,0.0,0.0,0.0,0.0
2025/05/20 13:08:27.745371498,1747739306,968334453,mA1/imu,0.258362835041375,0.9660476600132888,0.0006756483948437949,0.00032795042185032846,0.0,0.0,0.0,0.0,0.0,0.0,0.0,0.0,0.0,0.00015362736419213412,0.0010315689080611086,-0.0011020029610215084,0.0,0.0,0.0,0.0,0.0,0.0,0.0,0.0,0.0,-0.0012632358748826964,0.5594710638287534,9.809539468594688,0.0,0.0,0.0,0.0,0.0,0.0,0.0,0.0,0.0
2025/05/20 13:08:27.756396044,1747739307,13478348,mA1/imu,0.25833614369615604,0.9660548196583331,0.0006584716602014965,0.0002978089615049647,0.0,0.0,0.0,0.0,0.0,0.0,0.0,0.0,0.0,0.0006633775207010306,0.0009558316277842497,-0.0011066008265329342,0.0,0.0,0.0,0.0,0.0,0.0,0.0,0.0,0.0,-0.0060429823706208375,-0.1711286765162543,9.810866916798021,0.0,0.0,0.0,0.0,0.0,0.0,0.0,0.0,0.0
2025/05/20 13:08:28.713301903,1747739307,763390883,mA1/imu,0.2579645145394469,0.9661541009954417,0.0005674783773064976,0.000490241173962681,0.0,0.0,0.0,0.0,0.0,0.0,0.0,0.0,0.0,-0.002477972324472663,-0.0018082615411024146,0.000283940576995275,0.0,0.0,0.0,0.0,0.0,0.0,0.0,0.0,0.0,0.014013271921378908,0.5070862729165782,9.810296918410167,0.0,0.0,0.0,0.0,0.0,0.0,0.0,0.0,0.0
2025/05/20 13:08:28.717282724,1747739307,814787140,mA1/imu,0.2579714590568317,0.9661522168674236,0.0005691107752257042,0.0005443043061331358,0.0,0.0,0.0,0.0,0.0,0.0,0.0,0.0,0.0,-0.001273841420088148,-0.002216279332426788,0.000287258905190756,0.0,0.0,0.0,0.0,0.0,0.0,0.0,0.0,0.0,0.016566820484587002,-0.041225752478390366,9.808424021214726,0.0,0.0,0.0,0.0,0.0,0.0,0.0,0.0,0.0
2025/05/20 13:08:28.724247282,1747739307,864290451,mA1/imu,0.2579776009205038,0.9661505446665075,0.0005623023278474616,0.0006052107104891186,0.0,0.0,0.0,0.0,0.0,0.0,0.0,0.0,0.0,-0.0004348791703207606,-0.0025489981490621548,0.0002231445457163015,0.0,0.0,0.0,0.0,0.0,0.0,0.0,0.0,0.0,0.018603082226218686,0.13641154122890123,9.808805507111115,0.0,0.0,0.0,0.0,0.0,0.0,0.0,0.0,0.0
2025/05/20 13:08:28.734008112,1747739307,915294214,mA1/imu,0.2579823398121182,0.966149229050144,0.0005684410499331593,0.000675592813655625,0.0,0.0,0.0,0.0,0.0,0.0,0.0,0.0,0.0,-0.0022886663923111592,-0.002695710923730442,0.00018867738961556103,0.0,0.0,0.0,0.0,0.0,0.0,0.0,0.0,0.0,0.0163070350118484,0.4559483235199598,9.809427490026534,0.0,0.0,0.0,0.0,0.0,0.0,0.0,0.0,0.0
2025/05/20 13:08:28.744214926,1747739307,965251183,mA1/imu,0.25798973586971474,0.9661472130566271,0.0005583053777221744,0.000739718792769199,0.0,0.0,0.0,0.0,0.0,0.0,0.0,0.0,0.0,-0.0010436614058484729,-0.0024882597789630512,0.0003804904276225417,0.0,0.0,0.0,0.0,0.0,0.0,0.0,0.0,0.0,0.013262766344892648,-0.037009285724790314,9.809341328471831,0.0,0.0,0.0,0.0,0.0,0.0,0.0,0.0,0.0
2025/05/20 13:08:28.754410074,1747739308,16967660,mA1/imu,0.25799921771773837,0.9661446408449134,0.000545239681526705,0.0007995857540116246,0.0,0.0,0.0,0.0,0.0,0.0,0.0,0.0,0.0,0.0007371003022887826,-0.002394518219364851,0.00039739314267110877,0.0,0.0,0.0,0.0,0.0,0.0,0.0,0.0,0.0,0.016532176765476324,0.07588786734403542,9.809565452813509,0.0,0.0,0.0,0.0,0.0,0.0,0.0,0.0,0.0
2025/05/20 13:08:29.714226156,1747739308,763426743,mA1/imu,0.25833162208465854,0.9660559982723522,0.00048014590011822655,0.0005921934083056653,0.0,0.0,0.0,0.0,0.0,0.0,0.0,0.0,0.0,-3.5404454183297995e-05,0.0005819684499606297,0.0011309844794680115,0.0,0.0,0.0,0.0,0.0,0.0,0.0,0.0,0.0,0.021996881518786537,0.1379089452015199,9.811430493637591,0.0,0.0,0.0,0.0,0.0,0.0,0.0,0.0,0.0
2025/05/20 13:08:29.714729940,1747739308,814582660,mA1/imu,0.2583590472295503,0.9660486692265284,0.00048051406898143095,0.0005835293670054888,0.0,0.0,0.0,0.0,0.0,0.0,0.0,0.0,0.0,-0.0001537221222710488,0.00017526344082312753,0.0011392372741918441,0.0,0.0,0.0,0.0,0.0,0.0,0.0,0.0,0.0,0.021814085559951124,-0.021244522240407984,9.811846684817665,0.0,0.0,0.0,0.0,0.0,0.0,0.0,0.0,0.0
2025/05/20 13:08:29.724431645,1747739308,864353923,mA1/imu,0.2583895190801165,0.9660405224763517,0.0004785130995293289,0.0005799899802274073,0.0,0.0,0.0,0.0,0.0,0.0,0.0,0.0,0.0,0.0007383502046434698,3.8883152194352045e-05,0.0013383015235473165,0.0,0.0,0.0,0.0,0.0,0.0,0.0,0.0,0.0,0.018779722764682434,-0.5798650429155473,9.808902559924244,0.0,0.0,0.0,0.0,0.0,0.0,0.0,0.0,0.0
2025/05/20 13:08:29.735280208,1747739308,915364113,mA1/imu,0.25842222667211995,0.9660317723116639,0.00047550299428111256,0.0005844168985536407,0.0,0.0,0.0,0.0,0.0,0.0,0.0,0.0,0.0,-0.00146749376079886,-0.00036328448953605613,0.0013651668990007203,0.0,0.0,0.0,0.0,0.0,0.0,0.0,0.0,0.0,0.02237003887060094,0.5368019275694488,9.811158485099977,0.0,0.0,0.0,0.0,0.0,0.0,0.0,0.0,0.0
2025/05/20 13:08:29.744935940,1747739308,965359108,mA1/imu,0.25845563197922694,0.9660228248997775,0.0004767823339836697,0.0006006242403940104,0.0,0.0,0.0,0.0,0.0,0.0,0.0,0.0,0.0,-0.0010337846402899303,-0.0007762862068040205,0.0013947427208844665,0.0,0.0,0.0,0.0,0.0,0.0,0.0,0.0,0.0,0.02240309685895476,0.574839920983977,9.810701934550483,0.0,0.0,0.0,0.0,0.0,0.0,0.0,0.0,0.0
2025/05/20 13:08:29.755546628,1747739309,16366037,mA1/imu,0.2584897495895527,0.9660136792213462,0.0004778006467011594,0.0006265946941392374,0.0,0.0,0.0,0.0,0.0,0.0,0.0,0.0,0.0,-0.00011919397957934003,-0.001124038656469745,0.001424312783194829,0.0,0.0,0.0,0.0,0.0,0.0,0.0,0.0,0.0,0.021046412100665324,-0.20841307329820422,9.80860437454917,0.0,0.0,0.0,0.0,0.0,0.0,0.0,0.0,0.0
2025/05/20 13:08:30.712253481,1747739309,762408958,mA1/imu,0.25905164155835,0.9658630652851463,0.000596025386349136,0.0006564127085948778,0.0,0.0,0.0,0.0,0.0,0.0,0.0,0.0,0.0,0.0003178299871014613,0.0031712663503304568,0.001585285494142022,0.0,0.0,0.0,0.0,0.0,0.0,0.0,0.0,0.0,0.0051863121750185285,-0.007542898707716145,9.81199781696131,0.0,0.0,0.0,0.0,0.0,0.0,0.0,0.0,0.0
2025/05/20 13:08:30.712828511,1747739309,813747103,mA1/imu,0.2590900596992943,0.9658528070969512,0.0006058536789453034,0.0005735235612064681,0.0,0.0,0.0,0.0,0.0,0.0,0.0,0.0,0.0,0.0007529505955794427,0.003369825983648746,0.0015993846946159723,0.0,0.0,0.0,0.0,0.0,0.0,0.0,0.0,0.0,0.003544452186842727,-0.09159121497625533,9.811521955030608,0.0,0.0,0.0,0.0,0.0,0.0,0.0,0.0,0.0
2025/05/20 13:08:30.723305714,1747739309,863293277,mA1/imu,0.2591278947412425,0.9658427049782121,0.0006068853042493461,0.0004848686102412851,0.0,0.0,0.0,0.0,0.0,0.0,0.0,0.0,0.0,-0.00017952461133580272,0.0034739286358762746,0.0015447984183391428,0.0,0.0,0.0,0.0,0.0,0.0,0.0,0.0,0.0,0.0018850103132333788,0.5737441249977753,9.809563282365907,0.0,0.0,0.0,0.0,0.0,0.0,0.0,0.0,0.0
2025/05/20 13:08:30.734835561,1747739309,914280983,mA1/imu,0.2591652388423407,0.9658327196156953,0.0006143703990364989,0.0003990545764970072,0.0,0.0,0.0,0.0,0.0,0.0,0.0,0.0,0.0,0.0004738691810352945,0.0033274732105867035,0.0015520712560977276,0.0,0.0,0.0,0.0,0.0,0.0,0.0,0.0,0.0,0.0029670740408128454,0.31708872187826576,9.811174431682657,0.0,0.0,0.0,0.0,0.0,0.0,0.0,0.0,0.0
2025/05/20 13:08:30.744074466,1747739309,964303490,mA1/imu,0.2592023410967019,0.9658227935047774,0.0006148258420043958,0.00031607878935629855,0.0,0.0,0.0,0.0,0.0,0.0,0.0,0.0,0.0,0.0005414621025226557,0.0031123221002879457,0.0015273902761057151,0.0,0.0,0.0,0.0,0.0,0.0,0.0,0.0,0.0,0.0012780504032086915,0.19177144750891154,9.812183754472548,0.0,0.0,0.0,0.0,0.0,0.0,0.0,0.0,0.0
2025/05/20 13:08:30.754412544,1747739310,15384022,mA1/imu,0.25923918306338306,0.9658129291268676,0.0006113650377872623,0.00024109915072824167,0.0,0.0,0.0,0.0,0.0,0.0,0.0,0.0,0.0,0.0017472115493503773,0.002683348809100127,0.0015289881867240499,0.0,0.0,0.0,0.0,0.0,0.0,0.0,0.0,0.0,0.0016540842262839847,0.18169913422242184,9.811446947067164,0.0,0.0,0.0,0.0,0.0,0.0,0.0,0.0,0.0
2025/05/20 13:08:31.721284049,1747739310,761235566,mA1/imu,0.2595947334390592,0.965717392385377,0.0005328422221928957,0.0004566117145718791,0.0,0.0,0.0,0.0,0.0,0.0,0.0,0.0,0.0,0.00035956594465721503,3.724060091064228e-05,-0.0004170446303950259,0.0,0.0,0.0,0.0,0.0,0.0,0.0,0.0,0.0,-0.0009490958642862412,0.07418651530456226,9.807937963410161,0.0,0.0,0.0,0.0,0.0,0.0,0.0,0.0,0.0
2025/05/20 13:08:31.726260385,1747739310,812397074,mA1/imu,0.259575789992393,0.965722469159955,0.0005579177432856732,0.00045884334662357306,0.0,0.0,0.0,0.0,0.0,0.0,0.0,0.0,0.0,-0.0008914929283239168,0.00023123439734244636,-0.0010338328753209324,0.0,0.0,0.0,0.0,0.0,0.0,0.0,0.0,0.0,-0.0047958682612545735,0.5586993585007657,9.81248889509471,0.0,0.0,0.0,0.0,0.0,0.0,0.0,0.0,0.0
2025/05/20 13:08:31.733260495,1747739310,862080725,mA1/imu,0.25955001681880785,0.9657293825458315,0.0005904320320864216,0.00044704252462476673,0.0,0.0,0.0,0.0,0.0,0.0,0.0,0.0,0.0,-0.0017019358598664629,0.001192578935530726,-0.0010596973519239438,0.0,0.0,0.0,0.0,0.0,0.0,0.0,0.0,0.0,-0.02277035179016037,-0.05167742014455622,9.811037339362437,0.0,0.0,0.0,0.0,0.0,0.0,0.0,0.0,0.0
2025/05/20 13:08:31.745391876,1747739310,913616086,mA1/imu,0.2595229000805312,0.9657366703710739,0.0006153189502139843,0.00041135990524070925,0.0,0.0,0.0,0.0,0.0,0.0,0.0,0.0,0.0,-0.002274817850417056,0.0019290019767702372,-0.0011642469594094406,0.0,0.0,0.0,0.0,0.0,0.0,0.0,0.0,0.0,-0.02058007026732607,0.2562562493252976,9.811965297374059,0.0,0.0,0.0,0.0,0.0,0.0,0.0,0.0,0.0
2025/05/20 13:08:31.756835200,1747739310,962861157,mA1/imu,0.25949318132310545,0.9657446608927472,0.0006404945364273313,0.00035856758811810994,0.0,0.0,0.0,0.0,0.0,0.0,0.0,0.0,0.0,-0.0022957873530910335,0.002546739359427239,-0.001272367896092817,0.0,0.0,0.0,0.0,0.0,0.0,0.0,0.0,0.0,-0.020809794916817385,0.5146248498824996,9.810503334826725,0.0,0.0,0.0,0.0,0.0,0.0,0.0,0.0,0.0
2025/05/20 13:08:31.759487790,1747739311,13808498,mA1/imu,0.2594608882355689,0.965753351112979,0.0006542792368949224,0.00029018742379034767,0.0,0.0,0.0,0.0,0.0,0.0,0.0,0.0,0.0,0.0004592331280722569,0.002948154535643311,-0.001379047851088194,0.0,0.0,0.0,0.0,0.0,0.0,0.0,0.0,0.0,-0.019444422389154236,0.07356938757195132,9.811091790351407,0.0,0.0,0.0,0.0,0.0,0.0,0.0,0.0,0.0
2025/05/20 13:08:31.766066404,1747739311,63795229,mA1/imu,0.25942595455528455,0.9657627321399048,0.0006867329868647468,0.00021842744941003147,0.0,0.0,0.0,0.0,0.0,0.0,0.0,0.0,0.0,-0.0012752015859885768,0.003195903949498678,-0.001488282812603227,0.0,0.0,0.0,0.0,0.0,0.0,0.0,0.0,0.0,-0.018394364510079676,0.4908789018439217,9.811857246547508,0.0,0.0,0.0,0.0,0.0,0.0,0.0,0.0,0.0
2025/05/20 13:08:32.719670500,1747739311,770301498,mA1/imu,0.2588703293659912,0.9659119250450774,0.0004712998406834612,0.00028897424880293843,0.0,0.0,0.0,0.0,0.0,0.0,0.0,0.0,0.0,-0.0001258898497811482,-0.005029480487905909,-0.0014900734091155422,0.0,0.0,0.0,0.0,0.0,0.0,0.0,0.0,0.0,0.0012836654155586793,0.005269235033933575,9.810994709747828,0.0,0.0,0.0,0.0,0.0,0.0,0.0,0.0,0.0
2025/05/20 13:08:32.721416250,1747739311,817187136,mA1/imu,0.258834058854996,0.9659216145916873,0.00044028766167558274,0.00041302301537585797,0.0,0.0,0.0,0.0,0.0,0.0,0.0,0.0,0.0,-9.752578599395704e-05,-0.005131316141548351,-0.0015153239534699025,0.0,0.0,0.0,0.0,0.0,0.0,0.0,0.0,0.0,0.00023278041678879025,0.02007702140861023,9.80892359921386,0.0,0.0,0.0,0.0,0.0,0.0,0.0,0.0,0.0
2025/05/20 13:08:32.731705464,1747739311,866581765,mA1/imu,0.25879807453174203,0.9659312069193364,0.00041521258549854503,0.0005363921381752255,0.0,0.0,0.0,0.0,0.0,0.0,0.0,0.0,0.0,-6.415705266253727e-05,-0.004923503125074683,-0.0014744162437990488,0.0,0.0,0.0,0.0,0.0,0.0,0.0,0.0,0.0,-0.00016800641864219736,0.03215935239759798,9.808385197289459,0.0,0.0,0.0,0.0,0.0,0.0,0.0,0.0,0.0
2025/05/20 13:08:32.741842449,1747739311,918091587,mA1/imu,0.2587623417214579,0.965940714740272,0.00039863646804026747,0.0006536075629828927,0.0,0.0,0.0,0.0,0.0,0.0,0.0,0.0,0.0,-0.0006055258752589406,-0.004521664742278207,-0.0014871921732804068,0.0,0.0,0.0,0.0,0.0,0.0,0.0,0.0,0.0,0.0008794106548191231,0.0052341329920262795,9.809725598441,0.0,0.0,0.0,0.0,0.0,0.0,0.0,0.0,0.0
2025/05/20 13:08:32.752220891,1747739311,960867344,mA1/imu,0.2587261106082555,0.9659503455668221,0.0003912019614469275,0.0007593088218214076,0.0,0.0,0.0,0.0,0.0,0.0,0.0,0.0,0.0,-0.0009212861565795907,-0.0038964341139580533,-0.0015107136830805885,0.0,0.0,0.0,0.0,0.0,0.0,0.0,0.0,0.0,0.0007101447222708883,-0.6375204081048584,9.809319517819167,0.0,0.0,0.0,0.0,0.0,0.0,0.0,0.0,0.0
2025/05/20 13:08:32.762562480,1747739312,12775088,mA1/imu,0.2586893229777755,0.9659601351443184,0.00037518423436383154,0.0008430457049293155,0.0,0.0,0.0,0.0,0.0,0.0,0.0,0.0,0.0,0.00032241220236084515,-0.0030419986571951696,-0.001533599247175511,0.0,0.0,0.0,0.0,0.0,0.0,0.0,0.0,0.0,-0.0002809427049919877,-0.5488238972265672,9.808848948749601,0.0,0.0,0.0,0.0,0.0,0.0,0.0,0.0,0.0
2025/05/20 13:08:33.720281099,1747739312,769534444,mA1/imu,0.25821633646287423,0.9660868528757903,0.0005627141078888683,0.00044680764939589374,0.0,0.0,0.0,0.0,0.0,0.0,0.0,0.0,0.0,0.0018663934583524916,-0.0018699580372233298,-0.0007998915298409662,0.0,0.0,0.0,0.0,0.0,0.0,0.0,0.0,0.0,0.02688970736986962,-0.5300377635076174,9.809154959412492,0.0,0.0,0.0,0.0,0.0,0.0,0.0,0.0,0.0
2025/05/20 13:08:33.721185510,1747739312,820544244,mA1/imu,0.2581980895087075,0.9660917188552115,0.0005354375496430273,0.0005006396576889894,0.0,0.0,0.0,0.0,0.0,0.0,0.0,0.0,0.0,0.0009822234758242153,-0.002680129505694928,-0.000728506358273344,0.0,0.0,0.0,0.0,0.0,0.0,0.0,0.0,0.0,0.025508895738675968,0.03442786786530955,9.810082285100684,0.0,0.0,0.0,0.0,0.0,0.0,0.0,0.0,0.0
2025/05/20 13:08:33.732234263,1747739312,860350598,mA1/imu,0.25818157201725195,0.9660961084929309,0.0005070841850968711,0.000572617799920183,0.0,0.0,0.0,0.0,0.0,0.0,0.0,0.0,0.0,-0.0002885655775710417,-0.0033115398450052035,-0.0006573944862538233,0.0,0.0,0.0,0.0,0.0,0.0,0.0,0.0,0.0,0.02491562870814592,-0.11703898285564245,9.810758993406784,0.0,0.0,0.0,0.0,0.0,0.0,0.0,0.0,0.0
2025/05/20 13:08:33.742209237,1747739312,912016927,mA1/imu,0.25816678245839536,0.9661000304016232,0.00046460390467101536,0.0006540919462542934,0.0,0.0,0.0,0.0,0.0,0.0,0.0,0.0,0.0,-0.0003936080088122292,-0.0037316822085391305,-0.0005861845637762421,0.0,0.0,0.0,0.0,0.0,0.0,0.0,0.0,0.0,0.024074257635993128,-0.0685915073865937,9.810223128377054,0.0,0.0,0.0,0.0,0.0,0.0,0.0,0.0,0.0
2025/05/20 13:08:33.752504775,1747739312,961241349,mA1/imu,0.2581537075555466,0.9661034852914919,0.0004131290850420455,0.0007404777624549964,0.0,0.0,0.0,0.0,0.0,0.0,0.0,0.0,0.0,0.0009437223996108065,-0.003918683970654075,-0.0005165660009065065,0.0,0.0,0.0,0.0,0.0,0.0,0.0,0.0,0.0,0.022382344631215773,0.03939283643625238,9.80813686070413,0.0,0.0,0.0,0.0,0.0,0.0,0.0,0.0,0.0
2025/05/20 13:08:33.762878914,1747739313,13066246,mA1/imu,0.25814226673540774,0.9661064871847403,0.0003698049830528857,0.0008299328535520466,0.0,0.0,0.0,0.0,0.0,0.0,0.0,0.0,0.0,0.0008393729307076762,-0.003856947210253685,-0.0004487606210373062,0.0,0.0,0.0,0.0,0.0,0.0,0.0,0.0,0.0,0.02027053454539026,0.6517847202629794,9.810438152899001,0.0,0.0,0.0,0.0,0.0,0.0,0.0,0.0,0.0
2025/05/20 13:08:34.718617790,1747739313,768771100,mA1/imu,0.2582112602924985,0.9660882486262735,0.0005177908955279309,0.0004157126020438264,0.0,0.0,0.0,0.0,0.0,0.0,0.0,0.0,0.0,-0.0007282150905528005,0.003567345645156362,0.0006569908669835753,0.0,0.0,0.0,0.0,0.0,0.0,0.0,0.0,0.0,0.015547906854358303,0.6473087601190164,9.811320525688554,0.0,0.0,0.0,0.0,0.0,0.0,0.0,0.0,0.0
2025/05/20 13:08:34.719612763,1747739313,819992907,mA1/imu,0.25822783186330256,0.9660838199404717,0.0005657463451011998,0.00034587783589461456,0.0,0.0,0.0,0.0,0.0,0.0,0.0,0.0,0.0,-0.0017266522193153345,0.0029226530932565326,0.0007090401404430193,0.0,0.0,0.0,0.0,0.0,0.0,0.0,0.0,0.0,0.016116270891835052,0.5799321386686862,9.810939181266113,0.0,0.0,0.0,0.0,0.0,0.0,0.0,0.0,0.0
2025/05/20 13:08:34.729843795,1747739313,869691470,mA1/imu,0.2582488290253239,0.9660782011846889,0.0006065491415280606,0.00028913827747201193,0.0,0.0,0.0,0.0,0.0,0.0,0.0,0.0,0.0,-0.0015516359520083495,0.0023753232729590177,0.0009716466760594281,0.0,0.0,0.0,0.0,0.0,0.0,0.0,0.0,0.0,0.01324079717263234,-0.03879950498548669,9.810221843943559,0.0,0.0,0.0,0.0,0.0,0.0,0.0,0.0,0.0
2025/05/20 13:08:34.741383550,1747739313,921307527,mA1/imu,0.258273399331482,0.9660716291891751,0.0006296339569758147,0.00024906748894549895,0.0,0.0,0.0,0.0,0.0,0.0,0.0,0.0,0.0,0.0003947604308649576,0.0013880315650204344,0.001049755580431224,0.0,0.0,0.0,0.0,0.0,0.0,0.0,0.0,0.0,0.017755882285985233,-0.5423127122316209,9.808255756105297,0.0,0.0,0.0,0.0,0.0,0.0,0.0,0.0,0.0
2025/05/20 13:08:34.752151542,1747739313,960390294,mA1/imu,0.2582998585678332,0.9660645472063308,0.0006472865365700814,0.00023391238570269457,0.0,0.0,0.0,0.0,0.0,0.0,0.0,0.0,0.0,0.0001261735470759754,0.00034022888630496403,0.0011270402098952244,0.0,0.0,0.0,0.0,0.0,0.0,0.0,0.0,0.0,0.018257076301994024,0.05288824468374646,9.809501244159053,0.0,0.0,0.0,0.0,0.0,0.0,0.0,0.0,0.0
2025/05/20 13:08:34.761877959,1747739314,11728715,mA1/imu,0.2583281847189209,0.9660569629037978,0.0006586083083003893,0.000244213049389032,0.0,0.0,0.0,0.0,0.0,0.0,0.0,0.0,0.0,-0.0012107270420690075,-0.0006953971772107847,0.0012031565144338277,0.0,0.0,0.0,0.0,0.0,0.0,0.0,0.0,0.0,0.017297480082307533,0.5834844717253443,9.810802679848749,0.0,0.0,0.0,0.0,0.0,0.0,0.0,0.0,0.0
2025/05/20 13:08:35.718844859,1747739314,767890178,mA1/imu,0.2589257423288151,0.9658968415798792,0.00031391986497927133,0.0008079850272670773,0.0,0.0,0.0,0.0,0.0,0.0,0.0,0.0,0.0,-0.0007662668209234167,0.003230314956245541,0.0021642318163525133,0.0,0.0,0.0,0.0,0.0,0.0,0.0,0.0,0.0,0.0017592237925407577,0.5730082192380248,9.80969461477403,0.0,0.0,0.0,0.0,0.0,0.0,0.0,0.0,0.0
2025/05/20 13:08:35.720108854,1747739314,818867695,mA1/imu,0.25897889487685755,0.9658826510663316,0.0003374326804094971,0.0007228531128502144,0.0,0.0,0.0,0.0,0.0,0.0,0.0,0.0,0.0,-0.00026581321883178873,0.0037168897491549144,0.0022278010193044887,0.0,0.0,0.0,0.0,0.0,0.0,0.0,0.0,0.0,0.009065062483499045,0.20788905870463115,9.809618467576206,0.0,0.0,0.0,0.0,0.0,0.0,0.0,0.0,0.0
2025/05/20 13:08:35.729087597,1747739314,868732767,mA1/imu,0.2590335734219435,0.965868045713251,0.00036270225003676523,0.0006281380435845879,0.0,0.0,0.0,0.0,0.0,0.0,0.0,0.0,0.0,0.000588122283728273,0.004011862063427912,0.0022912054883379687,0.0,0.0,0.0,0.0,0.0,0.0,0.0,0.0,0.0,0.009572225904067998,-0.28869527402324213,9.808188638556679,0.0,0.0,0.0,0.0,0.0,0.0,0.0,0.0,0.0
2025/05/20 13:08:36.212803536,1747739315,262802496,mA1/imu,0.2595271824997895,0.9657355852064392,0.0006169082281926684,0.00020108191189399546,0.0,0.0,0.0,0.0,0.0,0.0,0.0,0.0,0.0,-0.0013213432790699575,-0.0006316563053807052,0.0028348598682216494,0.0,0.0,0.0,0.0,0.0,0.0,0.0,0.0,0.0,0.012456489399721495,0.15120511042670323,9.80895230376717,0.0,0.0,0.0,0.0,0.0,0.0,0.0,0.0,0.0
2025/05/20 13:08:36.213587742,1747739315,314402036,mA1/imu,0.2595964472030951,0.9657169528778471,0.0006295421905817204,0.00023494783833111774,0.0,0.0,0.0,0.0,0.0,0.0,0.0,0.0,0.0,-0.0015191993122617576,-0.00152006394813016,0.002890611219941404,0.0,0.0,0.0,0.0,0.0,0.0,0.0,0.0,0.0,0.011904055776467153,0.5955092266716528,9.809788004801097,0.0,0.0,0.0,0.0,0.0,0.0,0.0,0.0,0.0
2025/05/20 13:08:36.222924128,1747739315,363800638,mA1/imu,0.2596670638187376,0.965697950379473,0.000633867584381416,0.00028777165612620435,0.0,0.0,0.0,0.0,0.0,0.0,0.0,0.0,0.0,-0.001254426099706932,-0.00229213650425691,0.0029462127007985734,0.0,0.0,0.0,0.0,0.0,0.0,0.0,0.0,0.0,0.011407915448851988,0.5078054239410852,9.811621797602598,0.0,0.0,0.0,0.0,0.0,0.0,0.0,0.0,0.0
2025/05/20 13:08:36.414500610,1747739315,464896101,mA1/imu,0.2598114362497966,0.9656590658186115,0.0006292905572699546,0.0004361072564020147,0.0,0.0,0.0,0.0,0.0,0.0,0.0,0.0,0.0,-0.0005308611839330336,-0.0031846009512823837,0.0029891052748197465,0.0,0.0,0.0,0.0,0.0,0.0,0.0,0.0,0.0,0.0043294623156864805,0.005652943884685398,9.810800865142888,0.0,0.0,0.0,0.0,0.0,0.0,0.0,0.0,0.0
2025/05/20 13:08:36.420954748,1747739315,515997618,mA1/imu,0.259884275787495,0.9656394306965749,0.0006205634377854062,0.0005176711541470726,0.0,0.0,0.0,0.0,0.0,0.0,0.0,0.0,0.0,-5.446594683427993e-05,-0.0032644405513028406,0.003033446083150912,0.0,0.0,0.0,0.0,0.0,0.0,0.0,0.0,0.0,0.004370184446243378,-0.1599496576336095,9.810278292329325,0.0,0.0,0.0,0.0,0.0,0.0,0.0,0.0,0.0
2025/05/20 13:08:36.431330728,1747739315,565959601,mA1/imu,0.25995677000291834,0.965619882638218,0.0006042534758101193,0.0005957022251767846,0.0,0.0,0.0,0.0,0.0,0.0,0.0,0.0,0.0,0.0006123692583315725,-0.003098210195035508,0.002976804121065437,0.0,0.0,0.0,0.0,0.0,0.0,0.0,0.0,0.0,0.0013590999016561255,-0.5627832969897693,9.809240940762871,0.0,0.0,0.0,0.0,0.0,0.0,0.0,0.0,0.0
2025/05/20 13:08:36.443684813,1747739315,616900347,mA1/imu,0.2600288767821376,0.9656004292282686,0.0005910236662778653,0.000667086672979976,0.0,0.0,0.0,0.0,0.0,0.0,0.0,0.0,0.0,-0.0006960146173700671,-0.002740415903871642,0.002991244430508359,0.0,0.0,0.0,0.0,0.0,0.0,0.0,0.0,0.0,0.0014419578704168538,0.5334956833602761,9.811224886135479,0.0,0.0,0.0,0.0,0.0,0.0,0.0,0.0,0.0
2025/05/20 13:08:36.453958046,1747739315,666756054,mA1/imu,0.2601013280151158,0.9655808873581028,0.000569266581729765,0.0007246164990144504,0.0,0.0,0.0,0.0,0.0,0.0,0.0,0.0,0.0,0.00031976797246945196,-0.002244199578471619,0.0030052000153373737,0.0,0.0,0.0,0.0,0.0,0.0,0.0,0.0,0.0,0.001356999295876708,0.01701314142708825,9.810962044667987,0.0,0.0,0.0,0.0,0.0,0.0,0.0,0.0,0.0
2025/05/20 13:08:36.464665620,1747739315,717864293,mA1/imu,0.26017410305634264,0.9655612557769668,0.0005531286269725331,0.0007690838424228114,0.0,0.0,0.0,0.0,0.0,0.0,0.0,0.0,0.0,-1.7346165297379242e-05,-0.0016377735634164425,0.0030188972597918135,0.0,0.0,0.0,0.0,0.0,0.0,0.0,0.0,0.0,0.0011930886636872928,-0.0187840224928704,9.810265567370763,0.0,0.0,0.0,0.0,0.0,0.0,0.0,0.0,0.0
2025/05/20 13:08:37.415378479,1747739316,464343235,mA1/imu,0.2613531374980697,0.965243098161602,0.0005093359019664387,0.00019886740746851578,0.0,0.0,0.0,0.0,0.0,0.0,0.0,0.0,0.0,0.0002864401192484951,-0.00047150275809448074,0.0035516150044038516,0.0,0.0,0.0,0.0,0.0,0.0,0.0,0.0,0.0,0.015726652284157972,0.22983639348428478,9.811634941972233,0.0,0.0,0.0,0.0,0.0,0.0,0.0,0.0,0.0
2025/05/20 13:08:37.415993791,1747739316,515394276,mA1/imu,0.2614390305150627,0.96521982698122,0.0005172370295479394,0.00022669702919020824,0.0,0.0,0.0,0.0,0.0,0.0,0.0,0.0,0.0,0.0005510827233488891,-0.0013405855351090008,0.003563682052759559,0.0,0.0,0.0,0.0,0.0,0.0,0.0,0.0,0.0,0.01184282936087479,0.09386257250044147,9.809376338772195,0.0,0.0,0.0,0.0,0.0,0.0,0.0,0.0,0.0
2025/05/20 13:08:37.425229657,1747739316,565180773,mA1/imu,0.2615234534473136,0.9651969401761665,0.0005238374448370681,0.0002748925021899502,0.0,0.0,0.0,0.0,0.0,0.0,0.0,0.0,0.0,6.217429349725333e-05,-0.0020904327844347924,0.003453476299140957,0.0,0.0,0.0,0.0,0.0,0.0,0.0,0.0,0.0,0.011401657017477394,0.06607154729706072,9.809381657934342,0.0,0.0,0.0,0.0,0.0,0.0,0.0,0.0,0.0
2025/05/20 13:08:37.436871698,1747739316,616562770,mA1/imu,0.2616064082114589,0.9651744364930538,0.0005282562152784286,0.00033951198297540845,0.0,0.0,0.0,0.0,0.0,0.0,0.0,0.0,0.0,0.00024977653773961786,-0.0026783807518331953,0.0034257387708386067,0.0,0.0,0.0,0.0,0.0,0.0,0.0,0.0,0.0,0.008598486054394356,0.09102685430017629,9.81030434533104,0.0,0.0,0.0,0.0,0.0,0.0,0.0,0.0,0.0
2025/05/20 13:08:37.446256803,1747739316,665985669,mA1/imu,0.2616918873570979,0.9651512283081994,0.0005391586403360086,0.0004146017538420702,0.0,0.0,0.0,0.0,0.0,0.0,0.0,0.0,0.0,-0.00038963385410992104,-0.002872461492840152,0.003611653704372696,0.0,0.0,0.0,0.0,0.0,0.0,0.0,0.0,0.0,0.007603378809271929,0.04791538277111107,9.809649364555602,0.0,0.0,0.0,0.0,0.0,0.0,0.0,0.0,0.0
2025/05/20 13:08:37.456701061,1747739316,717681980,mA1/imu,0.26177921335696974,0.9651275079023524,0.0005411060768209239,0.0004941139689673812,0.0,0.0,0.0,0.0,0.0,0.0,0.0,0.0,0.0,-0.0017928259639429303,-0.003156444452478018,0.0036216875490796855,0.0,0.0,0.0,0.0,0.0,0.0,0.0,0.0,0.0,0.010126446496016926,-0.048902130105734326,9.81021272221769,0.0,0.0,0.0,0.0,0.0,0.0,0.0,0.0,0.0
2025/05/20 13:08:38.170613387,1747739317,211813474,mA1/imu,0.2626655170129112,0.9648864359184312,0.0005148679035443498,0.0008525631995046376,0.0,0.0,0.0,0.0,0.0,0.0,0.0,0.0,0.0,0.0011693517791972463,0.0017284831773382266,0.003719966118473845,0.0,0.0,0.0,0.0,0.0,0.0,0.0,0.0,0.0,0.007140537420822128,-0.46551171035954675,9.809427569533343,0.0,0.0,0.0,0.0,0.0,0.0,0.0,0.0,0.0
2025/05/20 13:08:38.174188189,1747739317,261382955,mA1/imu,0.26275636880145886,0.9648617452579022,0.0005157359776562994,0.0007982534360538966,0.0,0.0,0.0,0.0,0.0,0.0,0.0,0.0,0.0,-6.652170056131821e-05,0.002351233568009434,0.0038127978926379476,0.0,0.0,0.0,0.0,0.0,0.0,0.0,0.0,0.0,0.004199111302387405,0.5331500553189538,9.81065944200904,0.0,0.0,0.0,0.0,0.0,0.0,0.0,0.0,0.0
2025/05/20 13:08:38.174236052,1747739317,313214613,mA1/imu,0.2628484423468334,0.9648367220504703,0.0005126931916439212,0.0007302632663901457,0.0,0.0,0.0,0.0,0.0,0.0,0.0,0.0,0.0,0.0007498585504105522,0.0027319948497894395,0.003820961715702827,0.0,0.0,0.0,0.0,0.0,0.0,0.0,0.0,0.0,0.008426166190367219,-0.08893618077112293,9.809920602276527,0.0,0.0,0.0,0.0,0.0,0.0,0.0,0.0,0.0
2025/05/20 13:08:38.181259676,1747739317,362307696,mA1/imu,0.26294068637626006,0.9648116442563586,0.0005087946324254552,0.0006539750339500984,0.0,0.0,0.0,0.0,0.0,0.0,0.0,0.0,0.0,0.0009753712162158602,0.0029899240494649705,0.003827939712908547,0.0,0.0,0.0,0.0,0.0,0.0,0.0,0.0,0.0,0.008757121329313548,0.13718897457601215,9.809914040516109,0.0,0.0,0.0,0.0,0.0,0.0,0.0,0.0,0.0
2025/05/20 13:08:38.192040878,1747739317,414103766,mA1/imu,0.26303310693840903,0.9647864999909461,0.0005122769742646835,0.0005759009024870132,0.0,0.0,0.0,0.0,0.0,0.0,0.0,0.0,0.0,7.78586830109689e-05,0.0030533398765211156,0.0038355451572413385,0.0,0.0,0.0,0.0,0.0,0.0,0.0,0.0,0.0,0.011508664433769428,0.23668481319083637,9.80948554297999,0.0,0.0,0.0,0.0,0.0,0.0,0.0,0.0,0.0
2025/05/20 13:08:38.202441981,1747739317,463119083,mA1/imu,0.26310971060261507,0.9647656489860952,0.0005043517694475304,0.0005180273540445117,0.0,0.0,0.0,0.0,0.0,0.0,0.0,0.0,0.0,0.0005438983979407568,0.001685398997811442,0.0028082613143298476,0.0,0.0,0.0,0.0,0.0,0.0,0.0,0.0,0.0,0.01889426115532534,-0.11464159716530989,9.809219997508443,0.0,0.0,0.0,0.0,0.0,0.0,0.0,0.0,0.0
2025/05/20 13:08:39.170696052,1747739318,211128018,mA1/imu,0.2639255949108195,0.9645427363341609,0.0005181018991194588,0.0005671916797961387,0.0,0.0,0.0,0.0,0.0,0.0,0.0,0.0,0.0,-0.0009228401413104109,-0.0012984171772709278,0.0016018648709775862,0.0,0.0,0.0,0.0,0.0,0.0,0.0,0.0,0.0,0.004808166569486141,-0.6360555225332594,9.81266375109744,0.0,0.0,0.0,0.0,0.0,0.0,0.0,0.0,0.0
2025/05/20 13:08:39.171476360,1747739318,261070003,mA1/imu,0.26396301332638683,0.964532478119324,0.000517745691607235,0.000598488135476987,0.0,0.0,0.0,0.0,0.0,0.0,0.0,0.0,0.0,-0.001183247394318794,-0.0011172991739683712,0.0015181960823348049,0.0,0.0,0.0,0.0,0.0,0.0,0.0,0.0,0.0,0.0035141462159576416,0.4469461242324136,9.809091236434709,0.0,0.0,0.0,0.0,0.0,0.0,0.0,0.0,0.0
2025/05/20 13:08:39.181856564,1747739318,312116738,mA1/imu,0.2639984368463508,0.9645227597314516,0.0005279064444275426,0.0006265919676036355,0.0,0.0,0.0,0.0,0.0,0.0,0.0,0.0,0.0,-0.0002755185694916373,-0.0008714947329319427,0.0014361808927722886,0.0,0.0,0.0,0.0,0.0,0.0,0.0,0.0,0.0,0.0031395224152005376,0.030771727040537662,9.809920763366636,0.0,0.0,0.0,0.0,0.0,0.0,0.0,0.0,0.0
2025/05/20 13:08:39.192135099,1747739318,361864093,mA1/imu,0.2640318907089897,0.9645135856880555,0.0005346989187213191,0.0006463813679346492,0.0,0.0,0.0,0.0,0.0,0.0,0.0,0.0,0.0,-0.0008513642352558367,-0.0005704687513585458,0.001354947485170296,0.0,0.0,0.0,0.0,0.0,0.0,0.0,0.0,0.0,0.003922844985850679,0.6082173825608326,9.811751329785064,0.0,0.0,0.0,0.0,0.0,0.0,0.0,0.0,0.0
2025/05/20 13:08:39.202114516,1747739318,412900098,mA1/imu,0.26406342572595076,0.9645049395671549,0.0005435935059736919,0.0006582176955504537,0.0,0.0,0.0,0.0,0.0,0.0,0.0,0.0,0.0,-0.00012013986408874455,-0.0001915810194487173,0.0012814381639098568,0.0,0.0,0.0,0.0,0.0,0.0,0.0,0.0,0.0,-0.0027569335806066075,-0.21708647138438325,9.809781454820063,0.0,0.0,0.0,0.0,0.0,0.0,0.0,0.0,0.0
2025/05/20 13:08:39.213423088,1747739318,462704290,mA1/imu,0.26409282114778526,0.9644968891390201,0.0005472990503608402,0.0006581208901902617,0.0,0.0,0.0,0.0,0.0,0.0,0.0,0.0,0.0,-0.0001328619901614673,0.00016381194252868133,0.0011451687559662265,0.0,0.0,0.0,0.0,0.0,0.0,0.0,0.0,0.0,0.006290986715186943,0.17450904098299058,9.810448631251806,0.0,0.0,0.0,0.0,0.0,0.0,0.0,0.0,0.0
2025/05/20 13:08:40.169269572,1747739319,220179684,mA1/imu,0.2642742631608104,0.964447406570715,0.0005243994253379399,0.0001969646542472037,0.0,0.0,0.0,0.0,0.0,0.0,0.0,0.0,0.0,0.001095371195538878,-0.0012523402136537687,-0.0002517187487933392,0.0,0.0,0.0,0.0,0.0,0.0,0.0,0.0,0.0,-0.0004880775358055121,-0.22995459585984002,9.811156025991162,0.0,0.0,0.0,0.0,0.0,0.0,0.0,0.0,0.0
2025/05/20 13:08:40.171990890,1747739319,269911347,mA1/imu,0.2642666102904396,0.9644495076784868,0.000502966656530389,0.0002298888158102569,0.0,0.0,0.0,0.0,0.0,0.0,0.0,0.0,0.0,0.0015394067604530192,-0.0016604513058171954,-0.0003629090730225488,0.0,0.0,0.0,0.0,0.0,0.0,0.0,0.0,0.0,7.76381548591872e-05,-0.17986931586012037,9.811108701704628,0.0,0.0,0.0,0.0,0.0,0.0,0.0,0.0,0.0
2025/05/20 13:08:40.180881165,1747739319,311188654,mA1/imu,0.2642563241355851,0.9644523242395018,0.00048478914584863683,0.00027276886841175435,0.0,0.0,0.0,0.0,0.0,0.0,0.0,0.0,0.0,0.0013232220489436527,-0.0019679917980755797,-0.0004703504806425895,0.0,0.0,0.0,0.0,0.0,0.0,0.0,0.0,0.0,-0.001640330532145567,0.08626982966199877,9.809905224369732,0.0,0.0,0.0,0.0,0.0,0.0,0.0,0.0,0.0
2025/05/20 13:08:40.190266462,1747739319,360885485,mA1/imu,0.26424343212889956,0.9644558450272124,0.0004756866846317347,0.0003244869233440192,0.0,0.0,0.0,0.0,0.0,0.0,0.0,0.0,0.0,0.0009096797325685898,-0.002172528181548644,-0.0005783672878087695,0.0,0.0,0.0,0.0,0.0,0.0,0.0,0.0,0.0,-0.0008849918011612583,-0.48670223572693905,9.808325089221157,0.0,0.0,0.0,0.0,0.0,0.0,0.0,0.0,0.0
2025/05/20 13:08:40.201401713,1747739319,412640603,mA1/imu,0.2642279787727935,0.9644600640782768,0.00046527661151883636,0.0003788791959897212,0.0,0.0,0.0,0.0,0.0,0.0,0.0,0.0,0.0,8.549929326644237e-05,-0.0022357087235801826,-0.0006834540597420411,0.0,0.0,0.0,0.0,0.0,0.0,0.0,0.0,0.0,-0.0009862212152381535,-0.6124531646130951,9.809800226694545,0.0,0.0,0.0,0.0,0.0,0.0,0.0,0.0,0.0
2025/05/20 13:08:40.211504967,1747739319,461735637,mA1/imu,0.26420903470615165,0.964465230722724,0.0004557883583499178,0.00044380578921856043,0.0,0.0,0.0,0.0,0.0,0.0,0.0,0.0,0.0,-0.0012484881328887483,-0.0028470104611647115,-0.0008566422700284772,0.0,0.0,0.0,0.0,0.0,0.0,0.0,0.0,0.0,0.019726834909903065,-0.06464592466606267,9.810159538621166,0.0,0.0,0.0,0.0,0.0,0.0,0.0,0.0,0.0
2025/05/20 13:08:41.169983240,1747739320,220475992,mA1/imu,0.2640385178188399,0.9645115914732809,0.0005552155533290809,0.0008618337416676819,0.0,0.0,0.0,0.0,0.0,0.0,0.0,0.0,0.0,-0.000302455987543151,0.0020882634202074603,-0.0004964975147864596,0.0,0.0,0.0,0.0,0.0,0.0,0.0,0.0,0.0,0.019336597582921874,0.5783909225608762,9.809074714019216,0.0,0.0,0.0,0.0,0.0,0.0,0.0,0.0,0.0
2025/05/20 13:08:41.171296503,1747739320,270251237,mA1/imu,0.2640263341466717,0.9645149746403154,0.0005562691672450405,0.0008056899375663605,0.0,0.0,0.0,0.0,0.0,0.0,0.0,0.0,0.0,0.002009040799917595,0.0022150521823384346,-0.0005096767261604549,0.0,0.0,0.0,0.0,0.0,0.0,0.0,0.0,0.0,0.019093010658856577,-0.5335929980136671,9.80902050261214,0.0,0.0,0.0,0.0,0.0,0.0,0.0,0.0,0.0
2025/05/20 13:08:41.312847595,1747739320,360915335,mA1/imu,0.264001017616099,0.9645219921665846,0.0005580190026045564,0.000691331657053566,0.0,0.0,0.0,0.0,0.0,0.0,0.0,0.0,0.0,0.0008730812843290156,0.002121736409377809,-0.0005363355790687915,0.0,0.0,0.0,0.0,0.0,0.0,0.0,0.0,0.0,0.020021356167497666,-0.6328036918337848,9.809610129525096,0.0,0.0,0.0,0.0,0.0,0.0,0.0,0.0,0.0
2025/05/20 13:08:41.324091418,1747739320,412671265,mA1/imu,0.2639879048123037,0.96452562603709,0.0005459781513254448,0.0006361905594322874,0.0,0.0,0.0,0.0,0.0,0.0,0.0,0.0,0.0,0.0004522982958609747,0.0019348424018928792,-0.000545681248234655,0.0,0.0,0.0,0.0,0.0,0.0,0.0,0.0,0.0,0.014404821298972444,-0.04660307353852833,9.810579078766368,0.0,0.0,0.0,0.0,0.0,0.0,0.0,0.0,0.0
2025/05/20 13:08:41.333794422,1747739320,461883375,mA1/imu,0.26397091374333775,0.9645303142049276,0.000532075728314253,0.0005887042299616474,0.0,0.0,0.0,0.0,0.0,0.0,0.0,0.0,0.0,0.00012465551604526264,0.0014562435981020684,-0.0008601001972353883,0.0,0.0,0.0,0.0,0.0,0.0,0.0,0.0,0.0,0.028151066266758014,-0.06827674260716043,9.808036569294174,0.0,0.0,0.0,0.0,0.0,0.0,0.0,0.0,0.0
2025/05/20 13:08:41.344052372,1747739320,512931729,mA1/imu,0.263944556329688,0.9645375558916117,0.0005154581792621258,0.0005556630505216468,0.0,0.0,0.0,0.0,0.0,0.0,0.0,0.0,0.0,0.0008465596614024123,0.0008986220596901582,-0.001253079449373056,0.0,0.0,0.0,0.0,0.0,0.0,0.0,0.0,0.0,0.02212198375009071,-0.014618162221514857,9.809201740365781,0.0,0.0,0.0,0.0,0.0,0.0,0.0,0.0,0.0
2025/05/20 13:08:41.354399085,1747739320,562841277,mA1/imu,0.26390981846289197,0.9645470820126627,0.0005013642356686292,0.0005319150724916538,0.0,0.0,0.0,0.0,0.0,0.0,0.0,0.0,0.0,0.0012769454445658924,0.000721019582270037,-0.0015545826003042795,0.0,0.0,0.0,0.0,0.0,0.0,0.0,0.0,0.0,0.01155467307036057,-0.46208495807946803,9.809361234683662,0.0,0.0,0.0,0.0,0.0,0.0,0.0,0.0,0.0
2025/05/20 13:08:42.321406983,1747739321,360850264,mA1/imu,0.2630173955402559,0.9647906944402347,0.0007321994436798647,0.0004790080635185054,0.0,0.0,0.0,0.0,0.0,0.0,0.0,0.0,0.0,0.0006413404420293559,-0.001099621570353503,-0.0028288084532371097,0.0,0.0,0.0,0.0,0.0,0.0,0.0,0.0,0.0,0.0031721835397214614,-0.4367062357878266,9.809910934316802,0.0,0.0,0.0,0.0,0.0,0.0,0.0,0.0,0.0
2025/05/20 13:08:42.461419407,1747739321,512984261,mA1/imu,0.2628084503782121,0.9648475931429202,0.0007116865903428926,0.0005778566550332108,0.0,0.0,0.0,0.0,0.0,0.0,0.0,0.0,0.0,0.0005211437616491784,-0.0015802168648330734,-0.002915506382505133,0.0,0.0,0.0,0.0,0.0,0.0,0.0,0.0,0.0,0.008573314544843467,0.010237035147111481,9.808913610352228,0.0,0.0,0.0,0.0,0.0,0.0,0.0,0.0,0.0
2025/05/20 13:08:42.463269306,1747739321,562562177,mA1/imu,0.26273728588643835,0.9648669638252224,0.0006939547167630518,0.000615752041091525,0.0,0.0,0.0,0.0,0.0,0.0,0.0,0.0,0.0,-6.764950846654394e-05,-0.0016668814155951913,-0.0029753626231304353,0.0,0.0,0.0,0.0,0.0,0.0,0.0,0.0,0.0,0.009259782153957502,0.5906065996309714,9.809701028284557,0.0,0.0,0.0,0.0,0.0,0.0,0.0,0.0,0.0
2025/05/20 13:08:42.476139474,1747739321,613532013,mA1/imu,0.2626650766791933,0.9648866031128724,0.0006855516363231583,0.0006562357575377164,0.0,0.0,0.0,0.0,0.0,0.0,0.0,0.0,0.0,-0.00042016760855308823,-0.0016249007387084402,-0.003007873860280666,0.0,0.0,0.0,0.0,0.0,0.0,0.0,0.0,0.0,0.008626916451029826,0.03973777654575321,9.810292776448975,0.0,0.0,0.0,0.0,0.0,0.0,0.0,0.0,0.0
2025/05/20 13:08:42.483964064,1747739321,663534060,mA1/imu,0.2625915870520291,0.964906594978225,0.0006655133422136885,0.0006917145478892854,0.0,0.0,0.0,0.0,0.0,0.0,0.0,0.0,0.0,-9.255648119102214e-05,-0.0015400202591284505,-0.0030734860024377343,0.0,0.0,0.0,0.0,0.0,0.0,0.0,0.0,0.0,0.009822015645923068,0.40658080546463404,9.810810920248874,0.0,0.0,0.0,0.0,0.0,0.0,0.0,0.0,0.0
2025/05/20 13:08:42.494284240,1747739321,714496424,mA1/imu,0.26251703741393906,0.9649268688339164,0.000647393026543728,0.0007237071587688393,0.0,0.0,0.0,0.0,0.0,0.0,0.0,0.0,0.0,0.0003707979802536495,-0.0013372730129383773,-0.003103555552752129,0.0,0.0,0.0,0.0,0.0,0.0,0.0,0.0,0.0,0.008163026427557663,-0.3083673767646081,9.809760657431825,0.0,0.0,0.0,0.0,0.0,0.0,0.0,0.0,0.0
2025/05/20 13:08:42.507194272,1747739321,764433490,mA1/imu,0.2624417650029508,0.9649473406448137,0.0006249592886476831,0.0007477904287897267,0.0,0.0,0.0,0.0,0.0,0.0,0.0,0.0,0.0,0.0005915840811553371,-0.0010269341240776214,-0.0031336234701935107,0.0,0.0,0.0,0.0,0.0,0.0,0.0,0.0,0.0,0.007545696905471898,0.10556035826726505,9.80985987473273,0.0,0.0,0.0,0.0,0.0,0.0,0.0,0.0,0.0
2025/05/20 13:08:43.470854747,1747739322,511534171,mA1/imu,0.26127216785813034,0.9652648288068315,0.0006677282299662571,0.0004676646687477311,0.0,0.0,0.0,0.0,0.0,0.0,0.0,0.0,0.0,-0.0017280427385805643,-0.0002211397570530669,-0.003073370553171517,0.0,0.0,0.0,0.0,0.0,0.0,0.0,0.0,0.0,0.015147029823778933,-0.05556749478865519,9.810450924723176,0.0,0.0,0.0,0.0,0.0,0.0,0.0,0.0,0.0
2025/05/20 13:08:43.476092696,1747739322,561293965,mA1/imu,0.26119863659673304,0.9652847130599749,0.0006787783783403068,0.00048397587028706397,0.0,0.0,0.0,0.0,0.0,0.0,0.0,0.0,0.0,-0.0007580109724961962,-0.0006936190427292236,-0.0030298633450832036,0.0,0.0,0.0,0.0,0.0,0.0,0.0,0.0,0.0,0.014045831931521403,-0.03423068083561051,9.810510192449394,0.0,0.0,0.0,0.0,0.0,0.0,0.0,0.0,0.0
2025/05/20 13:08:43.484180549,1747739322,612338542,mA1/imu,0.2611261728207338,0.9653042965858167,0.0006894518027701988,0.0005113874941739698,0.0,0.0,0.0,0.0,0.0,0.0,0.0,0.0,0.0,-0.0002426873766248795,-0.0011098829665675736,-0.0029849880697134954,0.0,0.0,0.0,0.0,0.0,0.0,0.0,0.0,0.0,0.013854654113212093,-0.6216330221785258,9.808622925881568,0.0,0.0,0.0,0.0,0.0,0.0,0.0,0.0,0.0
2025/05/20 13:08:43.494060244,1747739322,662204948,mA1/imu,0.26105327087653724,0.9653239869370533,0.0006995294220423732,0.0005483312873330226,0.0,0.0,0.0,0.0,0.0,0.0,0.0,0.0,0.0,-0.0006161614298383103,-0.0014390398304448535,-0.0030482533626463868,0.0,0.0,0.0,0.0,0.0,0.0,0.0,0.0,0.0,0.012400120387422608,-0.008824827879866486,9.808269995278469,0.0,0.0,0.0,0.0,0.0,0.0,0.0,0.0,0.0
2025/05/20 13:08:43.915867279,1747739322,965107628,mA1/imu,0.2606163558530963,0.9654418441028165,0.0007242445652149581,0.000797613324315363,0.0,0.0,0.0,0.0,0.0,0.0,0.0,0.0,0.0,-0.0012234403728280188,-0.00109589371413423,-0.002988388151884914,0.0,0.0,0.0,0.0,0.0,0.0,0.0,0.0,0.0,0.009288371183035748,0.5332802410111899,9.808789750388565,0.0,0.0,0.0,0.0,0.0,0.0,0.0,0.0,0.0
2025/05/20 13:08:43.916400441,1747739323,16637751,mA1/imu,0.26054438819572495,0.9654612516318988,0.0007214880102064431,0.0008202634539777458,0.0,0.0,0.0,0.0,0.0,0.0,0.0,0.0,0.0,-0.0011604595894011836,-0.0007471051728710073,-0.0029779362685121674,0.0,0.0,0.0,0.0,0.0,0.0,0.0,0.0,0.0,0.009309206689369952,0.5247101771392949,9.809555454920252,0.0,0.0,0.0,0.0,0.0,0.0,0.0,0.0,0.0
2025/05/20 13:08:43.926335043,1747739323,65918566,mA1/imu,0.260472666652379,0.9654805997022087,0.0007139091512693233,0.0008317808521969625,0.0,0.0,0.0,0.0,0.0,0.0,0.0,0.0,0.0,0.0007754687902491635,-0.0003572881444851865,-0.0029678720674923774,0.0,0.0,0.0,0.0,0.0,0.0,0.0,0.0,0.0,0.008638421233016115,0.016319824688123517,9.810987659485614,0.0,0.0,0.0,0.0,0.0,0.0,0.0,0.0,0.0
2025/05/20 13:08:43.936528408,1747739323,116829552,mA1/imu,0.26040118212159735,0.9654998902340386,0.0007032740841786957,0.000831693030325396,0.0,0.0,0.0,0.0,0.0,0.0,0.0,0.0,0.0,0.0002705559862020041,5.7399033140706e-05,-0.002958533215085591,0.0,0.0,0.0,0.0,0.0,0.0,0.0,0.0,0.0,0.009170823069748398,0.008167300427161555,9.810427623588664,0.0,0.0,0.0,0.0,0.0,0.0,0.0,0.0,0.0
2025/05/20 13:08:43.946680558,1747739323,166791904,mA1/imu,0.26032994082110616,0.9655191159540206,0.0006945724010124189,0.0008223190535212032,0.0,0.0,0.0,0.0,0.0,0.0,0.0,0.0,0.0,0.00032973538607542456,0.0004225873422786141,-0.002947500920061017,0.0,0.0,0.0,0.0,0.0,0.0,0.0,0.0,0.0,0.009648283845975976,0.5884325401242496,9.81254093988431,0.0,0.0,0.0,0.0,0.0,0.0,0.0,0.0,0.0
2025/05/20 13:08:43.956840099,1747739323,217744676,mA1/imu,0.26025892549712365,0.9655382866555545,0.0006817586219490784,0.0008024378606133652,0.0,0.0,0.0,0.0,0.0,0.0,0.0,0.0,0.0,0.0010023737578588499,0.0007762936425953812,-0.002938137724972978,0.0,0.0,0.0,0.0,0.0,0.0,0.0,0.0,0.0,0.009324849918876237,-0.0003395755449254467,9.811413845971689,0.0,0.0,0.0,0.0,0.0,0.0,0.0,0.0,0.0
2025/05/20 13:08:44.915102537,1747739323,964362792,mA1/imu,0.2593593041915579,0.9657805284529926,0.0006836653579095299,0.0005047692619932375,0.0,0.0,0.0,0.0,0.0,0.0,0.0,0.0,0.0,-0.0002232953274061566,-0.0006407212717788169,-0.0020106300648052525,0.0,0.0,0.0,0.0,0.0,0.0,0.0,0.0,0.0,0.006868838567762064,0.013261702025233614,9.809083727259692,0.0,0.0,0.0,0.0,0.0,0.0,0.0,0.0,0.0
2025/05/20 13:08:44.915873059,1747739324,15383327,mA1/imu,0.259311896247155,0.9657932286912777,0.0007055856086059465,0.0005310628313603045,0.0,0.0,0.0,0.0,0.0,0.0,0.0,0.0,0.0,-0.0016616046834067818,-0.0008836592641965216,-0.0019320049212271319,0.0,0.0,0.0,0.0,0.0,0.0,0.0,0.0,0.0,0.009951756087150064,0.41941371704601094,9.810576505810703,0.0,0.0,0.0,0.0,0.0,0.0,0.0,0.0,0.0
2025/05/20 13:08:44.926113369,1747739324,65242523,mA1/imu,0.2592663913037491,0.9658054158988049,0.0007222223655186522,0.0005615654213491281,0.0,0.0,0.0,0.0,0.0,0.0,0.0,0.0,0.0,-0.0023569988592888422,-0.0010683107805523001,-0.001854012571676331,0.0,0.0,0.0,0.0,0.0,0.0,0.0,0.0,0.0,0.009696167066249248,0.49947496565057337,9.810601114887035,0.0,0.0,0.0,0.0,0.0,0.0,0.0,0.0,0.0
2025/05/20 13:08:44.926809112,1747739324,116326812,mA1/imu,0.25922270698033617,0.9658171123456359,0.0007343537811437682,0.0005953239858643666,0.0,0.0,0.0,0.0,0.0,0.0,0.0,0.0,0.0,-0.0020403875726402506,-0.0012168527990897517,-0.0017796913635411192,0.0,0.0,0.0,0.0,0.0,0.0,0.0,0.0,0.0,0.009554182368238694,0.5158315549193273,9.810396045556661,0.0,0.0,0.0,0.0,0.0,0.0,0.0,0.0,0.0
2025/05/20 13:08:44.936633768,1747739324,166140889,mA1/imu,0.25918083406959114,0.9658283244873291,0.0007397300817239193,0.0006290217769552972,0.0,0.0,0.0,0.0,0.0,0.0,0.0,0.0,0.0,-7.909188404762564e-05,-0.0012516170004268738,-0.001705013072397064,0.0,0.0,0.0,0.0,0.0,0.0,0.0,0.0,0.0,0.008465836575039097,-0.6138795304221824,9.808782751027131,0.0,0.0,0.0,0.0,0.0,0.0,0.0,0.0,0.0
2025/05/20 13:08:44.947303976,1747739324,217243875,mA1/imu,0.2591407499645431,0.9658390560150731,0.0007428108158162156,0.0006616765209872511,0.0,0.0,0.0,0.0,0.0,0.0,0.0,0.0,0.0,-9.471689690018146e-06,-0.0012056416554917498,-0.0016312349927832014,0.0,0.0,0.0,0.0,0.0,0.0,0.0,0.0,0.0,0.008572038239632212,-0.047667309843048275,9.809892868240574,0.0,0.0,0.0,0.0,0.0,0.0,0.0,0.0,0.0
2025/05/20 13:08:44.957951359,1747739324,267109537,mA1/imu,0.2591024461634111,0.9658493067109662,0.0007474607372881608,0.0006931237469599396,0.0,0.0,0.0,0.0,0.0,0.0,0.0,0.0,0.0,-0.0011419269331827,-0.0011225457482343906,-0.0015572415401207147,0.0,0.0,0.0,0.0,0.0,0.0,0.0,0.0,0.0,0.008702360043050108,0.3408905380337331,9.809583515870434,0.0,0.0,0.0,0.0,0.0,0.0,0.0,0.0,0.0
2025/05/20 13:08:45.914002921,1747739324,963319241,mA1/imu,0.25869614171732797,0.9659584134767052,0.0006826900627729032,0.00042851885942820115,0.0,0.0,0.0,0.0,0.0,0.0,0.0,0.0,0.0,5.0293153362787504e-05,0.0012866292136986476,-0.0008160572616374852,0.0,0.0,0.0,0.0,0.0,0.0,0.0,0.0,0.0,0.006297194457593531,-0.04140622083130495,9.81052163441819,0.0,0.0,0.0,0.0,0.0,0.0,0.0,0.0,0.0
2025/05/20 13:08:45.915245362,1747739325,14361038,mA1/imu,0.258677342577086,0.9659634534937208,0.0006907658072780025,0.0004022366724192538,0.0,0.0,0.0,0.0,0.0,0.0,0.0,0.0,0.0,-0.0008916317283606959,0.0009606136244160442,-0.000752968291358868,0.0,0.0,0.0,0.0,0.0,0.0,0.0,0.0,0.0,0.007351566415123743,-0.09880616583781837,9.810666821173907,0.0,0.0,0.0,0.0,0.0,0.0,0.0,0.0,0.0
2025/05/20 13:08:45.924288925,1747739325,64314676,mA1/imu,0.25866003944290017,0.9659680920460983,0.0006940216790803059,0.00038402880983896966,0.0,0.0,0.0,0.0,0.0,0.0,0.0,0.0,0.0,-0.001513048189184977,0.000594415643102189,-0.0006912692155602088,0.0,0.0,0.0,0.0,0.0,0.0,0.0,0.0,0.0,0.006534316848948659,0.055098955692618204,9.808827643968684,0.0,0.0,0.0,0.0,0.0,0.0,0.0,0.0,0.0
2025/05/20 13:08:45.925490236,1747739325,115574661,mA1/imu,0.25864422269875925,0.9659723260010695,0.0006995248298844153,0.0003770008627683106,0.0,0.0,0.0,0.0,0.0,0.0,0.0,0.0,0.0,-0.0010439898388129546,0.00016445960071542482,-0.0006297653330752597,0.0,0.0,0.0,0.0,0.0,0.0,0.0,0.0,0.0,0.007375126993758633,-0.09514718273724564,9.80861284423027,0.0,0.0,0.0,0.0,0.0,0.0,0.0,0.0,0.0
2025/05/20 13:08:45.936184089,1747739325,165084492,mA1/imu,0.2586330210901329,0.9659753257187746,0.0007000682834771638,0.00037471148419308814,0.0,0.0,0.0,0.0,0.0,0.0,0.0,0.0,0.0,-0.0012047377588062253,2.7079693811293007e-05,-0.0003609002993781026,0.0,0.0,0.0,0.0,0.0,0.0,0.0,0.0,0.0,0.0047612491679343855,-0.09941339470399374,9.809192389331603,0.0,0.0,0.0,0.0,0.0,0.0,0.0,0.0,0.0
2025/05/20 13:08:45.946501966,1747739325,216060110,mA1/imu,0.2586256711562595,0.9659772906923039,0.0007001681065785264,0.0003819035914769471,0.0,0.0,0.0,0.0,0.0,0.0,0.0,0.0,0.0,-0.00011487113475553932,-0.0004634687834624874,-0.0002674468280161006,0.0,0.0,0.0,0.0,0.0,0.0,0.0,0.0,0.0,0.008273515771953805,-0.021475259049013415,9.808925271703703,0.0,0.0,0.0,0.0,0.0,0.0,0.0,0.0,0.0
2025/05/20 13:08:45.956911489,1747739325,265963540,mA1/imu,0.25862051611442,0.9659786625446478,0.000700960512857903,0.000401008134453759,0.0,0.0,0.0,0.0,0.0,0.0,0.0,0.0,0.0,-0.00023871873593869948,-0.0009029942646768072,-0.00017882785999922998,0.0,0.0,0.0,0.0,0.0,0.0,0.0,0.0,0.0,0.008330647209542817,-0.02874925886135802,9.80954209387588,0.0,0.0,0.0,0.0,0.0,0.0,0.0,0.0,0.0
2025/05/20 13:08:46.912617305,1747739325,962012214,mA1/imu,0.258505219460524,0.9660094460411981,0.0007243297099745386,0.0005263243442705234,0.0,0.0,0.0,0.0,0.0,0.0,0.0,0.0,0.0,0.0027165223178730884,0.002379975797699437,-0.0003362760480853441,0.0,0.0,0.0,0.0,0.0,0.0,0.0,0.0,0.0,-0.002309010308214565,-0.4733893629829634,9.809889343703533,0.0,0.0,0.0,0.0,0.0,0.0,0.0,0.0,0.0
2025/05/20 13:08:46.913188082,1747739326,12969604,mA1/imu,0.2584976178636629,0.9660114948555196,0.0007449488492090699,0.000467351075648936,0.0,0.0,0.0,0.0,0.0,0.0,0.0,0.0,0.0,0.0013015623824029288,0.0025122551235228184,-0.00029738619823424577,0.0,0.0,0.0,0.0,0.0,0.0,0.0,0.0,0.0,-0.001193273838212821,-0.5741801907101588,9.80888077895651,0.0,0.0,0.0,0.0,0.0,0.0,0.0,0.0,0.0
2025/05/20 13:08:46.925045671,1747739326,62926307,mA1/imu,0.25849093159086406,0.966013297879746,0.0007621142998471667,0.0004071689799575643,0.0,0.0,0.0,0.0,0.0,0.0,0.0,0.0,0.0,-0.00019233946236486054,0.002469645169397271,-0.00026029258330263744,0.0,0.0,0.0,0.0,0.0,0.0,0.0,0.0,0.0,-0.00031076987448059885,-0.053817429654846316,9.81062143568195,0.0,0.0,0.0,0.0,0.0,0.0,0.0,0.0,0.0
2025/05/20 13:08:46.936659019,1747739326,114129757,mA1/imu,0.25848513490596076,0.9660148609412799,0.0007754262175884576,0.00034955318347129784,0.0,0.0,0.0,0.0,0.0,0.0,0.0,0.0,0.0,-0.0009151671720946532,0.0022733219074235326,-0.00022328098158224752,0.0,0.0,0.0,0.0,0.0,0.0,0.0,0.0,0.0,0.0012898770153172878,-0.10882035455926586,9.8095744475565,0.0,0.0,0.0,0.0,0.0,0.0,0.0,0.0,0.0
2025/05/20 13:08:46.947218722,1747739326,163571643,mA1/imu,0.25848024412607135,0.966016185921106,0.0007772460864552722,0.0002963502771022819,0.0,0.0,0.0,0.0,0.0,0.0,0.0,0.0,0.0,-0.0005335487587211981,0.001940858047056365,-0.00018668573107250984,0.0,0.0,0.0,0.0,0.0,0.0,0.0,0.0,0.0,0.0003046073656181108,-0.08291008323280266,9.808989641366113,0.0,0.0,0.0,0.0,0.0,0.0,0.0,0.0,0.0
2025/05/20 13:08:46.956970888,1747739326,215152170,mA1/imu,0.258476229412871,0.9660172702878469,0.0007796092130063518,0.0002540543182643378,0.0,0.0,0.0,0.0,0.0,0.0,0.0,0.0,0.0,0.0003665422765534828,0.0014672429042614276,-0.00015094413015078335,0.0,0.0,0.0,0.0,0.0,0.0,0.0,0.0,0.0,0.0013532189546130282,-0.024938100253319204,9.809014088925757,0.0,0.0,0.0,0.0,0.0,0.0,0.0,0.0,0.0
2025/05/20 13:08:47.922318755,1747739326,961497048,mA1/imu,0.2585297969102023,0.9660028064002307,0.0006391617296011393,0.0007166650063789636,0.0,0.0,0.0,0.0,0.0,0.0,0.0,0.0,0.0,-0.0017010303791326357,-0.0003267191044386572,0.0006359078498027335,0.0,0.0,0.0,0.0,0.0,0.0,0.0,0.0,0.0,0.0009983461299926007,0.5141641604430781,9.810838316103334,0.0,0.0,0.0,0.0,0.0,0.0,0.0,0.0,0.0
2025/05/20 13:08:47.923317282,1747739327,12493346,mA1/imu,0.25854601908562463,0.9659984606133043,0.0006431323107468762,0.0007186713665139207,0.0,0.0,0.0,0.0,0.0,0.0,0.0,0.0,0.0,0.0005713979626717585,0.00017290994708162158,0.0006959628253074626,0.0,0.0,0.0,0.0,0.0,0.0,0.0,0.0,0.0,0.000831634476571752,-0.3189617285261388,9.810605927982074,0.0,0.0,0.0,0.0,0.0,0.0,0.0,0.0,0.0
2025/05/20 13:08:47.932821103,1747739327,62408526,mA1/imu,0.2585636695605526,0.965993732436501,0.0006579151960680353,0.0007105099393100377,0.0,0.0,0.0,0.0,0.0,0.0,0.0,0.0,0.0,0.0003247807990366122,0.0006614794051099446,0.0007549114922070217,0.0,0.0,0.0,0.0,0.0,0.0,0.0,0.0,0.0,0.0010780014361892881,-0.22308624829038015,9.81031827003851,0.0,0.0,0.0,0.0,0.0,0.0,0.0,0.0,0.0
2025/05/20 13:08:47.944698144,1747739327,113665442,mA1/imu,0.25858271818014644,0.96598863514539,0.0006761688151634207,0.0006909589327573146,0.0,0.0,0.0,0.0,0.0,0.0,0.0,0.0,0.0,-0.0006070767113062175,0.0011192872709121615,0.0008130466012893591,0.0,0.0,0.0,0.0,0.0,0.0,0.0,0.0,0.0,0.0018976646393745761,0.35933511899032644,9.811598192027374,0.0,0.0,0.0,0.0,0.0,0.0,0.0,0.0,0.0
2025/05/20 13:08:47.954856000,1747739327,163304256,mA1/imu,0.25860315024847835,0.9659831726096724,0.0006955632278145215,0.000661141672373655,0.0,0.0,0.0,0.0,0.0,0.0,0.0,0.0,0.0,-0.00030692904551777,0.001484863147501396,0.0008698682887005388,0.0,0.0,0.0,0.0,0.0,0.0,0.0,0.0,0.0,0.0025397215021244254,-0.15405921229698355,9.811443917270891,0.0,0.0,0.0,0.0,0.0,0.0,0.0,0.0,0.0
2025/05/20 13:08:48.920697744,1747739327,960595848,mA1/imu,0.2593530789389608,0.9657820788170882,0.0006627361039765084,0.0007193479557119164,0.0,0.0,0.0,0.0,0.0,0.0,0.0,0.0,0.0,-0.001576467312037974,-0.002869470076472503,0.0029737524450020635,0.0,0.0,0.0,0.0,0.0,0.0,0.0,0.0,0.0,0.008878865788339099,0.49344518789623687,9.810438910848374,0.0,0.0,0.0,0.0,0.0,0.0,0.0,0.0,0.0
2025/05/20 13:08:48.923162473,1747739328,11702123,mA1/imu,0.259426437657503,0.9657623377580502,0.0006438692617945697,0.0007847578080114996,0.0,0.0,0.0,0.0,0.0,0.0,0.0,0.0,0.0,0.00016822066291201682,-0.0025952611469294983,0.0030780052880309294,0.0,0.0,0.0,0.0,0.0,0.0,0.0,0.0,0.0,0.008860547705395037,-0.6473816032762446,9.810630676357748,0.0,0.0,0.0,0.0,0.0,0.0,0.0,0.0,0.0
2025/05/20 13:08:48.931534146,1747739328,61551745,mA1/imu,0.25950226538823734,0.965741935217531,0.0006202518069740641,0.0008391116534691379,0.0,0.0,0.0,0.0,0.0,0.0,0.0,0.0,0.0,0.0016202400308886725,-0.0021763616034619136,0.0031785202846049193,0.0,0.0,0.0,0.0,0.0,0.0,0.0,0.0,0.0,0.008927277887824811,-0.5472705709554285,9.810318935396294,0.0,0.0,0.0,0.0,0.0,0.0,0.0,0.0,0.0
2025/05/20 13:08:48.943968331,1747739328,112608676,mA1/imu,0.2595804360606511,0.9657208949859994,0.0006083990796926296,0.0008832058437281192,0.0,0.0,0.0,0.0,0.0,0.0,0.0,0.0,0.0,-0.00011119452832925928,-0.001594946198527672,0.0032754002167925756,0.0,0.0,0.0,0.0,0.0,0.0,0.0,0.0,0.0,0.007251180521067695,0.5968915318840436,9.811087005504792,0.0,0.0,0.0,0.0,0.0,0.0,0.0,0.0,0.0
2025/05/20 13:08:48.953466928,1747739328,162491966,mA1/imu,0.25966092504545546,0.9656992279020573,0.0006077674802425205,0.0009142497463123509,0.0,0.0,0.0,0.0,0.0,0.0,0.0,0.0,0.0,-0.001569611183674021,-0.0009294506730754138,0.003371724739612324,0.0,0.0,0.0,0.0,0.0,0.0,0.0,0.0,0.0,0.007133352840730384,0.4985019733922688,9.810343962192562,0.0,0.0,0.0,0.0,0.0,0.0,0.0,0.0,0.0
2025/05/20 13:08:48.963723423,1747739328,213894105,mA1/imu,0.25974371645530836,0.9656769535627124,0.000603509279063635,0.0009267666230482303,0.0,0.0,0.0,0.0,0.0,0.0,0.0,0.0,0.0,0.0001418799995347605,-0.0002495815018645351,0.003466808384190609,0.0,0.0,0.0,0.0,0.0,0.0,0.0,0.0,0.0,0.00805121337889562,-0.6444662006814775,9.810522904633487,0.0,0.0,0.0,0.0,0.0,0.0,0.0,0.0,0.0
2025/05/20 13:08:49.566016139,1747739328,617101831,mA1/imu,0.26047604605434077,0.9654798493586227,0.0007149767583358366,0.0006154044063230097,0.0,0.0,0.0,0.0,0.0,0.0,0.0,0.0,0.0,2.668157804300454e-05,0.0020839386709507446,0.004120005361347004,0.0,0.0,0.0,0.0,0.0,0.0,0.0,0.0,0.0,0.013827114428474587,-0.4528983033601971,9.810280845233562,0.0,0.0,0.0,0.0,0.0,0.0,0.0,0.0,0.0
2025/05/20 13:08:49.569537127,1747739328,667008149,mA1/imu,0.26057683570979,0.9654526629155705,0.0007366351097231218,0.0005707270997128946,0.0,0.0,0.0,0.0,0.0,0.0,0.0,0.0,0.0,-0.0014379685681548129,0.0018499773299049224,0.0042158168053272015,0.0,0.0,0.0,0.0,0.0,0.0,0.0,0.0,0.0,0.013865937198005891,0.4254430669574157,9.809377436202734,0.0,0.0,0.0,0.0,0.0,0.0,0.0,0.0,0.0
2025/05/20 13:08:49.578529126,1747739328,717978703,mA1/imu,0.26067990590514584,0.9654248490977778,0.0007511530235167003,0.0005321380952461455,0.0,0.0,0.0,0.0,0.0,0.0,0.0,0.0,0.0,-0.000468662864348099,0.0015006573644199706,0.004309164764211558,0.0,0.0,0.0,0.0,0.0,0.0,0.0,0.0,0.0,0.014080553472312081,-0.03604482759725524,9.808101318306303,0.0,0.0,0.0,0.0,0.0,0.0,0.0,0.0,0.0
2025/05/20 13:08:49.587264793,1747739328,767979532,mA1/imu,0.26078523681528026,0.9653964060941613,0.0007653182238280396,0.0005036344818804585,0.0,0.0,0.0,0.0,0.0,0.0,0.0,0.0,0.0,0.0002016851706834034,0.001076384639578625,0.004401960528249657,0.0,0.0,0.0,0.0,0.0,0.0,0.0,0.0,0.0,0.0135210617128062,0.011017249500348103,9.80862241677987,0.0,0.0,0.0,0.0,0.0,0.0,0.0,0.0,0.0
2025/05/20 13:08:49.597220357,1747739328,819098598,mA1/imu,0.2608927842849646,0.9653673431092626,0.0007813955601929743,0.0004872239533994604,0.0,0.0,0.0,0.0,0.0,0.0,0.0,0.0,0.0,0.0003045553522896129,0.0006024219497357539,0.004493537132050848,0.0,0.0,0.0,0.0,0.0,0.0,0.0,0.0,0.0,0.013535287798887682,0.01859884981895662,9.808522500978546,0.0,0.0,0.0,0.0,0.0,0.0,0.0,0.0,0.0
2025/05/20 13:08:49.921829857,1747739328,969799888,mA1/imu,0.2612638095601606,0.9652669826710846,0.0008108686790806103,0.00046526461022988367,0.0,0.0,0.0,0.0,0.0,0.0,0.0,0.0,0.0,-0.0006382151389985231,-0.0004120812670032439,0.005323250470329814,0.0,0.0,0.0,0.0,0.0,0.0,0.0,0.0,0.0,0.016812390656018562,0.5694889588896299,9.810213904805355,0.0,0.0,0.0,0.0,0.0,0.0,0.0,0.0,0.0
2025/05/20 13:08:49.930434566,1747739329,20953866,mA1/imu,0.26139385436030765,0.9652317642879271,0.0008115217296240158,0.0004853295377126454,0.0,0.0,0.0,0.0,0.0,0.0,0.0,0.0,0.0,-0.000650193733540808,-0.0010052813598449134,0.005431876324274951,0.0,0.0,0.0,0.0,0.0,0.0,0.0,0.0,0.0,0.015263856232917313,0.006381008003497758,9.809504419996596,0.0,0.0,0.0,0.0,0.0,0.0,0.0,0.0,0.0
2025/05/20 13:08:49.941638217,1747739329,60695780,mA1/imu,0.2615271802310312,0.9651956359380215,0.0008066220421398466,0.0005174238929023248,0.0,0.0,0.0,0.0,0.0,0.0,0.0,0.0,0.0,0.00024882647011741945,-0.0014792660072614158,0.005584703621974558,0.0,0.0,0.0,0.0,0.0,0.0,0.0,0.0,0.0,0.013366736818254479,-0.633230589533454,9.808905198076493,0.0,0.0,0.0,0.0,0.0,0.0,0.0,0.0,0.0
2025/05/20 13:08:49.951092616,1747739329,111804945,mA1/imu,0.261663579115538,0.9651586609345327,0.0007876777809034498,0.000556912218941287,0.0,0.0,0.0,0.0,0.0,0.0,0.0,0.0,0.0,0.0011101012844513458,-0.001881285617478309,0.005695373867123866,0.0,0.0,0.0,0.0,0.0,0.0,0.0,0.0,0.0,0.013320268871462863,-0.3134710588486122,9.809624091334404,0.0,0.0,0.0,0.0,0.0,0.0,0.0,0.0,0.0
2025/05/20 13:08:49.961433778,1747739329,161608374,mA1/imu,0.26180258503628834,0.9651209404093021,0.0007792571435509061,0.0006079556610257719,0.0,0.0,0.0,0.0,0.0,0.0,0.0,0.0,0.0,-0.0011841918624526284,-0.0021624134662278334,0.0058013117802943265,0.0,0.0,0.0,0.0,0.0,0.0,0.0,0.0,0.0,0.013325034005799336,0.5129337609365675,9.811214244012815,0.0,0.0,0.0,0.0,0.0,0.0,0.0,0.0,0.0
2025/05/20 13:08:50.921265432,1747739329,970103587,mA1/imu,0.2642014704550748,0.9644671002594817,0.0008106302088577353,0.00037202836922960983,0.0,0.0,0.0,0.0,0.0,0.0,0.0,0.0,0.0,-0.00114701075819548,0.0028770228207825274,0.006508602686813334,0.0,0.0,0.0,0.0,0.0,0.0,0.0,0.0,0.0,0.0021498867205549063,-0.07962034779417303,9.80971358349986,0.0,0.0,0.0,0.0,0.0,0.0,0.0,0.0,0.0
2025/05/20 13:08:50.926471628,1747739330,10952399,mA1/imu,0.26435955450512877,0.9644237836504695,0.0008337298712892123,0.00031042819486296253,0.0,0.0,0.0,0.0,0.0,0.0,0.0,0.0,0.0,-0.001837171531482993,0.00243162176373498,0.00659187172476502,0.0,0.0,0.0,0.0,0.0,0.0,0.0,0.0,0.0,0.004040949254733602,0.4327326298323519,9.81019365398173,0.0,0.0,0.0,0.0,0.0,0.0,0.0,0.0,0.0
2025/05/20 13:08:50.932679239,1747739330,60821344,mA1/imu,0.26451963750514135,0.9643798893266134,0.0008500051383408278,0.00026062962595785257,0.0,0.0,0.0,0.0,0.0,0.0,0.0,0.0,0.0,0.00020699431940543662,0.0018339307077651012,0.006674207558291075,0.0,0.0,0.0,0.0,0.0,0.0,0.0,0.0,0.0,0.004138581793186494,0.02430839084128816,9.809458697414506,0.0,0.0,0.0,0.0,0.0,0.0,0.0,0.0,0.0
2025/05/20 13:08:50.943967872,1747739330,112324195,mA1/imu,0.2646816964090506,0.9643354140296507,0.0008697786266222884,0.00022873440896598735,0.0,0.0,0.0,0.0,0.0,0.0,0.0,0.0,0.0,-0.00013858436195164224,0.001149317570084105,0.006755070413207821,0.0,0.0,0.0,0.0,0.0,0.0,0.0,0.0,0.0,0.00391449771077277,-0.01247754216312658,9.809251190920298,0.0,0.0,0.0,0.0,0.0,0.0,0.0,0.0,0.0
2025/05/20 13:08:50.944671732,1747739330,161668711,mA1/imu,0.2648456737779651,0.9642903850615294,0.00088136268253721,0.00021344508605834406,0.0,0.0,0.0,0.0,0.0,0.0,0.0,0.0,0.0,-0.0007523297039576973,0.00040131081061100854,0.00683352970603149,0.0,0.0,0.0,0.0,0.0,0.0,0.0,0.0,0.0,0.00469865611609877,0.5686547206630432,9.811221583936861,0.0,0.0,0.0,0.0,0.0,0.0,0.0,0.0,0.0
2025/05/20 13:08:50.954354375,1747739330,213438476,mA1/imu,0.2650115093385001,0.9642448179732614,0.0008855826729036037,0.00021603974514985337,0.0,0.0,0.0,0.0,0.0,0.0,0.0,0.0,0.0,0.0005290497249835931,-0.0003662974661412837,0.006910107752280173,0.0,0.0,0.0,0.0,0.0,0.0,0.0,0.0,0.0,0.0036853053192211745,-0.4549192306615409,9.809133753844314,0.0,0.0,0.0,0.0,0.0,0.0,0.0,0.0,0.0
2025/05/20 13:08:51.868670633,1747739330,919079440,mA1/imu,0.2671223861413489,0.9636621733956885,0.0008150609811464506,0.00042668963774031954,0.0,0.0,0.0,0.0,0.0,0.0,0.0,0.0,0.0,0.0011662276408141187,0.004650351506592152,0.005861844999284148,0.0,0.0,0.0,0.0,0.0,0.0,0.0,0.0,0.0,-0.0301231030283977,-0.5911030851711573,9.80920133885937,0.0,0.0,0.0,0.0,0.0,0.0,0.0,0.0,0.0
2025/05/20 13:08:51.872568035,1747739330,969020204,mA1/imu,0.26726651871150575,0.9636222303141042,0.0008447969862747533,0.00030255306228932393,0.0,0.0,0.0,0.0,0.0,0.0,0.0,0.0,0.0,0.00028699239827155237,0.0053522195225583465,0.0060698665654109925,0.0,0.0,0.0,0.0,0.0,0.0,0.0,0.0,0.0,-0.028251757633153317,0.363738286934405,9.810932731444085,0.0,0.0,0.0,0.0,0.0,0.0,0.0,0.0,0.0
2025/05/20 13:08:52.211990379,1747739331,261638651,mA1/imu,0.2682296485166926,0.9633543789031667,0.0010222823962956356,-0.0003889002542607833,0.0,0.0,0.0,0.0,0.0,0.0,0.0,0.0,0.0,0.0003733960861823988,0.002342929035932824,0.007197135947178896,0.0,0.0,0.0,0.0,0.0,0.0,0.0,0.0,0.0,-0.01788984321052018,-0.001248880735365488,9.81040657343609,0.0,0.0,0.0,0.0,0.0,0.0,0.0,0.0,0.0
2025/05/20 13:08:52.219001354,1747739331,312607234,mA1/imu,0.2684054117209145,0.9633053887965319,0.0010406756856330389,-0.00042410919132171063,0.0,0.0,0.0,0.0,0.0,0.0,0.0,0.0,0.0,-0.0004656488651379312,0.0009974614841839185,0.007367298076120189,0.0,0.0,0.0,0.0,0.0,0.0,0.0,0.0,0.0,-0.017651579923610106,-0.052770803990760895,9.808704208953422,0.0,0.0,0.0,0.0,0.0,0.0,0.0,0.0,0.0
2025/05/20 13:08:52.969828925,1747739332,19527499,mA1/imu,0.27132906201163537,0.9624858082372669,0.0007377486300116872,0.0010318801771855076,0.0,0.0,0.0,0.0,0.0,0.0,0.0,0.0,0.0,0.0008631490006141554,-0.0003820111452773191,0.009717794688808398,0.0,0.0,0.0,0.0,0.0,0.0,0.0,0.0,0.0,-0.015580244975563354,0.13491554439172646,9.810238124314202,0.0,0.0,0.0,0.0,0.0,0.0,0.0,0.0,0.0
2025/05/20 13:08:52.970579593,1747739332,69358821,mA1/imu,0.27156790727272095,0.9624184451849479,0.0007556611578036129,0.001018372975195653,0.0,0.0,0.0,0.0,0.0,0.0,0.0,0.0,0.0,-0.0003543098551542637,0.0013871783445275382,0.010060608598618645,0.0,0.0,0.0,0.0,0.0,0.0,0.0,0.0,0.0,-0.01649684050152419,-0.055787260077594936,9.811989087681235,0.0,0.0,0.0,0.0,0.0,0.0,0.0,0.0,0.0
2025/05/20 13:08:52.981301966,1747739332,120616949,mA1/imu,0.27181202059286025,0.962349570030885,0.000773197568920522,0.000965757794083109,0.0,0.0,0.0,0.0,0.0,0.0,0.0,0.0,0.0,-0.00015019740401933237,0.002718080003541998,0.010206365633677803,0.0,0.0,0.0,0.0,0.0,0.0,0.0,0.0,0.0,-0.010008914635874114,-0.6763359586525506,9.810699341625005,0.0,0.0,0.0,0.0,0.0,0.0,0.0,0.0,0.0
2025/05/20 13:08:52.990906625,1747739332,161581812,mA1/imu,0.2720595425231,0.9622796916835401,0.0007895803811194017,0.0008813956966210662,0.0,0.0,0.0,0.0,0.0,0.0,0.0,0.0,0.0,-0.0002685722483231571,0.003854980362803815,0.010346845461540953,0.0,0.0,0.0,0.0,0.0,0.0,0.0,0.0,0.0,-0.009572998842859894,-0.05790544330432744,9.8092289706882,0.0,0.0,0.0,0.0,0.0,0.0,0.0,0.0,0.0
2025/05/20 13:08:53.1099878,1747739332,211289103,mA1/imu,0.272310335711656,0.9622088256103536,0.0008117535603760353,0.0007733293648535785,0.0,0.0,0.0,0.0,0.0,0.0,0.0,0.0,0.0,-0.0005221634565940266,0.004719214423800082,0.010481783727938456,0.0,0.0,0.0,0.0,0.0,0.0,0.0,0.0,0.0,-0.007304212199004083,0.550679631445939,9.810276183807758,0.0,0.0,0.0,0.0,0.0,0.0,0.0,0.0,0.0
2025/05/20 13:08:53.766793488,1747739332,817676753,mA1/imu,0.275532487369821,0.9612912854146843,0.0008700380113298937,0.00039499802831614465,0.0,0.0,0.0,0.0,0.0,0.0,0.0,0.0,0.0,0.0006579188450536998,-0.005524920506316326,0.012097640639860411,0.0,0.0,0.0,0.0,0.0,0.0,0.0,0.0,0.0,0.017355790306887102,0.012689966319079708,9.811181295180575,0.0,0.0,0.0,0.0,0.0,0.0,0.0,0.0,0.0
2025/05/20 13:08:53.768785132,1747739332,867535562,mA1/imu,0.2758241496431262,0.9612076073803475,0.0008268915692040636,0.0005387375305604373,0.0,0.0,0.0,0.0,0.0,0.0,0.0,0.0,0.0,0.0011802800812526061,-0.006306643245740946,0.012153820439604224,0.0,0.0,0.0,0.0,0.0,0.0,0.0,0.0,0.0,0.017301896867199386,-0.19218311818217335,9.81042257080292,0.0,0.0,0.0,0.0,0.0,0.0,0.0,0.0,0.0
2025/05/20 13:08:53.780485675,1747739332,918642421,mA1/imu,0.2761171330758506,0.9611234198113047,0.0007846601768304953,0.0006964342053368965,0.0,0.0,0.0,0.0,0.0,0.0,0.0,0.0,0.0,0.000349979044029707,-0.006656083466569621,0.012207368949739094,0.0,0.0,0.0,0.0,0.0,0.0,0.0,0.0,0.0,0.014681058360196958,-0.005277629457546961,9.809096103032784,0.0,0.0,0.0,0.0,0.0,0.0,0.0,0.0,0.0
2025/05/20 13:08:53.790423164,1747739332,968604800,mA1/imu,0.27641050895956626,0.9610389929926211,0.0007403653263302994,0.0008581046706615434,0.0,0.0,0.0,0.0,0.0,0.0,0.0,0.0,0.0,-0.0005434507441081978,-0.006703726971511292,0.012202013401738657,0.0,0.0,0.0,0.0,0.0,0.0,0.0,0.0,0.0,0.015113600407168717,-0.06617587021537902,9.80943505809763,0.0,0.0,0.0,0.0,0.0,0.0,0.0,0.0,0.0
2025/05/20 13:08:53.799724448,1747739333,19498644,mA1/imu,0.2767042844472654,0.960954330029971,0.0006970685648355167,0.0010142290630209838,0.0,0.0,0.0,0.0,0.0,0.0,0.0,0.0,0.0,-0.0011414222982225448,-0.006292668921450323,0.01223618252840828,0.0,0.0,0.0,0.0,0.0,0.0,0.0,0.0,0.0,0.012516814527840784,0.2516276726581372,9.810214427530873,0.0,0.0,0.0,0.0,0.0,0.0,0.0,0.0,0.0
2025/05/20 13:08:54.212711137,1747739333,261433949,mA1/imu,0.2781838247986206,0.9605266267385422,0.0005669480148774792,0.0014274160697784828,0.0,0.0,0.0,0.0,0.0,0.0,0.0,0.0,0.0,0.0010031048716450065,-9.404741265395096e-05,0.01238845622149726,0.0,0.0,0.0,0.0,0.0,0.0,0.0,0.0,0.0,0.009173002198745742,-0.5607444983364217,9.81059012530412,0.0,0.0,0.0,0.0,0.0,0.0,0.0,0.0,0.0
2025/05/20 13:08:54.213193899,1747739333,312422682,mA1/imu,0.2784816539507975,0.9604403392185159,0.0005806009569972341,0.001409296696576263,0.0,0.0,0.0,0.0,0.0,0.0,0.0,0.0,0.0,0.0011852728223362584,0.0014297114469992566,0.012415034766462147,0.0,0.0,0.0,0.0,0.0,0.0,0.0,0.0,0.0,0.009775498080801887,-0.5725603239833018,9.809363981678088,0.0,0.0,0.0,0.0,0.0,0.0,0.0,0.0,0.0
2025/05/20 13:08:54.223028176,1747739333,362278178,mA1/imu,0.2787800506694616,0.9603538442192519,0.000590976342939879,0.001352031434422262,0.0,0.0,0.0,0.0,0.0,0.0,0.0,0.0,0.0,0.0009694880642228107,0.0028446631205348584,0.012438503011415815,0.0,0.0,0.0,0.0,0.0,0.0,0.0,0.0,0.0,0.011267460185395928,-0.3075041815087578,9.810160405982009,0.0,0.0,0.0,0.0,0.0,0.0,0.0,0.0,0.0
2025/05/20 13:08:54.234113607,1747739333,413337348,mA1/imu,0.2790789458788559,0.9602671271784372,0.0006193252015850744,0.0012660426186831303,0.0,0.0,0.0,0.0,0.0,0.0,0.0,0.0,0.0,9.985917758971139e-05,0.004072371387591526,0.012462684335244773,0.0,0.0,0.0,0.0,0.0,0.0,0.0,0.0,0.0,0.012073931703158621,-0.20367474952500314,9.809795639548208,0.0,0.0,0.0,0.0,0.0,0.0,0.0,0.0,0.0
2025/05/20 13:08:54.243853273,1747739333,463338743,mA1/imu,0.27937719222025736,0.9601805207782186,0.0006512346706792935,0.0011523361479228726,0.0,0.0,0.0,0.0,0.0,0.0,0.0,0.0,0.0,-0.0004123533999066581,0.005104271550630181,0.01240174221596937,0.0,0.0,0.0,0.0,0.0,0.0,0.0,0.0,0.0,0.011833677436045298,0.5742361914252324,9.811518458335126,0.0,0.0,0.0,0.0,0.0,0.0,0.0,0.0,0.0
2025/05/20 13:08:54.253956386,1747739333,514551320,mA1/imu,0.27967475317336,0.9600940113939314,0.0006936387606802076,0.0010200922504416726,0.0,0.0,0.0,0.0,0.0,0.0,0.0,0.0,0.0,-0.0007451121864538884,0.005797780066014043,0.012398880770436198,0.0,0.0,0.0,0.0,0.0,0.0,0.0,0.0,0.0,0.013497623159602427,0.5599570987363259,9.809574033491122,0.0,0.0,0.0,0.0,0.0,0.0,0.0,0.0,0.0
2025/05/20 13:08:55.221554180,1747739334,261518248,mA1/imu,0.2840082096206151,0.9588212179894372,0.0008193218719352293,0.0007331527910981401,0.0,0.0,0.0,0.0,0.0,0.0,0.0,0.0,0.0,4.095813762997787e-05,-0.003543632018999539,0.011480567493640272,0.0,0.0,0.0,0.0,0.0,0.0,0.0,0.0,0.0,-0.0054420882325531255,0.5809357963257916,9.811591584926145,0.0,0.0,0.0,0.0,0.0,0.0,0.0,0.0,0.0
2025/05/20 13:08:55.232270616,1747739334,312462152,mA1/imu,0.28428412896039285,0.9587394192276442,0.000782857978957232,0.0008044710403061965,0.0,0.0,0.0,0.0,0.0,0.0,0.0,0.0,0.0,0.0008003249789210895,-0.0028666932687800442,0.01152560091043629,0.0,0.0,0.0,0.0,0.0,0.0,0.0,0.0,0.0,-0.007145059487876863,0.6319982946922951,9.810608071484515,0.0,0.0,0.0,0.0,0.0,0.0,0.0,0.0,0.0
2025/05/20 13:08:55.918159161,1747739334,968004141,mA1/imu,0.2879452101761577,0.9576464256886111,0.0008858263384274014,0.0003075941058535085,0.0,0.0,0.0,0.0,0.0,0.0,0.0,0.0,0.0,-0.001787749921091803,0.0019455996715530815,0.01187888395636542,0.0,0.0,0.0,0.0,0.0,0.0,0.0,0.0,0.0,0.012090914155479093,-0.13955264068421108,9.81168914305353,0.0,0.0,0.0,0.0,0.0,0.0,0.0,0.0,0.0
2025/05/20 13:08:55.919292399,1747739335,19196231,mA1/imu,0.28822674008316534,0.9575617397929309,0.0008865838718175186,0.00027341324884506903,0.0,0.0,0.0,0.0,0.0,0.0,0.0,0.0,0.0,0.000859228075330894,0.001065992609872929,0.01176583713600202,0.0,0.0,0.0,0.0,0.0,0.0,0.0,0.0,0.0,-0.0022533150137294057,0.05490488899182976,9.809101169654758,0.0,0.0,0.0,0.0,0.0,0.0,0.0,0.0,0.0
2025/05/20 13:08:55.928748496,1747739335,68896061,mA1/imu,0.28850608111490833,0.9574775779730655,0.0009249119472089197,0.00027088085976817867,0.0,0.0,0.0,0.0,0.0,0.0,0.0,0.0,0.0,-0.00018567743464756678,0.0001569876273357743,0.011613207369948616,0.0,0.0,0.0,0.0,0.0,0.0,0.0,0.0,0.0,0.002032285735488617,-0.6389385729864802,9.808334739042605,0.0,0.0,0.0,0.0,0.0,0.0,0.0,0.0,0.0
2025/05/20 13:08:55.941221486,1747739335,119856555,mA1/imu,0.28878456083796367,0.9573936192831783,0.000927085367081848,0.0002751185258081642,0.0,0.0,0.0,0.0,0.0,0.0,0.0,0.0,0.0,-0.0024642925598781806,-0.0003506197013973732,0.011649943851520185,0.0,0.0,0.0,0.0,0.0,0.0,0.0,0.0,0.0,-0.002422023317432105,0.46855472430634676,9.811103340781372,0.0,0.0,0.0,0.0,0.0,0.0,0.0,0.0,0.0
2025/05/20 13:08:55.941784887,1747739335,169724161,mA1/imu,0.2890671405870297,0.9573083242208209,0.0009357787618985055,0.0002914248968617643,0.0,0.0,0.0,0.0,0.0,0.0,0.0,0.0,0.0,0.0008041098304854656,-0.000662831184136364,0.011897431449428123,0.0,0.0,0.0,0.0,0.0,0.0,0.0,0.0,0.0,-0.005463089900067126,0.07186460374672367,9.808496808888048,0.0,0.0,0.0,0.0,0.0,0.0,0.0,0.0,0.0
2025/05/20 13:08:55.950953155,1747739335,220661351,mA1/imu,0.28935265486252465,0.9572220322253949,0.0009579615698929096,0.0003231964174690163,0.0,0.0,0.0,0.0,0.0,0.0,0.0,0.0,0.0,0.00030191519707906383,-0.0011938944212271574,0.011951462517675931,0.0,0.0,0.0,0.0,0.0,0.0,0.0,0.0,0.0,-0.002297701170392467,-0.5890406601285184,9.808898832103072,0.0,0.0,0.0,0.0,0.0,0.0,0.0,0.0,0.0
2025/05/20 13:08:55.961699574,1747739335,260519208,mA1/imu,0.2896393932392564,0.9571352861084435,0.0009662404932932841,0.0003637985881092551,0.0,0.0,0.0,0.0,0.0,0.0,0.0,0.0,0.0,-0.000946966904107893,-0.0016482490560325274,0.012002252942433563,0.0,0.0,0.0,0.0,0.0,0.0,0.0,0.0,0.0,-0.0019774626133205186,-0.04867657952362972,9.81010413704119,0.0,0.0,0.0,0.0,0.0,0.0,0.0,0.0,0.0
2025/05/20 13:08:56.867979015,1747739335,917291349,mA1/imu,0.2934619852661439,0.9559701133162134,0.0008226863969200359,0.0007272117520835139,0.0,0.0,0.0,0.0,0.0,0.0,0.0,0.0,0.0,0.0004250302021740391,0.0011090805991814273,0.012534055849402566,0.0,0.0,0.0,0.0,0.0,0.0,0.0,0.0,0.0,0.001242850768536724,-0.06744932523483801,9.812404651014623,0.0,0.0,0.0,0.0,0.0,0.0,0.0,0.0,0.0
2025/05/20 13:08:56.870006867,1747739335,967119024,mA1/imu,0.29375875262867,0.955879000021453,0.000806196799294419,0.0006947076763924898,0.0,0.0,0.0,0.0,0.0,0.0,0.0,0.0,0.0,-0.000704147786533296,0.0010340000452878247,0.012347574015461217,0.0,0.0,0.0,0.0,0.0,0.0,0.0,0.0,0.0,0.0038303212502321868,0.49354011537584574,9.809750545651378,0.0,0.0,0.0,0.0,0.0,0.0,0.0,0.0,0.0
2025/05/20 13:08:57.765635442,1747739336,816872547,mA1/imu,0.29887784577595833,0.9542906960584098,0.0008958387176979793,0.0007058283574515378,0.0,0.0,0.0,0.0,0.0,0.0,0.0,0.0,0.0,-0.0010671065297114567,-0.001615212134609978,0.012851943003498241,0.0,0.0,0.0,0.0,0.0,0.0,0.0,0.0,0.0,0.002763912496846623,0.2694591381456886,9.811683277090387,0.0,0.0,0.0,0.0,0.0,0.0,0.0,0.0,0.0
2025/05/20 13:08:57.767191717,1747739336,866891443,mA1/imu,0.2991846674387901,0.9541945315033239,0.0008831781599735032,0.0007421691386944262,0.0,0.0,0.0,0.0,0.0,0.0,0.0,0.0,0.0,-5.491289009665289e-05,-0.0014897101556259448,0.012863523752133935,0.0,0.0,0.0,0.0,0.0,0.0,0.0,0.0,0.0,0.002175945484439343,-0.025348306091367165,9.8087717559037,0.0,0.0,0.0,0.0,0.0,0.0,0.0,0.0,0.0
2025/05/20 13:08:58.18419895,1747739337,68392268,mA1/imu,0.3004163511769455,0.9538074348471406,0.0008408219542266536,0.000828368450077517,0.0,0.0,0.0,0.0,0.0,0.0,0.0,0.0,0.0,-0.00010082474542598442,-0.0003366027261282485,0.013047829053691904,0.0,0.0,0.0,0.0,0.0,0.0,0.0,0.0,0.0,0.005524263386484677,0.2256145873220447,9.809254357925665,0.0,0.0,0.0,0.0,0.0,0.0,0.0,0.0,0.0
2025/05/20 13:08:58.19416850,1747739337,119804957,mA1/imu,0.30072744502560766,0.9537094050654948,0.0008271715054003657,0.0008308340934311756,0.0,0.0,0.0,0.0,0.0,0.0,0.0,0.0,0.0,0.00047619466658175425,-0.0002162617038553795,0.013044273941468287,0.0,0.0,0.0,0.0,0.0,0.0,0.0,0.0,0.0,0.008566790943442521,0.2687647646515466,9.809781643822266,0.0,0.0,0.0,0.0,0.0,0.0,0.0,0.0,0.0
2025/05/20 13:08:58.715521118,1747739337,764676695,mA1/imu,0.3047576210575356,0.9524294129861717,0.0007329875876855032,0.0006844087697894382,0.0,0.0,0.0,0.0,0.0,0.0,0.0,0.0,0.0,0.0009167586873991635,0.00016495807600397537,0.01296668613256842,0.0,0.0,0.0,0.0,0.0,0.0,0.0,0.0,0.0,0.008920433090979042,0.04517798926902572,9.808775276965491,0.0,0.0,0.0,0.0,0.0,0.0,0.0,0.0,0.0
2025/05/20 13:08:58.717634210,1747739337,815718820,mA1/imu,0.3050662643869912,0.9523305846215868,0.0007487876373851606,0.0006864723937428924,0.0,0.0,0.0,0.0,0.0,0.0,0.0,0.0,0.0,-0.000526977714677229,4.710161067780751e-05,0.012958418928665059,0.0,0.0,0.0,0.0,0.0,0.0,0.0,0.0,0.0,0.009369577237070839,-0.04817872929094166,9.808940878538928,0.0,0.0,0.0,0.0,0.0,0.0,0.0,0.0,0.0
2025/05/20 13:08:58.727096064,1747739337,865469510,mA1/imu,0.3053746709461718,0.9522317392576857,0.000744997809646634,0.0006856187452403319,0.0,0.0,0.0,0.0,0.0,0.0,0.0,0.0,0.0,-5.297430046110191e-05,-5.8866067882978645e-05,0.01295197928142659,0.0,0.0,0.0,0.0,0.0,0.0,0.0,0.0,0.0,0.008927098825022147,0.27879861556794705,9.811100721338837,0.0,0.0,0.0,0.0,0.0,0.0,0.0,0.0,0.0
2025/05/20 13:08:58.737505350,1747739337,916762219,mA1/imu,0.3056828274696667,0.9521328401475545,0.0007623396827276781,0.0006946516461511579,0.0,0.0,0.0,0.0,0.0,0.0,0.0,0.0,0.0,0.00015683826353127882,-0.00020541029619817276,0.012942037800415938,0.0,0.0,0.0,0.0,0.0,0.0,0.0,0.0,0.0,0.008917398277254188,0.01192827671120069,9.809708438246547,0.0,0.0,0.0,0.0,0.0,0.0,0.0,0.0,0.0
2025/05/20 13:08:58.748471612,1747739337,966611504,mA1/imu,0.30599080013372254,0.9520338991047417,0.0007687069770590514,0.000703049450870983,0.0,0.0,0.0,0.0,0.0,0.0,0.0,0.0,0.0,-0.0016490044062638575,-0.0002856898025058526,0.012934351422187561,0.0,0.0,0.0,0.0,0.0,0.0,0.0,0.0,0.0,0.0094141592057666,0.5181693691635691,9.810778612008852,0.0,0.0,0.0,0.0,0.0,0.0,0.0,0.0,0.0
2025/05/20 13:08:59.562986082,1747739338,613611703,mA1/imu,0.3101252507746642,0.9506950362377288,0.0008675808994094713,0.0007240222911386405,0.0,0.0,0.0,0.0,0.0,0.0,0.0,0.0,0.0,0.001476537440753476,3.253186353190596e-05,0.013731719066095709,0.0,0.0,0.0,0.0,0.0,0.0,0.0,0.0,0.0,0.006300607172420342,-0.579430263051759,9.80816918040468,0.0,0.0,0.0,0.0,0.0,0.0,0.0,0.0,0.0
2025/05/20 13:08:59.565748306,1747739338,663198250,mA1/imu,0.310452183365321,0.9505883404544412,0.000855029400508257,0.0007195557663652228,0.0,0.0,0.0,0.0,0.0,0.0,0.0,0.0,0.0,0.0011846156920597586,-2.8835739189707698e-05,0.013772139383581608,0.0,0.0,0.0,0.0,0.0,0.0,0.0,0.0,0.0,0.0069985261973200975,0.04346433514343872,9.809730374893034,0.0,0.0,0.0,0.0,0.0,0.0,0.0,0.0,0.0
2025/05/20 13:08:59.576747230,1747739338,714288706,mA1/imu,0.31078004043563257,0.9504812139883325,0.0008447949543122794,0.000717386630362547,0.0,0.0,0.0,0.0,0.0,0.0,0.0,0.0,0.0,0.0011654142909197313,-8.339344646857886e-05,0.01381078582356005,0.0,0.0,0.0,0.0,0.0,0.0,0.0,0.0,0.0,0.006299644468804141,0.014682599301849023,9.808452246029498,0.0,0.0,0.0,0.0,0.0,0.0,0.0,0.0,0.0
2025/05/20 13:08:59.586075731,1747739338,764734481,mA1/imu,0.31110877859714836,0.9503736721187186,0.0008351750026344293,0.0007167329263740133,0.0,0.0,0.0,0.0,0.0,0.0,0.0,0.0,0.0,0.0008109844917759813,-0.00013590689272396277,0.013849196506488559,0.0,0.0,0.0,0.0,0.0,0.0,0.0,0.0,0.0,0.006533043230262405,-0.24390706061882825,9.80918767397233,0.0,0.0,0.0,0.0,0.0,0.0,0.0,0.0,0.0
2025/05/20 13:08:59.596187784,1747739338,815997839,mA1/imu,0.3114383595673754,0.9502657376156014,0.0008160066210724888,0.0007143087940685453,0.0,0.0,0.0,0.0,0.0,0.0,0.0,0.0,0.0,0.0006736028220097031,-0.00017722251181715264,0.013886374047561881,0.0,0.0,0.0,0.0,0.0,0.0,0.0,0.0,0.0,0.006638044661742434,0.013157173367138373,9.808643149189423,0.0,0.0,0.0,0.0,0.0,0.0,0.0,0.0,0.0
2025/05/20 13:08:59.596731620,1747739338,865885597,mA1/imu,0.31176873893088813,0.9501574119940174,0.0007980585966994911,0.0007134148520881814,0.0,0.0,0.0,0.0,0.0,0.0,0.0,0.0,0.0,0.0007093449190720571,-0.000220143755719284,0.013922739653823612,0.0,0.0,0.0,0.0,0.0,0.0,0.0,0.0,0.0,0.006615512054360863,-0.027706982281670865,9.8109687938163,0.0,0.0,0.0,0.0,0.0,0.0,0.0,0.0,0.0
2025/05/20 13:08:59.607186693,1747739338,916788407,mA1/imu,0.31209992956396626,0.9500486970613379,0.0007749383962585952,0.00071179259853539,0.0,0.0,0.0,0.0,0.0,0.0,0.0,0.0,0.0,0.0006211530887818798,-0.00024257584912824602,0.013956689880773919,0.0,0.0,0.0,0.0,0.0,0.0,0.0,0.0,0.0,0.006421320811512541,0.5974956304173958,9.810526524273506,0.0,0.0,0.0,0.0,0.0,0.0,0.0,0.0,0.0
2025/05/20 13:09:00.562470640,1747739339,613267482,mA1/imu,0.31675216765695513,0.9485077453551136,0.0008554375538914949,0.000624109421864792,0.0,0.0,0.0,0.0,0.0,0.0,0.0,0.0,0.0,-0.0010275402862682259,0.001018126761298714,0.014492079162899204,0.0,0.0,0.0,0.0,0.0,0.0,0.0,0.0,0.0,0.004125047000266457,-0.048724446711502445,9.812378312761503,0.0,0.0,0.0,0.0,0.0,0.0,0.0,0.0,0.0
2025/05/20 13:09:00.566607393,1747739339,663166736,mA1/imu,0.31709650596087885,0.9483926656917872,0.0008858187027598054,0.0006106510088114364,0.0,0.0,0.0,0.0,0.0,0.0,0.0,0.0,0.0,-0.00219255785601374,0.0007853384072186916,0.01454513199852722,0.0,0.0,0.0,0.0,0.0,0.0,0.0,0.0,0.0,0.004398822415377117,0.3250186999328556,9.81075236452403,0.0,0.0,0.0,0.0,0.0,0.0,0.0,0.0,0.0
2025/05/20 13:09:00.575729477,1747739339,714091559,mA1/imu,0.3174420795805699,0.9482770508000371,0.0008963315932230145,0.0005980194160392555,0.0,0.0,0.0,0.0,0.0,0.0,0.0,0.0,0.0,-1.543472218322138e-05,0.00048766515623105313,0.014595569279136775,0.0,0.0,0.0,0.0,0.0,0.0,0.0,0.0,0.0,0.004172376491663963,0.013821669100088842,9.809149722888122,0.0,0.0,0.0,0.0,0.0,0.0,0.0,0.0,0.0
2025/05/20 13:09:00.585224690,1747739339,763967479,mA1/imu,0.3177887847587595,0.9481609007947116,0.0009160050033572462,0.0005961715739508756,0.0,0.0,0.0,0.0,0.0,0.0,0.0,0.0,0.0,-0.0010392872478633354,0.00018576695152436985,0.01464592297516572,0.0,0.0,0.0,0.0,0.0,0.0,0.0,0.0,0.0,0.004522853746479901,0.4106207416963888,9.809698822518666,0.0,0.0,0.0,0.0,0.0,0.0,0.0,0.0,0.0
2025/05/20 13:09:00.595418700,1747739339,814871235,mA1/imu,0.31813658898069724,0.9480442400574902,0.0009318058844901199,0.0006011516750276569,0.0,0.0,0.0,0.0,0.0,0.0,0.0,0.0,0.0,-0.0018779841601654225,-0.0001263408192915229,0.014692912993564752,0.0,0.0,0.0,0.0,0.0,0.0,0.0,0.0,0.0,0.004831963590023489,0.16922535649826712,9.810551107301933,0.0,0.0,0.0,0.0,0.0,0.0,0.0,0.0,0.0
2025/05/20 13:09:00.596271733,1747739339,864819860,mA1/imu,0.31848614264152886,0.9479268655802965,0.0009303211470665002,0.0006074199516835967,0.0,0.0,0.0,0.0,0.0,0.0,0.0,0.0,0.0,-0.00035015104864250115,-0.0003552458438964461,0.014783496227712216,0.0,0.0,0.0,0.0,0.0,0.0,0.0,0.0,0.0,0.0028872723890130646,-0.03688118253835537,9.808019824765667,0.0,0.0,0.0,0.0,0.0,0.0,0.0,0.0,0.0
2025/05/20 13:09:00.606756125,1747739339,916084512,mA1/imu,0.3188372923777094,0.9478088091516244,0.000926542472530642,0.0006195182623600917,0.0,0.0,0.0,0.0,0.0,0.0,0.0,0.0,0.0,0.0001630920706633094,-0.0006287494875035987,0.01483987856269593,0.0,0.0,0.0,0.0,0.0,0.0,0.0,0.0,0.0,0.003913240414230349,-0.01600229889118325,9.808595049199775,0.0,0.0,0.0,0.0,0.0,0.0,0.0,0.0,0.0
2025/05/20 13:09:01.562345343,1747739340,612389562,mA1/imu,0.32364272504574537,0.9461789173255978,0.0007609983384832791,0.0005136292949034157,0.0,0.0,0.0,0.0,0.0,0.0,0.0,0.0,0.0,0.00025819766217929766,0.0019358174136192828,0.014632079156572119,0.0,0.0,0.0,0.0,0.0,0.0,0.0,0.0,0.0,-0.0069461592370125246,0.10871998795669832,9.810787411988683,0.0,0.0,0.0,0.0,0.0,0.0,0.0,0.0,0.0
2025/05/20 13:09:01.568365431,1747739340,662179002,mA1/imu,0.3239896797184866,0.9460601811971072,0.0007757776502797952,0.0004681434034299883,0.0,0.0,0.0,0.0,0.0,0.0,0.0,0.0,0.0,-0.0005938107980559628,0.0018566245885297526,0.014695292377676137,0.0,0.0,0.0,0.0,0.0,0.0,0.0,0.0,0.0,-0.006191153500736082,0.22714403788181986,9.811217165807612,0.0,0.0,0.0,0.0,0.0,0.0,0.0,0.0,0.0
2025/05/20 13:09:01.576681378,1747739340,713179199,mA1/imu,0.3243380317974018,0.9459408198721996,0.000790050423164314,0.00042690704755804986,0.0,0.0,0.0,0.0,0.0,0.0,0.0,0.0,0.0,-0.0007687800502237241,0.0016400014117266715,0.01475433995890173,0.0,0.0,0.0,0.0,0.0,0.0,0.0,0.0,0.0,-0.0048694720792720105,0.14377363031015652,9.811816307937734,0.0,0.0,0.0,0.0,0.0,0.0,0.0,0.0,0.0
2025/05/20 13:09:01.586911455,1747739340,763066736,mA1/imu,0.3246877127831225,0.9458208556199812,0.0008026312077135762,0.0003924603112069436,0.0,0.0,0.0,0.0,0.0,0.0,0.0,0.0,0.0,0.00017700214173534928,0.0013198187065436668,0.014811151256192282,0.0,0.0,0.0,0.0,0.0,0.0,0.0,0.0,0.0,-0.005474349322258992,-0.546778926419185,9.809679663855809,0.0,0.0,0.0,0.0,0.0,0.0,0.0,0.0,0.0
2025/05/20 13:09:02.168035224,1747739341,218829778,mA1/imu,0.3278917822792778,0.9447147111369651,0.0008853299912040339,0.0005566560210986624,0.0,0.0,0.0,0.0,0.0,0.0,0.0,0.0,0.0,0.0006721438940310946,-0.0016014831259509614,0.015363349685578728,0.0,0.0,0.0,0.0,0.0,0.0,0.0,0.0,0.0,-0.00973862500782821,-0.5659621311559685,9.807837813857939,0.0,0.0,0.0,0.0,0.0,0.0,0.0,0.0,0.0
2025/05/20 13:09:02.171306757,1747739341,268375900,mA1/imu,0.3282557007964244,0.9445882945187565,0.0008890145786446611,0.0005986700878071447,0.0,0.0,0.0,0.0,0.0,0.0,0.0,0.0,0.0,-0.000840791058135069,-0.0015224727218222304,0.015437211374269481,0.0,0.0,0.0,0.0,0.0,0.0,0.0,0.0,0.0,-0.008858366449606954,-0.04940665886758948,9.809452167478064,0.0,0.0,0.0,0.0,0.0,0.0,0.0,0.0,0.0
2025/05/20 13:09:02.470348347,1747739341,511462635,mA1/imu,0.3300895214038553,0.9439489618756505,0.0008674075901114865,0.0007161266147604034,0.0,0.0,0.0,0.0,0.0,0.0,0.0,0.0,0.0,-2.1953325047340164e-05,-0.0002894673082167703,0.015622715302499781,0.0,0.0,0.0,0.0,0.0,0.0,0.0,0.0,0.0,-0.00796732210239621,-0.04330724774309485,9.809961093079206,0.0,0.0,0.0,0.0,0.0,0.0,0.0,0.0,0.0
2025/05/20 13:09:02.475214911,1747739341,561083649,mA1/imu,0.3304587175440359,0.9438197825947773,0.0008607872678468782,0.000716259155635005,0.0,0.0,0.0,0.0,0.0,0.0,0.0,0.0,0.0,0.0002131475294123647,8.300750201834355e-07,0.01565944541018486,0.0,0.0,0.0,0.0,0.0,0.0,0.0,0.0,0.0,-0.008039031358839578,-0.6647964120509943,9.809839992323113,0.0,0.0,0.0,0.0,0.0,0.0,0.0,0.0,0.0
2025/05/20 13:09:02.483934051,1747739341,612509855,mA1/imu,0.33082869086232936,0.9436901812946136,0.0008479996403829001,0.0007070552076889653,0.0,0.0,0.0,0.0,0.0,0.0,0.0,0.0,0.0,7.116651687971892e-05,0.0002646539390825987,0.015694505269639496,0.0,0.0,0.0,0.0,0.0,0.0,0.0,0.0,0.0,-0.0065811871014499,-0.05691780905637525,9.810153765628536,0.0,0.0,0.0,0.0,0.0,0.0,0.0,0.0,0.0
2025/05/20 13:09:02.492364624,1747739341,662407680,mA1/imu,0.33119939042308827,0.9435601686450795,0.0008333008142821865,0.0006910423987170718,0.0,0.0,0.0,0.0,0.0,0.0,0.0,0.0,0.0,2.0508448947452857e-05,0.0004887491033393379,0.015726706466134423,0.0,0.0,0.0,0.0,0.0,0.0,0.0,0.0,0.0,-0.006062219705677446,0.5625333924120499,9.811523880586792,0.0,0.0,0.0,0.0,0.0,0.0,0.0,0.0,0.0
2025/05/20 13:09:02.502393048,1747739341,713751011,mA1/imu,0.3315707888855316,0.943429743865291,0.0008238730332073838,0.0006719980079432132,0.0,0.0,0.0,0.0,0.0,0.0,0.0,0.0,0.0,0.0001609870024037104,0.0006415965948646316,0.015758742394443977,0.0,0.0,0.0,0.0,0.0,0.0,0.0,0.0,0.0,-0.005006669093926954,0.5666767748296343,9.812082987105653,0.0,0.0,0.0,0.0,0.0,0.0,0.0,0.0,0.0
2025/05/20 13:09:02.513401619,1747739341,763372176,mA1/imu,0.33194288080811957,0.9432989167466419,0.0008107110351215576,0.000648300112854289,0.0,0.0,0.0,0.0,0.0,0.0,0.0,0.0,0.0,0.002116293414295594,0.0007319013140947574,0.015790288083268614,0.0,0.0,0.0,0.0,0.0,0.0,0.0,0.0,0.0,-0.005357430124571893,-0.5594065585245409,9.810067493052049,0.0,0.0,0.0,0.0,0.0,0.0,0.0,0.0,0.0
2025/05/20 13:09:03.468755658,1747739342,520764075,mA1/imu,0.337578785219478,0.9412966337404078,0.0007231807377661244,0.0008295109032749209,0.0,0.0,0.0,0.0,0.0,0.0,0.0,0.0,0.0,-0.0005217334935886647,-0.0012326619253673226,0.015966070297491128,0.0,0.0,0.0,0.0,0.0,0.0,0.0,0.0,0.0,0.0013390426076086877,-0.012147223613257974,9.808552329016369,0.0,0.0,0.0,0.0,0.0,0.0,0.0,0.0,0.0
2025/05/20 13:09:03.470732856,1747739342,560290255,mA1/imu,0.337957620911405,0.9411606535422167,0.0007318988041999524,0.0008573307593198128,0.0,0.0,0.0,0.0,0.0,0.0,0.0,0.0,0.0,0.0007240024787644064,-0.0007720071837690987,0.016175488619384695,0.0,0.0,0.0,0.0,0.0,0.0,0.0,0.0,0.0,-2.9356905795134558e-05,-0.06637267190965042,9.810662896091978,0.0,0.0,0.0,0.0,0.0,0.0,0.0,0.0,0.0
2025/05/20 13:09:03.621042236,1747739342,661195236,mA1/imu,0.33871927500490007,0.9408867558967768,0.000755392405385208,0.0008914597623646849,0.0,0.0,0.0,0.0,0.0,0.0,0.0,0.0,0.0,-0.000820137013109949,-0.0002723430072789978,0.016198702159082243,0.0,0.0,0.0,0.0,0.0,0.0,0.0,0.0,0.0,0.0034527883008737877,0.27913987353855474,9.811388784122155,0.0,0.0,0.0,0.0,0.0,0.0,0.0,0.0,0.0
2025/05/20 13:09:03.621880190,1747739342,712818782,mA1/imu,0.33910037198623677,0.9407494561426091,0.00076820525815862,0.0008990811212247615,0.0,0.0,0.0,0.0,0.0,0.0,0.0,0.0,0.0,3.578935204150275e-05,-3.048572400724571e-05,0.016206389917146853,0.0,0.0,0.0,0.0,0.0,0.0,0.0,0.0,0.0,0.0033645485132492367,0.010049005933285626,9.81057209865138,0.0,0.0,0.0,0.0,0.0,0.0,0.0,0.0,0.0
2025/05/20 13:09:03.631895182,1747739342,762004327,mA1/imu,0.3394816399264766,0.9406119333004996,0.0007749966109346925,0.0008980343979398896,0.0,0.0,0.0,0.0,0.0,0.0,0.0,0.0,0.0,0.0005709987794436812,0.0002050127626091633,0.016213985022236886,0.0,0.0,0.0,0.0,0.0,0.0,0.0,0.0,0.0,0.00392413630065591,0.03535880456450145,9.809638161845042,0.0,0.0,0.0,0.0,0.0,0.0,0.0,0.0,0.0
