time,header_stamp_secs,header_stamp_nsecs,header_frame_id,orientation_x,orientation_y,orientation_z,orientation_w,orientation_covariance_0,orientation_covariance_1,orientation_covariance_2,orientation_covariance_3,orientation_covariance_4,orientation_covariance_5,orientation_covariance_6,orientation_covariance_7,orientation_covariance_8,angular_velocity_x,angular_velocity_y,angular_velocity_z,angular_velocity_covariance_0,angular_velocity_covariance_1,angular_velocity_covariance_2,angular_velocity_covariance_3,angular_velocity_covariance_4,angular_velocity_covariance_5,angular_velocity_covariance_6,angular_velocity_covariance_7,angular_velocity_covariance_8,linear_acceleration_x,linear_acceleration_y,linear_acceleration_z,linear_acceleration_covariance_0,linear_acceleration_covariance_1,linear_acceleration_covariance_2,linear_acceleration_covariance_3,linear_acceleration_covariance_4,linear_acceleration_covariance_5,linear_acceleration_covariance_6,linear_acceleration_covariance_7,linear_acceleration_covariance_8
2025/05/07 10:24:01.148656261,1746606241,148083901,mti/imu_base_body,0.5629746289727107,0.826431138447034,-0.004072707672486727,-0.007386040237667593,0.017453292519943295,0.0,0.0,0.0,0.017453292519943295,0.0,0.0,0.0,0.15707963267948966,0.012025771662592888,0.005840911064296961,0.0065908958204090595,0.0004363323129985824,0.0,0.0,0.0,0.0004363323129985824,0.0,0.0,0.0,0.0004363323129985824,-0.02016587182879448,0.11077830195426941,9.845911026000977,0.0004,0.0,0.0,0.0,0.0004,0.0,0.0,0.0,0.0004
2025/05/07 10:24:01.199374771,1746606241,198581518,mti/imu_base_body,0.562997496425931,0.8264156441335544,-0.004083763605902666,-0.00737055115084908,0.017453292519943295,0.0,0.0,0.0,0.017453292519943295,0.0,0.0,0.0,0.15707963267948966,0.009593324735760689,-0.0029884546529501677,0.0026182522997260094,0.0004363323129985824,0.0,0.0,0.0,0.0004363323129985824,0.0,0.0,0.0,0.0004363323129985824,-0.020295877009630203,0.1115340143442154,9.816864967346191,0.0004,0.0,0.0,0.0,0.0004,0.0,0.0,0.0,0.0004
2025/05/07 10:24:01.248492269,1746606241,248169243,mti/imu_base_body,0.5630231655369289,0.8263979278083569,-0.004097209362547433,-0.007388698009063857,0.017453292519943295,0.0,0.0,0.0,0.017453292519943295,0.0,0.0,0.0,0.15707963267948966,0.020173408091068268,0.00498419813811779,0.006673296447843313,0.0004363323129985824,0.0,0.0,0.0,0.0004363323129985824,0.0,0.0,0.0,0.0004363323129985824,-0.04277040809392929,0.1123182475566864,9.820363998413086,0.0004,0.0,0.0,0.0,0.0004,0.0,0.0,0.0,0.0004
2025/05/07 10:24:01.300380704,1746606241,299414152,mti/imu_base_body,0.5630504209893497,0.826379114347302,-0.0041040463072859815,-0.007412125079391072,0.017453292519943295,0.0,0.0,0.0,0.017453292519943295,0.0,0.0,0.0,0.15707963267948966,0.012506617233157158,0.004890634212642908,0.004162170924246311,0.0004363323129985824,0.0,0.0,0.0,0.0004363323129985824,0.0,0.0,0.0,0.0004363323129985824,-0.05613014101982117,0.12501513957977295,9.805861473083496,0.0004,0.0,0.0,0.0,0.0004,0.0,0.0,0.0,0.0004
2025/05/07 10:24:01.348288215,1746606241,348044422,mti/imu_base_body,0.5630654386423055,0.8263685557541096,-0.004156047957544577,-0.007419510279645574,0.017453292519943295,0.0,0.0,0.0,0.017453292519943295,0.0,0.0,0.0,0.15707963267948966,0.016546662896871567,0.0034234581980854273,0.0009127352968789637,0.0004363323129985824,0.0,0.0,0.0,0.0004363323129985824,0.0,0.0,0.0,0.0004363323129985824,-0.04293179512023926,0.10468126088380814,9.83248519897461,0.0004,0.0,0.0,0.0,0.0004,0.0,0.0,0.0,0.0004
2025/05/07 10:24:01.399362018,1746606241,398818699,mti/imu_base_body,0.5630814568445734,0.8263570471641963,-0.004187394905104942,-0.0074678834867416095,0.017453292519943295,0.0,0.0,0.0,0.017453292519943295,0.0,0.0,0.0,0.15707963267948966,0.025729434564709663,0.006680725142359734,0.0030139086302369833,0.0004363323129985824,0.0,0.0,0.0,0.0004363323129985824,0.0,0.0,0.0,0.0004363323129985824,-0.03903612494468689,0.1312476247549057,9.848923683166504,0.0004,0.0,0.0,0.0,0.0004,0.0,0.0,0.0,0.0004
2025/05/07 10:24:01.448130809,1746606241,447847599,mti/imu_base_body,0.5631121985751432,0.8263357194504196,-0.00422426437658904,-0.007489069815569268,0.017453292519943295,0.0,0.0,0.0,0.017453292519943295,0.0,0.0,0.0,0.15707963267948966,0.012455872260034084,0.0020382783841341734,0.008796462789177895,0.0004363323129985824,0.0,0.0,0.0,0.0004363323129985824,0.0,0.0,0.0,0.0004363323129985824,-0.03783297538757324,0.13433875143527985,9.80859661102295,0.0004,0.0,0.0,0.0,0.0004,0.0,0.0,0.0,0.0004
2025/05/07 10:24:01.498820546,1746606241,498130998,mti/imu_base_body,0.5631599129050919,0.8263030730621734,-0.004228850460259888,-0.0075007178671329605,0.017453292519943295,0.0,0.0,0.0,0.017453292519943295,0.0,0.0,0.0,0.15707963267948966,0.010883646085858345,0.009144007228314877,0.005155561491847038,0.0004363323129985824,0.0,0.0,0.0,0.0004363323129985824,0.0,0.0,0.0,0.0004363323129985824,-0.03617962822318077,0.11129836738109589,9.82840633392334,0.0004,0.0,0.0,0.0,0.0004,0.0,0.0,0.0,0.0004
2025/05/07 10:24:01.548344465,1746606241,548031896,mti/imu_base_body,0.563172919660298,0.8262940574142866,-0.0042184892057369645,-0.007523137108413335,0.017453292519943295,0.0,0.0,0.0,0.017453292519943295,0.0,0.0,0.0,0.15707963267948966,0.006767020560801029,0.003258490702137351,0.0013475908199325204,0.0004363323129985824,0.0,0.0,0.0,0.0004363323129985824,0.0,0.0,0.0,0.0004363323129985824,-0.031839314848184586,0.10852966457605362,9.810632705688477,0.0004,0.0,0.0,0.0,0.0004,0.0,0.0,0.0,0.0004
2025/05/07 10:24:01.601052754,1746606241,598041778,mti/imu_base_body,0.5632075994746225,0.8262706528051903,-0.004163380067217656,-0.00752824503676984,0.017453292519943295,0.0,0.0,0.0,0.017453292519943295,0.0,0.0,0.0,0.15707963267948966,0.006350141949951649,0.015223058871924877,0.009991170838475227,0.0004363323129985824,0.0,0.0,0.0,0.0004363323129985824,0.0,0.0,0.0,0.0004363323129985824,-0.026701146736741066,0.12050125747919083,9.845555305480957,0.0004,0.0,0.0,0.0,0.0004,0.0,0.0,0.0,0.0004
2025/05/07 10:24:01.648328308,1746606241,648068852,mti/imu_base_body,0.5632668010216819,0.826230310950866,-0.004146820879574072,-0.007535781938773835,0.017453292519943295,0.0,0.0,0.0,0.017453292519943295,0.0,0.0,0.0,0.15707963267948966,0.006518826354295015,0.005605368409305811,0.012813935056328773,0.0004363323129985824,0.0,0.0,0.0,0.0004363323129985824,0.0,0.0,0.0,0.0004363323129985824,-0.030366402119398117,0.12385433912277222,9.82815933227539,0.0004,0.0,0.0,0.0,0.0004,0.0,0.0,0.0,0.0004
2025/05/07 10:24:01.700028486,1746606241,699481529,mti/imu_base_body,0.5632857601286606,0.8262173364020794,-0.0041149826912652695,-0.007558596588038788,0.017453292519943295,0.0,0.0,0.0,0.017453292519943295,0.0,0.0,0.0,0.15707963267948966,0.009944874793291092,0.010531890206038952,0.000941833364777267,0.0004363323129985824,0.0,0.0,0.0,0.0004363323129985824,0.0,0.0,0.0,0.0004363323129985824,-0.03763476386666298,0.12814244627952576,9.822050094604492,0.0004,0.0,0.0,0.0,0.0004,0.0,0.0,0.0,0.0004
2025/05/07 10:24:01.748605772,1746606241,748224120,mti/imu_base_body,0.5632807625381693,0.826220619595899,-0.004114282597218185,-0.007572515282077117,0.017453292519943295,0.0,0.0,0.0,0.017453292519943295,0.0,0.0,0.0,0.15707963267948966,0.011917583644390106,0.004205563571304083,-0.00396399712190032,0.0004363323129985824,0.0,0.0,0.0,0.0004363323129985824,0.0,0.0,0.0,0.0004363323129985824,-0.017897669225931168,0.12113247066736221,9.832229614257812,0.0004,0.0,0.0,0.0,0.0004,0.0,0.0,0.0,0.0004
2025/05/07 10:24:01.798376121,1746606241,798021040,mti/imu_base_body,0.5632992478590135,0.8262079525875956,-0.004096405558035164,-0.0075891965310743575,0.017453292519943295,0.0,0.0,0.0,0.017453292519943295,0.0,0.0,0.0,0.15707963267948966,0.008523537777364254,0.01203969120979309,0.0021505116019397974,0.0004363323129985824,0.0,0.0,0.0,0.0004363323129985824,0.0,0.0,0.0,0.0004363323129985824,-0.031131966039538383,0.12719352543354034,9.826478958129883,0.0004,0.0,0.0,0.0,0.0004,0.0,0.0,0.0,0.0004
2025/05/07 10:24:01.848213887,1746606241,847974582,mti/imu_base_body,0.5632992999143123,0.8262078191140594,-0.004077459242403554,-0.007610037908055978,0.017453292519943295,0.0,0.0,0.0,0.017453292519943295,0.0,0.0,0.0,0.15707963267948966,0.00907102320343256,0.004302861634641886,-0.0016520116478204727,0.0004363323129985824,0.0,0.0,0.0,0.0004363323129985824,0.0,0.0,0.0,0.0004363323129985824,-0.010247101075947285,0.1325046271085739,9.825016975402832,0.0004,0.0,0.0,0.0,0.0004,0.0,0.0,0.0,0.0004
2025/05/07 10:24:01.898509637,1746606241,898134730,mti/imu_base_body,0.5633217992450272,0.8261924888018497,-0.004098504857653716,-0.007597644416686737,0.017453292519943295,0.0,0.0,0.0,0.017453292519943295,0.0,0.0,0.0,0.15707963267948966,0.013800748623907566,-0.001059322152286768,0.005096102599054575,0.0004363323129985824,0.0,0.0,0.0,0.0004363323129985824,0.0,0.0,0.0,0.0004363323129985824,-0.015447822399437428,0.12843438982963562,9.812539100646973,0.0004,0.0,0.0,0.0,0.0004,0.0,0.0,0.0,0.0004
2025/05/07 10:24:01.951544699,1746606241,948161152,mti/imu_base_body,0.5633616176088669,0.8261652958169978,-0.004119654274593215,-0.007590799785992133,0.017453292519943295,0.0,0.0,0.0,0.017453292519943295,0.0,0.0,0.0,0.15707963267948966,0.009346081875264645,0.002313635777682066,0.00619023572653532,0.0004363323129985824,0.0,0.0,0.0,0.0004363323129985824,0.0,0.0,0.0,0.0004363323129985824,-0.012776488438248634,0.119993194937706,9.831866264343262,0.0004,0.0,0.0,0.0,0.0004,0.0,0.0,0.0,0.0004
2025/05/07 10:24:02.11286936,1746606241,998158829,mti/imu_base_body,0.5634010686007452,0.8261383217496338,-0.004114401033002925,-0.007601377531504467,0.017453292519943295,0.0,0.0,0.0,0.017453292519943295,0.0,0.0,0.0,0.15707963267948966,0.007814878597855568,0.007534008007496595,0.006428033113479614,0.0004363323129985824,0.0,0.0,0.0,0.0004363323129985824,0.0,0.0,0.0,0.0004363323129985824,-0.019198082387447357,0.1129184290766716,9.853351593017578,0.0004,0.0,0.0,0.0,0.0004,0.0,0.0,0.0,0.0004
2025/05/07 10:24:02.57738305,1746606242,47952607,mti/imu_base_body,0.5634201959298587,0.8261253457948502,-0.004096155393925154,-0.007603773056016201,0.017453292519943295,0.0,0.0,0.0,0.017453292519943295,0.0,0.0,0.0,0.15707963267948966,0.008727948181331158,0.00506007531657815,0.006247036159038544,0.0004363323129985824,0.0,0.0,0.0,0.0004363323129985824,0.0,0.0,0.0,0.0004363323129985824,-0.021409794688224792,0.12648248672485352,9.831750869750977,0.0004,0.0,0.0,0.0,0.0004,0.0,0.0,0.0,0.0004
2025/05/07 10:24:02.98375964,1746606242,98113477,mti/imu_base_body,0.5634591490287515,0.8260988031181711,-0.0041064633301008385,-0.007595513243928629,0.017453292519943295,0.0,0.0,0.0,0.017453292519943295,0.0,0.0,0.0,0.15707963267948966,0.01032097265124321,0.0010826612124219537,0.006786249577999115,0.0004363323129985824,0.0,0.0,0.0,0.0004363323129985824,0.0,0.0,0.0,0.0004363323129985824,-0.02429984137415886,0.11543771624565125,9.841835021972656,0.0004,0.0,0.0,0.0,0.0004,0.0,0.0,0.0,0.0004
2025/05/07 10:24:02.148508843,1746606242,147822484,mti/imu_base_body,0.5634493081856043,0.8261057519999694,-0.004080206055911515,-0.007583899806172537,0.017453292519943295,0.0,0.0,0.0,0.017453292519943295,0.0,0.0,0.0,0.15707963267948966,0.0038413305301219225,0.00923614390194416,-0.00558426883071661,0.0004363323129985824,0.0,0.0,0.0,0.0004363323129985824,0.0,0.0,0.0,0.0004363323129985824,-0.01724805310368538,0.12101978063583374,9.817461967468262,0.0004,0.0,0.0,0.0,0.0004,0.0,0.0,0.0,0.0004
2025/05/07 10:24:02.205865848,1746606242,198049125,mti/imu_base_body,0.56344453596706,0.8261087157002757,-0.004080501662428739,-0.007615394874091904,0.017453292519943295,0.0,0.0,0.0,0.017453292519943295,0.0,0.0,0.0,0.15707963267948966,0.012602733448147774,0.006769060622900724,-0.0001263720914721489,0.0004363323129985824,0.0,0.0,0.0,0.0004363323129985824,0.0,0.0,0.0,0.0004363323129985824,-0.017414484173059464,0.12529462575912476,9.831978797912598,0.0004,0.0,0.0,0.0,0.0004,0.0,0.0,0.0,0.0004
2025/05/07 10:24:02.268654653,1746606242,248095108,mti/imu_base_body,0.5635066891376205,0.8260660857916095,-0.004101580005860842,-0.007629563784517686,0.017453292519943295,0.0,0.0,0.0,0.017453292519943295,0.0,0.0,0.0,0.15707963267948966,0.01723327673971653,0.0010112820891663432,0.010558411478996277,0.0004363323129985824,0.0,0.0,0.0,0.0004363323129985824,0.0,0.0,0.0,0.0004363323129985824,-0.008393378928303719,0.1160372644662857,9.825247764587402,0.0004,0.0,0.0,0.0,0.0004,0.0,0.0,0.0,0.0004
2025/05/07 10:24:02.298979034,1746606242,298278603,mti/imu_base_body,0.5635256563191514,0.826052437430611,-0.0041487149707309535,-0.0076807193092634455,0.017453292519943295,0.0,0.0,0.0,0.017453292519943295,0.0,0.0,0.0,0.15707963267948966,0.029444243758916855,0.0064842053689062595,0.0030446010641753674,0.0004363323129985824,0.0,0.0,0.0,0.0004363323129985824,0.0,0.0,0.0,0.0004363323129985824,-0.030944958329200745,0.12882237136363983,9.82586669921875,0.0004,0.0,0.0,0.0,0.0004,0.0,0.0,0.0,0.0004
2025/05/07 10:24:02.348331630,1746606242,347946298,mti/imu_base_body,0.563566732188148,0.8260237047635038,-0.004186598936733466,-0.007736273579109293,0.017453292519943295,0.0,0.0,0.0,0.017453292519943295,0.0,0.0,0.0,0.15707963267948966,0.01494905911386013,0.006178929004818201,0.008108249865472317,0.0004363323129985824,0.0,0.0,0.0,0.0004363323129985824,0.0,0.0,0.0,0.0004363323129985824,-0.02632412314414978,0.12496395409107208,9.819500923156738,0.0004,0.0,0.0,0.0,0.0004,0.0,0.0,0.0,0.0004
2025/05/07 10:24:02.407098391,1746606242,399659239,mti/imu_base_body,0.563627896342311,0.8259820787383997,-0.004209112975071393,-0.007712550531198388,0.017453292519943295,0.0,0.0,0.0,0.017453292519943295,0.0,0.0,0.0,0.15707963267948966,0.013584554195404053,-0.004926255438476801,0.0075913723558187485,0.0004363323129985824,0.0,0.0,0.0,0.0004363323129985824,0.0,0.0,0.0,0.0004363323129985824,-0.017083046957850456,0.12928931415081024,9.831140518188477,0.0004,0.0,0.0,0.0,0.0004,0.0,0.0,0.0,0.0004
2025/05/07 10:24:02.449207097,1746606242,448303118,mti/imu_base_body,0.5636472909257841,0.8259688030893804,-0.004221360290545153,-0.007710244640628398,0.017453292519943295,0.0,0.0,0.0,0.017453292519943295,0.0,0.0,0.0,0.15707963267948966,0.010071844793856144,0.005175488535314798,0.005470827221870422,0.0004363323129985824,0.0,0.0,0.0,0.0004363323129985824,0.0,0.0,0.0,0.0004363323129985824,-0.0020475820638239384,0.13740864396095276,9.83100700378418,0.0004,0.0,0.0,0.0,0.0004,0.0,0.0,0.0,0.0004
2025/05/07 10:24:02.508508816,1746606242,507988587,mti/imu_base_body,0.5636903371394841,0.8259396329118895,-0.004197007951545197,-0.007701410598212939,0.017453292519943295,0.0,0.0,0.0,0.017453292519943295,0.0,0.0,0.0,0.15707963267948966,0.005355796776711941,0.00798854511231184,0.010091416537761688,0.0004363323129985824,0.0,0.0,0.0,0.0004363323129985824,0.0,0.0,0.0,0.0004363323129985824,-0.022405307739973068,0.11964378505945206,9.814106941223145,0.0004,0.0,0.0,0.0,0.0004,0.0,0.0,0.0,0.0004
2025/05/07 10:24:02.548373148,1746606242,548082831,mti/imu_base_body,0.5637049917073129,0.8259295572903256,-0.00423539720661088,-0.007688311190850415,0.017453292519943295,0.0,0.0,0.0,0.017453292519943295,0.0,0.0,0.0,0.15707963267948966,0.017644012346863747,-0.007527143694460392,4.727808845927939e-05,0.0004363323129985824,0.0,0.0,0.0,0.0004363323129985824,0.0,0.0,0.0,0.0004363323129985824,-0.02452373504638672,0.12357276678085327,9.81158447265625,0.0004,0.0,0.0,0.0,0.0004,0.0,0.0,0.0,0.0004
2025/05/07 10:24:02.599827585,1746606242,598284157,mti/imu_base_body,0.5637427660524588,0.8259036451000854,-0.004255871063016977,-0.007690922923140419,0.017453292519943295,0.0,0.0,0.0,0.017453292519943295,0.0,0.0,0.0,0.15707963267948966,0.010997379198670387,0.007904916070401669,0.011557677760720253,0.0004363323129985824,0.0,0.0,0.0,0.0004363323129985824,0.0,0.0,0.0,0.0004363323129985824,-0.02272973209619522,0.12856292724609375,9.806183815002441,0.0004,0.0,0.0,0.0,0.0004,0.0,0.0,0.0,0.0004
2025/05/07 10:24:02.652277008,1746606242,649101378,mti/imu_base_body,0.5638057886946246,0.8258603635091633,-0.004260957975304658,-0.007716012965106922,0.017453292519943295,0.0,0.0,0.0,0.017453292519943295,0.0,0.0,0.0,0.15707963267948966,0.013829585164785385,0.007620968855917454,0.007844206877052784,0.0004363323129985824,0.0,0.0,0.0,0.0004363323129985824,0.0,0.0,0.0,0.0004363323129985824,-0.005181744694709778,0.12772351503372192,9.8242826461792,0.0004,0.0,0.0,0.0,0.0004,0.0,0.0,0.0,0.0004
2025/05/07 10:24:02.698724300,1746606242,698324977,mti/imu_base_body,0.5637925233387056,0.8258691964629159,-0.004213424377762295,-0.007765823593502749,0.017453292519943295,0.0,0.0,0.0,0.017453292519943295,0.0,0.0,0.0,0.15707963267948966,0.00967478659003973,0.011959528550505638,-0.0015224568778648973,0.0004363323129985824,0.0,0.0,0.0,0.0004363323129985824,0.0,0.0,0.0,0.0004363323129985824,-0.0136348782107234,0.11609235405921936,9.832456588745117,0.0004,0.0,0.0,0.0,0.0004,0.0,0.0,0.0,0.0004
2025/05/07 10:24:02.748446607,1746606242,748090525,mti/imu_base_body,0.5638597858931758,0.8258230585236068,-0.004234524818015085,-0.007777317197022041,0.017453292519943295,0.0,0.0,0.0,0.017453292519943295,0.0,0.0,0.0,0.15707963267948966,0.014103411696851254,0.005544496700167656,0.010760804638266563,0.0004363323129985824,0.0,0.0,0.0,0.0004363323129985824,0.0,0.0,0.0,0.0004363323129985824,-0.031764544546604156,0.12511029839515686,9.805946350097656,0.0004,0.0,0.0,0.0,0.0004,0.0,0.0,0.0,0.0004
2025/05/07 10:24:02.798526887,1746606242,798213136,mti/imu_base_body,0.5638679835749884,0.8258172730110888,-0.004240964980557537,-0.007793773902229686,0.017453292519943295,0.0,0.0,0.0,0.017453292519943295,0.0,0.0,0.0,0.15707963267948966,0.012838136404752731,0.0066178361885249615,0.0014277242589741945,0.0004363323129985824,0.0,0.0,0.0,0.0004363323129985824,0.0,0.0,0.0,0.0004363323129985824,-0.04069369286298752,0.11136828362941742,9.841255187988281,0.0004,0.0,0.0,0.0,0.0004,0.0,0.0,0.0,0.0004
2025/05/07 10:24:02.852567839,1746606242,848768523,mti/imu_base_body,0.5638695872344146,0.8258162344477396,-0.004194252117587678,-0.007813050865123102,0.017453292519943295,0.0,0.0,0.0,0.017453292519943295,0.0,0.0,0.0,0.15707963267948966,0.0037293536588549614,0.010098529979586601,-0.0007043302175588906,0.0004363323129985824,0.0,0.0,0.0,0.0004363323129985824,0.0,0.0,0.0,0.0004363323129985824,-0.03647351637482643,0.1113511174917221,9.825886726379395,0.0004,0.0,0.0,0.0,0.0004,0.0,0.0,0.0,0.0004
2025/05/07 10:24:02.900566458,1746606242,898263359,mti/imu_base_body,0.563901933392801,0.8257939324952759,-0.004212729043959247,-0.007825821608662461,0.017453292519943295,0.0,0.0,0.0,0.017453292519943295,0.0,0.0,0.0,0.15707963267948966,0.008362582884728909,0.006709014996886253,0.0072253732942044735,0.0004363323129985824,0.0,0.0,0.0,0.0004363323129985824,0.0,0.0,0.0,0.0004363323129985824,-0.021177297458052635,0.10287028551101685,9.820942878723145,0.0004,0.0,0.0,0.0,0.0004,0.0,0.0,0.0,0.0004
2025/05/07 10:24:02.960794762,1746606242,948663866,mti/imu_base_body,0.5639477781187786,0.825762664732158,-0.0042089876355183,-0.007823650837205987,0.017453292519943295,0.0,0.0,0.0,0.017453292519943295,0.0,0.0,0.0,0.15707963267948966,0.014903681352734566,-0.002397789852693677,0.011089562438428402,0.0004363323129985824,0.0,0.0,0.0,0.0004363323129985824,0.0,0.0,0.0,0.0004363323129985824,-0.030726680532097816,0.11979658156633377,9.832340240478516,0.0004,0.0,0.0,0.0,0.0004,0.0,0.0,0.0,0.0004
2025/05/07 10:24:02.999599596,1746606242,998021509,mti/imu_base_body,0.5640041072618327,0.8257242842255328,-0.004194452734091454,-0.007821764396610684,0.017453292519943295,0.0,0.0,0.0,0.017453292519943295,0.0,0.0,0.0,0.15707963267948966,0.0027449745684862137,0.008331197313964367,0.008350204676389694,0.0004363323129985824,0.0,0.0,0.0,0.0004363323129985824,0.0,0.0,0.0,0.0004363323129985824,-0.04310852289199829,0.12241017818450928,9.807500839233398,0.0004,0.0,0.0,0.0,0.0004,0.0,0.0,0.0,0.0004
2025/05/07 10:24:03.48668070,1746606243,48236793,mti/imu_base_body,0.564032751058351,0.8257050895487478,-0.004114881020382827,-0.007824869393829037,0.017453292519943295,0.0,0.0,0.0,0.017453292519943295,0.0,0.0,0.0,0.15707963267948966,-0.0023755126167088747,0.01053397636860609,0.007051349617540836,0.0004363323129985824,0.0,0.0,0.0,0.0004363323129985824,0.0,0.0,0.0,0.0004363323129985824,-0.017049705609679222,0.11272525042295456,9.83232307434082,0.0004,0.0,0.0,0.0,0.0004,0.0,0.0,0.0,0.0004
2025/05/07 10:24:03.129097235,1746606243,98576034,mti/imu_base_body,0.564069966507438,0.8256794886546728,-0.004113993884921226,-0.00784410310812149,0.017453292519943295,0.0,0.0,0.0,0.017453292519943295,0.0,0.0,0.0,0.15707963267948966,0.015245651826262474,0.010860520415008068,0.010156512260437012,0.0004363323129985824,0.0,0.0,0.0,0.0004363323129985824,0.0,0.0,0.0,0.0004363323129985824,-0.006784513127058744,0.12636616826057434,9.833982467651367,0.0004,0.0,0.0,0.0,0.0004,0.0,0.0,0.0,0.0004
2025/05/07 10:24:03.149754135,1746606243,148233998,mti/imu_base_body,0.5641501276046943,0.8256243627367508,-0.004116123212623122,-0.007880527192997842,0.017453292519943295,0.0,0.0,0.0,0.017453292519943295,0.0,0.0,0.0,0.15707963267948966,0.010861561633646488,0.012291423976421356,0.015873003751039505,0.0004363323129985824,0.0,0.0,0.0,0.0004363323129985824,0.0,0.0,0.0,0.0004363323129985824,-0.028155360370874405,0.11834169179201126,9.831130027770996,0.0004,0.0,0.0,0.0,0.0004,0.0,0.0,0.0,0.0004
2025/05/07 10:24:03.203430018,1746606243,200276384,mti/imu_base_body,0.5642145537377604,0.8255797430393274,-0.004095649950479394,-0.007953042505930957,0.017453292519943295,0.0,0.0,0.0,0.017453292519943295,0.0,0.0,0.0,0.15707963267948966,0.017618265002965927,0.016261423006653786,0.009206684306263924,0.0004363323129985824,0.0,0.0,0.0,0.0004363323129985824,0.0,0.0,0.0,0.0004363323129985824,-0.020253179594874382,0.13008829951286316,9.80963134765625,0.0004,0.0,0.0,0.0,0.0004,0.0,0.0,0.0,0.0004
2025/05/07 10:24:03.254570406,1746606243,248017530,mti/imu_base_body,0.5642548876569455,0.8255520482072793,-0.00407616321263333,-0.007976361919926024,0.017453292519943295,0.0,0.0,0.0,0.017453292519943295,0.0,0.0,0.0,0.15707963267948966,0.01408254075795412,0.0065257553942501545,0.009877251461148262,0.0004363323129985824,0.0,0.0,0.0,0.0004363323129985824,0.0,0.0,0.0,0.0004363323129985824,-0.03021516650915146,0.1476745307445526,9.818892478942871,0.0004,0.0,0.0,0.0,0.0004,0.0,0.0,0.0,0.0004
2025/05/07 10:24:03.298462515,1746606243,298117851,mti/imu_base_body,0.5643194739076217,0.8255076904536581,-0.004069758560819616,-0.008001339622144821,0.017453292519943295,0.0,0.0,0.0,0.017453292519943295,0.0,0.0,0.0,0.15707963267948966,0.010887566022574902,0.012956326827406883,0.014230781234800816,0.0004363323129985824,0.0,0.0,0.0,0.0004363323129985824,0.0,0.0,0.0,0.0004363323129985824,-0.023823784664273262,0.14440631866455078,9.825849533081055,0.0004,0.0,0.0,0.0,0.0004,0.0,0.0,0.0,0.0004
2025/05/07 10:24:03.348766496,1746606243,348035739,mti/imu_base_body,0.5643592948679725,0.8254801047557367,-0.004070933455297673,-0.008038062539258428,0.017453292519943295,0.0,0.0,0.0,0.017453292519943295,0.0,0.0,0.0,0.15707963267948966,0.007508424110710621,0.006897222716361284,0.005248431582003832,0.0004363323129985824,0.0,0.0,0.0,0.0004363323129985824,0.0,0.0,0.0,0.0004363323129985824,-0.02230650931596756,0.14371885359287262,9.800638198852539,0.0004,0.0,0.0,0.0,0.0004,0.0,0.0,0.0,0.0004
2025/05/07 10:24:03.431460253,1746606243,398031933,mti/imu_base_body,0.564391495233572,0.8254580381763903,-0.004058771855809806,-0.00804945271556767,0.017453292519943295,0.0,0.0,0.0,0.017453292519943295,0.0,0.0,0.0,0.15707963267948966,0.012591023929417133,0.006062260828912258,0.008063084445893764,0.0004363323129985824,0.0,0.0,0.0,0.0004363323129985824,0.0,0.0,0.0,0.0004363323129985824,-0.01893562637269497,0.13638676702976227,9.800752639770508,0.0004,0.0,0.0,0.0,0.0004,0.0,0.0,0.0,0.0004
2025/05/07 10:24:03.448534448,1746606243,448172740,mti/imu_base_body,0.5644579995551736,0.8254122713146194,-0.00408741229375152,-0.008064872110181179,0.017453292519943295,0.0,0.0,0.0,0.017453292519943295,0.0,0.0,0.0,0.15707963267948966,0.014901993796229362,0.002941509708762169,0.01176582369953394,0.0004363323129985824,0.0,0.0,0.0,0.0004363323129985824,0.0,0.0,0.0,0.0004363323129985824,-0.005410003941506147,0.13558684289455414,9.803977966308594,0.0004,0.0,0.0,0.0,0.0004,0.0,0.0,0.0,0.0004
2025/05/07 10:24:03.498305721,1746606243,497933779,mti/imu_base_body,0.5644885477924939,0.8253912932171799,-0.004072636659827386,-0.008081220392335452,0.017453292519943295,0.0,0.0,0.0,0.017453292519943295,0.0,0.0,0.0,0.15707963267948966,0.008586304262280464,0.009469079785048962,0.007894974201917648,0.0004363323129985824,0.0,0.0,0.0,0.0004363323129985824,0.0,0.0,0.0,0.0004363323129985824,-0.018169615417718887,0.1539301872253418,9.830997467041016,0.0004,0.0,0.0,0.0,0.0004,0.0,0.0,0.0,0.0004
2025/05/07 10:24:03.548299412,1746606243,548013217,mti/imu_base_body,0.5645276346305239,0.8253645598583055,-0.004057263796445363,-0.008088985032593355,0.017453292519943295,0.0,0.0,0.0,0.017453292519943295,0.0,0.0,0.0,0.15707963267948966,0.011167088523507118,0.003929478581994772,0.006796331610530615,0.0004363323129985824,0.0,0.0,0.0,0.0004363323129985824,0.0,0.0,0.0,0.0004363323129985824,-0.006270022131502628,0.1373765766620636,9.798940658569336,0.0004,0.0,0.0,0.0,0.0004,0.0,0.0,0.0,0.0004
2025/05/07 10:24:03.598561850,1746606243,598021780,mti/imu_base_body,0.5645605734907104,0.8253417172817261,-0.004067847204866807,-0.008115490953052829,0.017453292519943295,0.0,0.0,0.0,0.017453292519943295,0.0,0.0,0.0,0.15707963267948966,0.009241879917681217,0.011420929804444313,0.010210220701992512,0.0004363323129985824,0.0,0.0,0.0,0.0004363323129985824,0.0,0.0,0.0,0.0004363323129985824,-0.01462226826697588,0.14751170575618744,9.789703369140625,0.0004,0.0,0.0,0.0,0.0004,0.0,0.0,0.0,0.0004
2025/05/07 10:24:03.674927370,1746606243,655094448,mti/imu_base_body,0.5646614654054443,0.8252728670527407,-0.004039398044586695,-0.008112191822363682,0.017453292519943295,0.0,0.0,0.0,0.017453292519943295,0.0,0.0,0.0,0.15707963267948966,0.009010960347950459,0.006828004028648138,0.022041354328393936,0.0004363323129985824,0.0,0.0,0.0,0.0004363323129985824,0.0,0.0,0.0,0.0004363323129985824,-0.010724136605858803,0.15043756365776062,9.782259941101074,0.0004,0.0,0.0,0.0,0.0004,0.0,0.0,0.0,0.0004
2025/05/07 10:24:03.719199009,1746606243,698576865,mti/imu_base_body,0.5647170004321485,0.8252348398374547,-0.004014833188950667,-0.00812709393522042,0.017453292519943295,0.0,0.0,0.0,0.017453292519943295,0.0,0.0,0.0,0.15707963267948966,0.007180465385317802,0.003768758149817586,0.0062717171385884285,0.0004363323129985824,0.0,0.0,0.0,0.0004363323129985824,0.0,0.0,0.0,0.0004363323129985824,-0.006151233334094286,0.16056326031684875,9.782132148742676,0.0004,0.0,0.0,0.0,0.0004,0.0,0.0,0.0,0.0004
2025/05/07 10:24:03.752031031,1746606243,750389997,mti/imu_base_body,0.564755872025724,0.8252083571657751,-0.004028312732774566,-0.008108327370899813,0.017453292519943295,0.0,0.0,0.0,0.017453292519943295,0.0,0.0,0.0,0.15707963267948966,0.008849774487316608,-0.003709373064339161,0.008596070110797882,0.0004363323129985824,0.0,0.0,0.0,0.0004363323129985824,0.0,0.0,0.0,0.0004363323129985824,0.017284909263253212,0.15664391219615936,9.785947799682617,0.0004,0.0,0.0,0.0,0.0004,0.0,0.0,0.0,0.0004
2025/05/07 10:24:03.800870518,1746606243,798157681,mti/imu_base_body,0.5648017529235718,0.8251773306850403,-0.004021483926052902,-0.00807344319388269,0.017453292519943295,0.0,0.0,0.0,0.017453292519943295,0.0,0.0,0.0,0.15707963267948966,0.00772852823138237,0.008599027059972286,0.006823615171015263,0.0004363323129985824,0.0,0.0,0.0,0.0004363323129985824,0.0,0.0,0.0,0.0004363323129985824,0.007372948341071606,0.16749736666679382,9.745031356811523,0.0004,0.0,0.0,0.0,0.0004,0.0,0.0,0.0,0.0004
2025/05/07 10:24:03.848940265,1746606243,847959512,mti/imu_base_body,0.5648563282384917,0.8251394259999782,-0.0040188090641974355,-0.008130515547058443,0.017453292519943295,0.0,0.0,0.0,0.017453292519943295,0.0,0.0,0.0,0.15707963267948966,0.014499726705253124,0.006590006407350302,0.01283583790063858,0.0004363323129985824,0.0,0.0,0.0,0.0004363323129985824,0.0,0.0,0.0,0.0004363323129985824,0.0072435117326676846,0.1680343747138977,9.778030395507812,0.0004,0.0,0.0,0.0,0.0004,0.0,0.0,0.0,0.0004
2025/05/07 10:24:03.900442502,1746606243,898174594,mti/imu_base_body,0.5648942884160599,0.8251135928753979,-0.003990592771893477,-0.008128772139414082,0.017453292519943295,0.0,0.0,0.0,0.017453292519943295,0.0,0.0,0.0,0.15707963267948966,0.003846903797239065,0.006422458682209253,0.010899096727371216,0.0004363323129985824,0.0,0.0,0.0,0.0004363323129985824,0.0,0.0,0.0,0.0004363323129985824,0.008552547544240952,0.16525883972644806,9.779842376708984,0.0004,0.0,0.0,0.0,0.0004,0.0,0.0,0.0,0.0004
2025/05/07 10:24:03.948912627,1746606243,948171402,mti/imu_base_body,0.564950621081772,0.825074939087607,-0.003978273920094344,-0.00814333872060214,0.017453292519943295,0.0,0.0,0.0,0.017453292519943295,0.0,0.0,0.0,0.15707963267948966,0.013089998625218868,0.008830692619085312,0.007246561348438263,0.0004363323129985824,0.0,0.0,0.0,0.0004363323129985824,0.0,0.0,0.0,0.0004363323129985824,0.004887776914983988,0.13963763415813446,9.755105972290039,0.0004,0.0,0.0,0.0,0.0004,0.0,0.0,0.0,0.0004
2025/05/07 10:24:03.998523148,1746606243,998077725,mti/imu_base_body,0.5649904442050023,0.8250476307966029,-0.00401070955981718,-0.008131364139753355,0.017453292519943295,0.0,0.0,0.0,0.017453292519943295,0.0,0.0,0.0,0.15707963267948966,0.010130207054316998,-0.004161345772445202,0.010499770753085613,0.0004363323129985824,0.0,0.0,0.0,0.0004363323129985824,0.0,0.0,0.0,0.0004363323129985824,0.01298010628670454,0.15059198439121246,9.782832145690918,0.0004,0.0,0.0,0.0,0.0004,0.0,0.0,0.0,0.0004
2025/05/07 10:24:04.55527975,1746606244,48127876,mti/imu_base_body,0.5650500128800997,0.8250069108652045,-0.004026170589077241,-0.008116028538582577,0.017453292519943295,0.0,0.0,0.0,0.017453292519943295,0.0,0.0,0.0,0.15707963267948966,0.010365169495344162,0.0019307851325720549,0.008015782572329044,0.0004363323129985824,0.0,0.0,0.0,0.0004363323129985824,0.0,0.0,0.0,0.0004363323129985824,0.013408475555479527,0.14487957954406738,9.782465934753418,0.0004,0.0,0.0,0.0,0.0004,0.0,0.0,0.0,0.0004
2025/05/07 10:24:04.101789686,1746606244,98072250,mti/imu_base_body,0.5650650698825502,0.8249961762323986,-0.004069884480618078,-0.008137078152755462,0.017453292519943295,0.0,0.0,0.0,0.017453292519943295,0.0,0.0,0.0,0.15707963267948966,0.020625747740268707,-0.00032617952092550695,0.00624690018594265,0.0004363323129985824,0.0,0.0,0.0,0.0004363323129985824,0.0,0.0,0.0,0.0004363323129985824,0.0043029384687542915,0.15377908945083618,9.791594505310059,0.0004,0.0,0.0,0.0,0.0004,0.0,0.0,0.0,0.0004
2025/05/07 10:24:04.192891923,1746606244,148025556,mti/imu_base_body,0.5651361410799036,0.8249475963915665,-0.004061668590411738,-0.008130688860971496,0.017453292519943295,0.0,0.0,0.0,0.017453292519943295,0.0,0.0,0.0,0.15707963267948966,0.011643785983324051,0.00720378989353776,0.012594926171004772,0.0004363323129985824,0.0,0.0,0.0,0.0004363323129985824,0.0,0.0,0.0,0.0004363323129985824,0.005358784459531307,0.13130798935890198,9.78368091583252,0.0004,0.0,0.0,0.0,0.0004,0.0,0.0,0.0,0.0004
2025/05/07 10:24:04.198821162,1746606244,198077140,mti/imu_base_body,0.5652137373158641,0.8248944293804448,-0.00406916495934879,-0.008127325702668423,0.017453292519943295,0.0,0.0,0.0,0.017453292519943295,0.0,0.0,0.0,0.15707963267948966,0.00809119176119566,0.003060427960008383,0.013665917329490185,0.0004363323129985824,0.0,0.0,0.0,0.0004363323129985824,0.0,0.0,0.0,0.0004363323129985824,-3.4622189559740946e-06,0.12328296154737473,9.780083656311035,0.0004,0.0,0.0,0.0,0.0004,0.0,0.0,0.0,0.0004
2025/05/07 10:24:04.268715652,1746606244,249078550,mti/imu_base_body,0.5652408686343777,0.8248756900906933,-0.004082101921139546,-0.008135893728538056,0.017453292519943295,0.0,0.0,0.0,0.017453292519943295,0.0,0.0,0.0,0.15707963267948966,0.01394627895206213,0.0003684353141579777,0.008592547848820686,0.0004363323129985824,0.0,0.0,0.0,0.0004363323129985824,0.0,0.0,0.0,0.0004363323129985824,-0.004825171548873186,0.12448227405548096,9.794608116149902,0.0004,0.0,0.0,0.0,0.0004,0.0,0.0,0.0,0.0004
2025/05/07 10:24:04.298545826,1746606244,298157206,mti/imu_base_body,0.5652969144424166,0.8248372866881845,-0.0041203492414443234,-0.008116140270195122,0.017453292519943295,0.0,0.0,0.0,0.017453292519943295,0.0,0.0,0.0,0.15707963267948966,0.011174019426107407,0.00013466236123349518,0.009838372468948364,0.0004363323129985824,0.0,0.0,0.0,0.0004363323129985824,0.0,0.0,0.0,0.0004363323129985824,-0.011323152109980583,0.141453355550766,9.791387557983398,0.0004,0.0,0.0,0.0,0.0004,0.0,0.0,0.0,0.0004
2025/05/07 10:24:04.348616862,1746606244,348123394,mti/imu_base_body,0.5653393497842023,0.8248087846932288,-0.004104638352491594,-0.0080647518529366,0.017453292519943295,0.0,0.0,0.0,0.017453292519943295,0.0,0.0,0.0,0.15707963267948966,0.004140050150454044,-0.0034594715107232332,0.007967128418385983,0.0004363323129985824,0.0,0.0,0.0,0.0004363323129985824,0.0,0.0,0.0,0.0004363323129985824,-0.020966017618775368,0.1300639808177948,9.800643920898438,0.0004,0.0,0.0,0.0,0.0004,0.0,0.0,0.0,0.0004
2025/05/07 10:24:04.441934361,1746606244,397985406,mti/imu_base_body,0.5653891972162758,0.8247743240427138,-0.004143324286079135,-0.008074833427377932,0.017453292519943295,0.0,0.0,0.0,0.017453292519943295,0.0,0.0,0.0,0.15707963267948966,0.016550002619624138,-0.00040076998993754387,0.007848736830055714,0.0004363323129985824,0.0,0.0,0.0,0.0004363323129985824,0.0,0.0,0.0,0.0004363323129985824,0.004978660959750414,0.10474483668804169,9.809720993041992,0.0004,0.0,0.0,0.0,0.0004,0.0,0.0,0.0,0.0004
2025/05/07 10:24:04.448408109,1746606244,448019918,mti/imu_base_body,0.5654437004431498,0.8247370901174562,-0.0041680995218029504,-0.008048649583900329,0.017453292519943295,0.0,0.0,0.0,0.017453292519943295,0.0,0.0,0.0,0.15707963267948966,0.012293832376599312,-0.004953322932124138,0.01771082915365696,0.0004363323129985824,0.0,0.0,0.0,0.0004363323129985824,0.0,0.0,0.0,0.0004363323129985824,-0.00524524599313736,0.09649273008108139,9.823780059814453,0.0004,0.0,0.0,0.0,0.0004,0.0,0.0,0.0,0.0004
2025/05/07 10:24:04.499171555,1746606244,498021541,mti/imu_base_body,0.5655080521899248,0.8246929934049884,-0.004227058204661906,-0.008015080536787645,0.017453292519943295,0.0,0.0,0.0,0.017453292519943295,0.0,0.0,0.0,0.15707963267948966,0.013675888068974018,-0.006214983761310577,0.013530383817851543,0.0004363323129985824,0.0,0.0,0.0,0.0004363323129985824,0.0,0.0,0.0,0.0004363323129985824,-0.014950872398912907,0.10250303894281387,9.844558715820312,0.0004,0.0,0.0,0.0,0.0004,0.0,0.0,0.0,0.0004
2025/05/07 10:24:04.548144826,1746606244,547784294,mti/imu_base_body,0.5655788665019068,0.8246439715729212,-0.00428064335340275,-0.008033804039060732,0.017453292519943295,0.0,0.0,0.0,0.017453292519943295,0.0,0.0,0.0,0.15707963267948966,0.02419697493314743,-0.0005451002507470548,0.011190411634743214,0.0004363323129985824,0.0,0.0,0.0,0.0004363323129985824,0.0,0.0,0.0,0.0004363323129985824,-0.035411037504673004,0.10574089735746384,9.811692237854004,0.0004,0.0,0.0,0.0,0.0004,0.0,0.0,0.0,0.0004
2025/05/07 10:24:04.598380318,1746606244,598056214,mti/imu_base_body,0.5656332436216568,0.8246068319809311,-0.004312449429300432,-0.008000571250585656,0.017453292519943295,0.0,0.0,0.0,0.017453292519943295,0.0,0.0,0.0,0.15707963267948966,0.005890560802072287,-0.0063898591324687,0.01115576270967722,0.0004363323129985824,0.0,0.0,0.0,0.0004363323129985824,0.0,0.0,0.0,0.0004363323129985824,-0.024728285148739815,0.10312677919864655,9.816605567932129,0.0004,0.0,0.0,0.0,0.0004,0.0,0.0,0.0,0.0004
2025/05/07 10:24:04.648406297,1746606244,648022174,mti/imu_base_body,0.5657108572072317,0.8245537947621208,-0.0043429619548196905,-0.007962679367173167,0.017453292519943295,0.0,0.0,0.0,0.017453292519943295,0.0,0.0,0.0,0.15707963267948966,0.010810274630784988,-0.005654782056808472,0.01711040548980236,0.0004363323129985824,0.0,0.0,0.0,0.0004363323129985824,0.0,0.0,0.0,0.0004363323129985824,-0.020791655406355858,0.11219251900911331,9.839649200439453,0.0004,0.0,0.0,0.0,0.0004,0.0,0.0,0.0,0.0004
2025/05/07 10:24:04.698450166,1746606244,698013980,mti/imu_base_body,0.5657695226629349,0.8245134412780672,-0.004395702259772635,-0.00794419153829519,0.017453292519943295,0.0,0.0,0.0,0.017453292519943295,0.0,0.0,0.0,0.15707963267948966,0.018964843824505806,-0.0035870326682925224,0.01315391343086958,0.0004363323129985824,0.0,0.0,0.0,0.0004363323129985824,0.0,0.0,0.0,0.0004363323129985824,-0.008175612427294254,0.08942712098360062,9.842866897583008,0.0004,0.0,0.0,0.0,0.0004,0.0,0.0,0.0,0.0004
2025/05/07 10:24:04.748730998,1746606244,748357645,mti/imu_base_body,0.5658478185813449,0.8244598218144439,-0.00442747090820154,-0.007914917673970052,0.017453292519943295,0.0,0.0,0.0,0.017453292519943295,0.0,0.0,0.0,0.15707963267948966,0.014332802034914494,-0.004467051476240158,0.015842292457818985,0.0004363323129985824,0.0,0.0,0.0,0.0004363323129985824,0.0,0.0,0.0,0.0004363323129985824,-0.018331017345190048,0.08562552183866501,9.816957473754883,0.0004,0.0,0.0,0.0,0.0004,0.0,0.0,0.0,0.0004
2025/05/07 10:24:04.798676537,1746606244,798267098,mti/imu_base_body,0.565942835795014,0.82439471033698,-0.004469397622960801,-0.007879889947995307,0.017453292519943295,0.0,0.0,0.0,0.017453292519943295,0.0,0.0,0.0,0.15707963267948966,0.013355080969631672,-0.009734265506267548,0.02449159510433674,0.0004363323129985824,0.0,0.0,0.0,0.0004363323129985824,0.0,0.0,0.0,0.0004363323129985824,-0.02679598703980446,0.10308553278446198,9.828004837036133,0.0004,0.0,0.0,0.0,0.0004,0.0,0.0,0.0,0.0004
2025/05/07 10:24:04.848475197,1746606244,848069970,mti/imu_base_body,0.5660390099594794,0.8243286065851325,-0.004524030089068671,-0.007856253640220887,0.017453292519943295,0.0,0.0,0.0,0.017453292519943295,0.0,0.0,0.0,0.15707963267948966,0.014527724124491215,-0.007538364734500647,0.018719986081123352,0.0004363323129985824,0.0,0.0,0.0,0.0004363323129985824,0.0,0.0,0.0,0.0004363323129985824,-0.022258073091506958,0.10539264976978302,9.859572410583496,0.0004,0.0,0.0,0.0,0.0004,0.0,0.0,0.0,0.0004
2025/05/07 10:24:04.898387638,1746606244,897978135,mti/imu_base_body,0.5661154592141087,0.824276342188889,-0.004555080705808914,-0.007813436265040411,0.017453292519943295,0.0,0.0,0.0,0.017453292519943295,0.0,0.0,0.0,0.15707963267948966,0.007839149795472622,-0.002091520931571722,0.012050519697368145,0.0004363323129985824,0.0,0.0,0.0,0.0004363323129985824,0.0,0.0,0.0,0.0004363323129985824,-0.02584420144557953,0.10583539307117462,9.868221282958984,0.0004,0.0,0.0,0.0,0.0004,0.0,0.0,0.0,0.0004
2025/05/07 10:24:04.948434577,1746606244,947945952,mti/imu_base_body,0.5661279504119937,0.8242675900052722,-0.00455026405687859,-0.007834470385961398,0.017453292519943295,0.0,0.0,0.0,0.017453292519943295,0.0,0.0,0.0,0.15707963267948966,0.011099477298557758,0.004579887725412846,0.002073223702609539,0.0004363323129985824,0.0,0.0,0.0,0.0004363323129985824,0.0,0.0,0.0,0.0004363323129985824,-0.019998090341687202,0.1078013926744461,9.84539794921875,0.0004,0.0,0.0,0.0,0.0004,0.0,0.0,0.0,0.0004
2025/05/07 10:24:04.998342934,1746606244,997965884,mti/imu_base_body,0.5661845864370618,0.8242284095514383,-0.004588142843722025,-0.007841678050347817,0.017453292519943295,0.0,0.0,0.0,0.017453292519943295,0.0,0.0,0.0,0.15707963267948966,0.019451148808002472,0.0012889205245301127,0.01643092930316925,0.0004363323129985824,0.0,0.0,0.0,0.0004363323129985824,0.0,0.0,0.0,0.0004363323129985824,-0.03115064837038517,0.09351128339767456,9.839654922485352,0.0004,0.0,0.0,0.0,0.0004,0.0,0.0,0.0,0.0004
2025/05/07 10:24:05.48347667,1746606245,47977386,mti/imu_base_body,0.5662788784789762,0.8241638014624749,-0.004601502540875375,-0.007815773914428717,0.017453292519943295,0.0,0.0,0.0,0.017453292519943295,0.0,0.0,0.0,0.15707963267948966,0.01229805313050747,-0.005575806833803654,0.020956648513674736,0.0004363323129985824,0.0,0.0,0.0,0.0004363323129985824,0.0,0.0,0.0,0.0004363323129985824,-0.01667730137705803,0.10287579149007797,9.847565650939941,0.0004,0.0,0.0,0.0,0.0004,0.0,0.0,0.0,0.0004
2025/05/07 10:24:05.98328494,1746606245,97914744,mti/imu_base_body,0.5663627645067629,0.8241058211038864,-0.004639295559142867,-0.007828891343034192,0.017453292519943295,0.0,0.0,0.0,0.017453292519943295,0.0,0.0,0.0,0.15707963267948966,0.01659022830426693,0.007345789112150669,0.01327363308519125,0.0004363323129985824,0.0,0.0,0.0,0.0004363323129985824,0.0,0.0,0.0,0.0004363323129985824,-0.034245628863573074,0.09217973053455353,9.865583419799805,0.0004,0.0,0.0,0.0,0.0004,0.0,0.0,0.0,0.0004
2025/05/07 10:24:05.148420407,1746606245,147925607,mti/imu_base_body,0.566440921765256,0.8240517640314857,-0.004705308563693306,-0.007825114545115123,0.017453292519943295,0.0,0.0,0.0,0.017453292519943295,0.0,0.0,0.0,0.15707963267948966,0.01775517128407955,-0.006006390787661076,0.018162865191698074,0.0004363323129985824,0.0,0.0,0.0,0.0004363323129985824,0.0,0.0,0.0,0.0004363323129985824,-0.02563747763633728,0.07165967673063278,9.865581512451172,0.0004,0.0,0.0,0.0,0.0004,0.0,0.0,0.0,0.0004
2025/05/07 10:24:05.198747796,1746606245,198176641,mti/imu_base_body,0.5665093369488926,0.8240046057053124,-0.004743855132288368,-0.00781516248343425,0.017453292519943295,0.0,0.0,0.0,0.017453292519943295,0.0,0.0,0.0,0.15707963267948966,0.011645715683698654,-0.002172081032767892,0.015028152614831924,0.0004363323129985824,0.0,0.0,0.0,0.0004363323129985824,0.0,0.0,0.0,0.0004363323129985824,-0.034460872411727905,0.0971338227391243,9.84830379486084,0.0004,0.0,0.0,0.0,0.0004,0.0,0.0,0.0,0.0004
2025/05/07 10:24:05.260051899,1746606245,255242859,mti/imu_base_body,0.5666174587645287,0.8239303900266561,-0.004756513986155087,-0.007793804491342879,0.017453292519943295,0.0,0.0,0.0,0.017453292519943295,0.0,0.0,0.0,0.15707963267948966,0.013823552057147026,0.00015539498417638242,0.028364842757582664,0.0004363323129985824,0.0,0.0,0.0,0.0004363323129985824,0.0,0.0,0.0,0.0004363323129985824,-0.023104697465896606,0.08918767422437668,9.859214782714844,0.0004,0.0,0.0,0.0,0.0004,0.0,0.0,0.0,0.0004
2025/05/07 10:24:05.304584363,1746606245,303437336,mti/imu_base_body,0.5667159285622754,0.8238626357802554,-0.004785770525846946,-0.0077788224997131,0.017453292519943295,0.0,0.0,0.0,0.017453292519943295,0.0,0.0,0.0,0.15707963267948966,0.014411997981369495,-0.002900161314755678,0.01889384724199772,0.0004363323129985824,0.0,0.0,0.0,0.0004363323129985824,0.0,0.0,0.0,0.0004363323129985824,-0.015455629676580429,0.08754661679267883,9.874332427978516,0.0004,0.0,0.0,0.0,0.0004,0.0,0.0,0.0,0.0004
2025/05/07 10:24:05.352874560,1746606245,350679488,mti/imu_base_body,0.566801189780511,0.8238034274975474,-0.004831217732535763,-0.00780918958094635,0.017453292519943295,0.0,0.0,0.0,0.017453292519943295,0.0,0.0,0.0,0.15707963267948966,0.018877176567912102,0.004645244218409061,0.017885133624076843,0.0004363323129985824,0.0,0.0,0.0,0.0004363323129985824,0.0,0.0,0.0,0.0004363323129985824,-0.02883942238986492,0.11036308854818344,9.861495018005371,0.0004,0.0,0.0,0.0,0.0004,0.0,0.0,0.0,0.0004
2025/05/07 10:24:05.398480146,1746606245,397992340,mti/imu_base_body,0.5668841094987052,0.8237459755246934,-0.004890204973082381,-0.007814096240272884,0.017453292519943295,0.0,0.0,0.0,0.017453292519943295,0.0,0.0,0.0,0.15707963267948966,0.024774659425020218,-0.006090083625167608,0.025028511881828308,0.0004363323129985824,0.0,0.0,0.0,0.0004363323129985824,0.0,0.0,0.0,0.0004363323129985824,-0.02794494293630123,0.10067036747932434,9.832806587219238,0.0004,0.0,0.0,0.0,0.0004,0.0,0.0,0.0,0.0004
2025/05/07 10:24:05.448318149,1746606245,447885898,mti/imu_base_body,0.5670102898031553,0.8236587859241717,-0.004918969134650661,-0.007831945474369674,0.017453292519943295,0.0,0.0,0.0,0.017453292519943295,0.0,0.0,0.0,0.15707963267948966,0.00884244218468666,0.008715866133570671,0.02486843802034855,0.0004363323129985824,0.0,0.0,0.0,0.0004363323129985824,0.0,0.0,0.0,0.0004363323129985824,-0.03392122685909271,0.10233815014362335,9.857185363769531,0.0004,0.0,0.0,0.0,0.0004,0.0,0.0,0.0,0.0004
2025/05/07 10:24:05.498101853,1746606245,497763057,mti/imu_base_body,0.5671123524680911,0.8235886987277542,-0.004896296556615514,-0.007826958928067937,0.017453292519943295,0.0,0.0,0.0,0.017453292519943295,0.0,0.0,0.0,0.15707963267948966,0.0105657447129488,0.002447845647111535,0.017722543329000473,0.0004363323129985824,0.0,0.0,0.0,0.0004363323129985824,0.0,0.0,0.0,0.0004363323129985824,-0.030697070062160492,0.10082951933145523,9.863664627075195,0.0004,0.0,0.0,0.0,0.0004,0.0,0.0,0.0,0.0004
2025/05/07 10:24:05.548459384,1746606245,547965314,mti/imu_base_body,0.5672017690360281,0.8235269106741258,-0.0049577466738208766,-0.007810335834573481,0.017453292519943295,0.0,0.0,0.0,0.017453292519943295,0.0,0.0,0.0,0.15707963267948966,0.018449893221259117,-0.0022019552998244762,0.02191215753555298,0.0004363323129985824,0.0,0.0,0.0,0.0004363323129985824,0.0,0.0,0.0,0.0004363323129985824,-0.025797495618462563,0.10896739363670349,9.865215301513672,0.0004,0.0,0.0,0.0,0.0004,0.0,0.0,0.0,0.0004
2025/05/07 10:24:05.598237893,1746606245,597773025,mti/imu_base_body,0.5672895908297727,0.8234662323688765,-0.004956895561645685,-0.00783029187115105,0.017453292519943295,0.0,0.0,0.0,0.017453292519943295,0.0,0.0,0.0,0.15707963267948966,0.013120247982442379,0.0032620704732835293,0.01524547953158617,0.0004363323129985824,0.0,0.0,0.0,0.0004363323129985824,0.0,0.0,0.0,0.0004363323129985824,-0.025023283436894417,0.11029409617185593,9.870259284973145,0.0004,0.0,0.0,0.0,0.0004,0.0,0.0,0.0,0.0004
2025/05/07 10:24:05.648083315,1746606245,647782479,mti/imu_base_body,0.5673580653528578,0.823418807300794,-0.005001296772551614,-0.007828185804701944,0.017453292519943295,0.0,0.0,0.0,0.017453292519943295,0.0,0.0,0.0,0.15707963267948966,0.008026713505387306,-0.001274349633604288,0.016041623428463936,0.0004363323129985824,0.0,0.0,0.0,0.0004363323129985824,0.0,0.0,0.0,0.0004363323129985824,-0.036220308393239975,0.1007051095366478,9.860184669494629,0.0004,0.0,0.0,0.0,0.0004,0.0,0.0,0.0,0.0004
2025/05/07 10:24:05.698297544,1746606245,697943838,mti/imu_base_body,0.5674807673233889,0.8233343348368439,-0.005020089324064147,-0.007807080120498404,0.017453292519943295,0.0,0.0,0.0,0.017453292519943295,0.0,0.0,0.0,0.15707963267948966,0.013823719695210457,-0.0001127862706198357,0.03025146573781967,0.0004363323129985824,0.0,0.0,0.0,0.0004363323129985824,0.0,0.0,0.0,0.0004363323129985824,-0.030566126108169556,0.11148635298013687,9.864748001098633,0.0004,0.0,0.0,0.0,0.0004,0.0,0.0,0.0,0.0004
2025/05/07 10:24:05.748333072,1746606245,747934360,mti/imu_base_body,0.5675477476637192,0.8232879885226927,-0.005036316211801785,-0.007815215615243972,0.017453292519943295,0.0,0.0,0.0,0.017453292519943295,0.0,0.0,0.0,0.15707963267948966,0.016140451654791832,0.007244839332997799,0.013888342306017876,0.0004363323129985824,0.0,0.0,0.0,0.0004363323129985824,0.0,0.0,0.0,0.0004363323129985824,-0.02633083425462246,0.1102159172296524,9.855975151062012,0.0004,0.0,0.0,0.0,0.0004,0.0,0.0,0.0,0.0004
2025/05/07 10:24:05.798219796,1746606245,797814432,mti/imu_base_body,0.5676570376803736,0.8232121216927595,-0.005030867552703545,-0.007872778525745996,0.017453292519943295,0.0,0.0,0.0,0.017453292519943295,0.0,0.0,0.0,0.15707963267948966,0.013680719770491123,0.011760745197534561,0.024324646219611168,0.0004363323129985824,0.0,0.0,0.0,0.0004363323129985824,0.0,0.0,0.0,0.0004363323129985824,-0.023426130414009094,0.09330657869577408,9.853092193603516,0.0004,0.0,0.0,0.0,0.0004,0.0,0.0,0.0,0.0004
2025/05/07 10:24:05.848362721,1746606245,847921899,mti/imu_base_body,0.5677547851457718,0.8231447121704183,-0.005020943032348176,-0.00787888958061463,0.017453292519943295,0.0,0.0,0.0,0.017453292519943295,0.0,0.0,0.0,0.15707963267948966,0.010408860631287098,0.007121942471712828,0.01941761001944542,0.0004363323129985824,0.0,0.0,0.0,0.0004363323129985824,0.0,0.0,0.0,0.0004363323129985824,-0.026882952079176903,0.10473285615444183,9.866663932800293,0.0004,0.0,0.0,0.0,0.0004,0.0,0.0,0.0,0.0004
2025/05/07 10:24:05.898407401,1746606245,897989387,mti/imu_base_body,0.5678677919728546,0.8230669706471211,-0.0050343332608158535,-0.007847812323505994,0.017453292519943295,0.0,0.0,0.0,0.017453292519943295,0.0,0.0,0.0,0.15707963267948966,0.0032553612254559994,-0.0060816179029643536,0.02701519802212715,0.0004363323129985824,0.0,0.0,0.0,0.0004363323129985824,0.0,0.0,0.0,0.0004363323129985824,-0.047181468456983566,0.10603568702936172,9.861649513244629,0.0004,0.0,0.0,0.0,0.0004,0.0,0.0,0.0,0.0004
2025/05/07 10:24:05.948185029,1746606245,947810727,mti/imu_base_body,0.5679952963305402,0.82297914771608,-0.005013155403913216,-0.007844363823289147,0.017453292519943295,0.0,0.0,0.0,0.017453292519943295,0.0,0.0,0.0,0.15707963267948966,0.01078677549958229,0.012784252874553204,0.028301792219281197,0.0004363323129985824,0.0,0.0,0.0,0.0004363323129985824,0.0,0.0,0.0,0.0004363323129985824,-0.03315257653594017,0.09864109009504318,9.878912925720215,0.0004,0.0,0.0,0.0,0.0004,0.0,0.0,0.0,0.0004
2025/05/07 10:24:05.998164097,1746606245,997797872,mti/imu_base_body,0.5681015392307668,0.822905592408928,-0.005030139802110163,-0.00785651317798345,0.017453292519943295,0.0,0.0,0.0,0.017453292519943295,0.0,0.0,0.0,0.15707963267948966,0.014928790740668774,-0.003982643596827984,0.02445794828236103,0.0004363323129985824,0.0,0.0,0.0,0.0004363323129985824,0.0,0.0,0.0,0.0004363323129985824,-0.037526216357946396,0.08394511789083481,9.88011646270752,0.0004,0.0,0.0,0.0,0.0004,0.0,0.0,0.0,0.0004
2025/05/07 10:24:06.58333334,1746606246,48190256,mti/imu_base_body,0.5682196540057913,0.8228238358759692,-0.0050467977143188875,-0.007867003795948131,0.017453292519943295,0.0,0.0,0.0,0.017453292519943295,0.0,0.0,0.0,0.15707963267948966,0.012154181487858295,0.006359553430229425,0.02485617622733116,0.0004363323129985824,0.0,0.0,0.0,0.0004363323129985824,0.0,0.0,0.0,0.0004363323129985824,-0.018809646368026733,0.0970236137509346,9.885018348693848,0.0004,0.0,0.0,0.0,0.0004,0.0,0.0,0.0,0.0004
2025/05/07 10:24:06.98548348,1746606246,98054701,mti/imu_base_body,0.5683163692647176,0.8227565055693532,-0.005064683629276556,-0.007911128162994836,0.017453292519943295,0.0,0.0,0.0,0.017453292519943295,0.0,0.0,0.0,0.15707963267948966,0.01558984350413084,0.006754577159881592,0.020355327054858208,0.0004363323129985824,0.0,0.0,0.0,0.0004363323129985824,0.0,0.0,0.0,0.0004363323129985824,-0.032877542078495026,0.10056665539741516,9.870986938476562,0.0004,0.0,0.0,0.0,0.0004,0.0,0.0,0.0,0.0004
2025/05/07 10:24:06.154745903,1746606246,148012021,mti/imu_base_body,0.5684167227971758,0.8226873243689067,-0.005067638822368601,-0.007893959970362475,0.017453292519943295,0.0,0.0,0.0,0.017453292519943295,0.0,0.0,0.0,0.15707963267948966,0.010358359664678574,0.0004626058798749,0.023957042023539543,0.0004363323129985824,0.0,0.0,0.0,0.0004363323129985824,0.0,0.0,0.0,0.0004363323129985824,-0.040365565568208694,0.09176580607891083,9.86295223236084,0.0004,0.0,0.0,0.0,0.0004,0.0,0.0,0.0,0.0004
2025/05/07 10:24:06.198351467,1746606246,197921410,mti/imu_base_body,0.5685288171836285,0.822610008448732,-0.005085923227874067,-0.007867109804848017,0.017453292519943295,0.0,0.0,0.0,0.017453292519943295,0.0,0.0,0.0,0.15707963267948966,0.00866611860692501,-0.0024507849011570215,0.025458641350269318,0.0004363323129985824,0.0,0.0,0.0,0.0004363323129985824,0.0,0.0,0.0,0.0004363323129985824,-0.033903129398822784,0.11675107479095459,9.852622985839844,0.0004,0.0,0.0,0.0,0.0004,0.0,0.0,0.0,0.0004
2025/05/07 10:24:06.249007877,1746606246,248648024,mti/imu_base_body,0.5686309637531191,0.8225396741509907,-0.005071580231145446,-0.00784796679019105,0.017453292519943295,0.0,0.0,0.0,0.017453292519943295,0.0,0.0,0.0,0.15707963267948966,0.009202837944030762,0.0044794874265789986,0.017884401604533195,0.0004363323129985824,0.0,0.0,0.0,0.0004363323129985824,0.0,0.0,0.0,0.0004363323129985824,-0.03561596944928169,0.09476229548454285,9.858991622924805,0.0004,0.0,0.0,0.0,0.0004,0.0,0.0,0.0,0.0004
2025/05/07 10:24:06.298395648,1746606246,297959762,mti/imu_base_body,0.5687639413585518,0.8224475414393985,-0.005084163666159446,-0.007859508279171307,0.017453292519943295,0.0,0.0,0.0,0.017453292519943295,0.0,0.0,0.0,0.15707963267948966,0.011644920334219933,0.00658732233569026,0.03388374298810959,0.0004363323129985824,0.0,0.0,0.0,0.0004363323129985824,0.0,0.0,0.0,0.0004363323129985824,-0.03980618715286255,0.10307205468416214,9.88528060913086,0.0004,0.0,0.0,0.0,0.0004,0.0,0.0,0.0,0.0004
2025/05/07 10:24:06.348272911,1746606246,347918372,mti/imu_base_body,0.5688681896777118,0.8223753863751052,-0.005041502049891136,-0.007892395978420294,0.017453292519943295,0.0,0.0,0.0,0.017453292519943295,0.0,0.0,0.0,0.15707963267948966,0.008245887234807014,0.008973727934062481,0.02002541907131672,0.0004363323129985824,0.0,0.0,0.0,0.0004363323129985824,0.0,0.0,0.0,0.0004363323129985824,-0.04007991403341293,0.12198488414287567,9.84638500213623,0.0004,0.0,0.0,0.0,0.0004,0.0,0.0,0.0,0.0004
2025/05/07 10:24:06.398222112,1746606246,397819633,mti/imu_base_body,0.5689544358027139,0.8223157835094093,-0.005036739160733333,-0.007888816790157004,0.017453292519943295,0.0,0.0,0.0,0.017453292519943295,0.0,0.0,0.0,0.15707963267948966,0.00439964234828949,0.008883425034582615,0.023213345557451248,0.0004363323129985824,0.0,0.0,0.0,0.0004363323129985824,0.0,0.0,0.0,0.0004363323129985824,-0.04463014006614685,0.11278732120990753,9.870643615722656,0.0004,0.0,0.0,0.0,0.0004,0.0,0.0,0.0,0.0004
2025/05/07 10:24:06.448252502,1746606246,447824922,mti/imu_base_body,0.5690800337462041,0.8222284948508205,-0.004998836960823844,-0.007951671259079638,0.017453292519943295,0.0,0.0,0.0,0.017453292519943295,0.0,0.0,0.0,0.15707963267948966,0.011606230400502682,0.018429404124617577,0.025121431797742844,0.0004363323129985824,0.0,0.0,0.0,0.0004363323129985824,0.0,0.0,0.0,0.0004363323129985824,-0.03680979087948799,0.10938752442598343,9.882759094238281,0.0004,0.0,0.0,0.0,0.0004,0.0,0.0,0.0,0.0004
2025/05/07 10:24:06.498362892,1746606246,497901815,mti/imu_base_body,0.5691738710087946,0.822163038458898,-0.00499717497331372,-0.00800443596905125,0.017453292519943295,0.0,0.0,0.0,0.017453292519943295,0.0,0.0,0.0,0.15707963267948966,0.015120195224881172,0.009213441051542759,0.024007167667150497,0.0004363323129985824,0.0,0.0,0.0,0.0004363323129985824,0.0,0.0,0.0,0.0004363323129985824,-0.04592832922935486,0.11440607160329819,9.890201568603516,0.0004,0.0,0.0,0.0,0.0004,0.0,0.0,0.0,0.0004
2025/05/07 10:24:06.548130561,1746606246,547754534,mti/imu_base_body,0.5692690274833332,0.8220970746026444,-0.004976710100091946,-0.008025374417048666,0.017453292519943295,0.0,0.0,0.0,0.017453292519943295,0.0,0.0,0.0,0.15707963267948966,0.009363293647766113,0.011806557886302471,0.01457804162055254,0.0004363323129985824,0.0,0.0,0.0,0.0004363323129985824,0.0,0.0,0.0,0.0004363323129985824,-0.04596264287829399,0.11482292413711548,9.865599632263184,0.0004,0.0,0.0,0.0,0.0004,0.0,0.0,0.0,0.0004
2025/05/07 10:24:06.598671128,1746606246,598026052,mti/imu_base_body,0.5693614351526461,0.8220334099019933,-0.004920904593544979,-0.008025824805074636,0.017453292519943295,0.0,0.0,0.0,0.017453292519943295,0.0,0.0,0.0,0.15707963267948966,0.000722721975762397,0.009931854903697968,0.022524656727910042,0.0004363323129985824,0.0,0.0,0.0,0.0004363323129985824,0.0,0.0,0.0,0.0004363323129985824,-0.03476652503013611,0.1151055246591568,9.864513397216797,0.0004,0.0,0.0,0.0,0.0004,0.0,0.0,0.0,0.0004
2025/05/07 10:24:06.648099029,1746606246,647756389,mti/imu_base_body,0.5694912720896712,0.8219437594506716,-0.004858925928302012,-0.008033564128570437,0.017453292519943295,0.0,0.0,0.0,0.017453292519943295,0.0,0.0,0.0,0.15707963267948966,0.001064201700501144,0.012579654343426228,0.029281463474035263,0.0004363323129985824,0.0,0.0,0.0,0.0004363323129985824,0.0,0.0,0.0,0.0004363323129985824,-0.02666875720024109,0.10944544523954391,9.892110824584961,0.0004,0.0,0.0,0.0,0.0004,0.0,0.0,0.0,0.0004
2025/05/07 10:24:06.699042597,1746606246,698057485,mti/imu_base_body,0.5696142192002298,0.821858433948762,-0.004861529779245357,-0.008044958695129157,0.017453292519943295,0.0,0.0,0.0,0.017453292519943295,0.0,0.0,0.0,0.15707963267948966,0.010816425085067749,0.006844408344477415,0.029159437865018845,0.0004363323129985824,0.0,0.0,0.0,0.0004363323129985824,0.0,0.0,0.0,0.0004363323129985824,-0.04397028312087059,0.11874279379844666,9.88192367553711,0.0004,0.0,0.0,0.0,0.0004,0.0,0.0,0.0,0.0004
2025/05/07 10:24:06.748164986,1746606246,747789918,mti/imu_base_body,0.569762081284604,0.8217554495309873,-0.004881974670619899,-0.008081968799522705,0.017453292519943295,0.0,0.0,0.0,0.017453292519943295,0.0,0.0,0.0,0.15707963267948966,0.015962181612849236,0.004323076456785202,0.028374992311000824,0.0004363323129985824,0.0,0.0,0.0,0.0004363323129985824,0.0,0.0,0.0,0.0004363323129985824,-0.049070023000240326,0.11063983291387558,9.854555130004883,0.0004,0.0,0.0,0.0,0.0004,0.0,0.0,0.0,0.0004
2025/05/07 10:24:06.799327953,1746606246,798842245,mti/imu_base_body,0.569886208059445,0.8216697075995661,-0.004814372897202044,-0.008088466509615309,0.017453292519943295,0.0,0.0,0.0,0.017453292519943295,0.0,0.0,0.0,0.15707963267948966,0.006144464481621981,0.017209280282258987,0.031510766595602036,0.0004363323129985824,0.0,0.0,0.0,0.0004363323129985824,0.0,0.0,0.0,0.0004363323129985824,-0.046511150896549225,0.11963906139135361,9.875444412231445,0.0004,0.0,0.0,0.0,0.0004,0.0,0.0,0.0,0.0004
2025/05/07 10:24:06.849000273,1746606246,847916123,mti/imu_base_body,0.5700302934848497,0.8215694261675509,-0.0047961530164600105,-0.008132614127069707,0.017453292519943295,0.0,0.0,0.0,0.017453292519943295,0.0,0.0,0.0,0.15707963267948966,0.008149882778525352,0.010670259594917297,0.02733396179974079,0.0004363323129985824,0.0,0.0,0.0,0.0004363323129985824,0.0,0.0,0.0,0.0004363323129985824,-0.038218412548303604,0.11288782954216003,9.892843246459961,0.0004,0.0,0.0,0.0,0.0004,0.0,0.0,0.0,0.0004
2025/05/07 10:24:06.902538890,1746606246,901400395,mti/imu_base_body,0.5701168559618239,0.8215091943087178,-0.004793629210052974,-0.008150787289750907,0.017453292519943295,0.0,0.0,0.0,0.017453292519943295,0.0,0.0,0.0,0.15707963267948966,0.009438233450055122,0.007869823835790157,0.02148331329226494,0.0004363323129985824,0.0,0.0,0.0,0.0004363323129985824,0.0,0.0,0.0,0.0004363323129985824,-0.04349591210484505,0.11538205295801163,9.867398262023926,0.0004,0.0,0.0,0.0,0.0004,0.0,0.0,0.0,0.0004
2025/05/07 10:24:06.949033055,1746606246,947953997,mti/imu_base_body,0.5701977172442629,0.8214533828205826,-0.004751863646021717,-0.008143886906303036,0.017453292519943295,0.0,0.0,0.0,0.017453292519943295,0.0,0.0,0.0,0.15707963267948966,0.003560667159035802,0.005812820978462696,0.01986662670969963,0.0004363323129985824,0.0,0.0,0.0,0.0004363323129985824,0.0,0.0,0.0,0.0004363323129985824,-0.06109818443655968,0.13373953104019165,9.84990119934082,0.0004,0.0,0.0,0.0,0.0004,0.0,0.0,0.0,0.0004
2025/05/07 10:24:06.998326430,1746606246,997953555,mti/imu_base_body,0.5703239365962827,0.8213660224276131,-0.004694870478889648,-0.008150014597991643,0.017453292519943295,0.0,0.0,0.0,0.017453292519943295,0.0,0.0,0.0,0.15707963267948966,-0.0024537225253880024,0.01216233428567648,0.02646058052778244,0.0004363323129985824,0.0,0.0,0.0,0.0004363323129985824,0.0,0.0,0.0,0.0004363323129985824,-0.06472590565681458,0.1207115575671196,9.865023612976074,0.0004,0.0,0.0,0.0,0.0004,0.0,0.0,0.0,0.0004
2025/05/07 10:24:07.48180204,1746606247,47822795,mti/imu_base_body,0.570437526767,0.8212880769755976,-0.004628268636923302,-0.00809331842306864,0.017453292519943295,0.0,0.0,0.0,0.017453292519943295,0.0,0.0,0.0,0.15707963267948966,-0.004506288096308708,0.0010795188136398792,0.01990673504769802,0.0004363323129985824,0.0,0.0,0.0,0.0004363323129985824,0.0,0.0,0.0,0.0004363323129985824,-0.06059699133038521,0.1360633820295334,9.887469291687012,0.0004,0.0,0.0,0.0,0.0004,0.0,0.0,0.0,0.0004
2025/05/07 10:24:07.98432272,1746606247,97986433,mti/imu_base_body,0.5705557394584689,0.8212063673055513,-0.004575009899106669,-0.008082063612871199,0.017453292519943295,0.0,0.0,0.0,0.017453292519943295,0.0,0.0,0.0,0.15707963267948966,-0.0011957262177020311,0.011238058097660542,0.03414751589298248,0.0004363323129985824,0.0,0.0,0.0,0.0004363323129985824,0.0,0.0,0.0,0.0004363323129985824,-0.06766662746667862,0.14238019287586212,9.86923599243164,0.0004,0.0,0.0,0.0,0.0004,0.0,0.0,0.0,0.0004
2025/05/07 10:24:07.149041568,1746606247,148613547,mti/imu_base_body,0.5707188152784686,0.8210933933689069,-0.004483670165278873,-0.008097527704399707,0.017453292519943295,0.0,0.0,0.0,0.017453292519943295,0.0,0.0,0.0,0.15707963267948966,-0.0036579095758497715,0.016833996400237083,0.0342111699283123,0.0004363323129985824,0.0,0.0,0.0,0.0004363323129985824,0.0,0.0,0.0,0.0004363323129985824,-0.0516241192817688,0.11448980867862701,9.823719024658203,0.0004,0.0,0.0,0.0,0.0004,0.0,0.0,0.0,0.0004
2025/05/07 10:24:07.206510345,1746606247,198294369,mti/imu_base_body,0.5708658183459454,0.8209914087818726,-0.004408115394853681,-0.00811742996495233,0.017453292519943295,0.0,0.0,0.0,0.017453292519943295,0.0,0.0,0.0,0.15707963267948966,-8.203103061532602e-05,0.010606680065393448,0.03316119685769081,0.0004363323129985824,0.0,0.0,0.0,0.0004363323129985824,0.0,0.0,0.0,0.0004363323129985824,-0.04174771159887314,0.11601896584033966,9.844472885131836,0.0004,0.0,0.0,0.0,0.0004,0.0,0.0,0.0,0.0004
2025/05/07 10:24:07.249010713,1746606247,247940814,mti/imu_base_body,0.5709948220886014,0.8209024058625785,-0.004295359193184872,-0.008105744039789753,0.017453292519943295,0.0,0.0,0.0,0.017453292519943295,0.0,0.0,0.0,0.15707963267948966,-0.00967975053936243,0.021643562242388725,0.03117399290204048,0.0004363323129985824,0.0,0.0,0.0,0.0004363323129985824,0.0,0.0,0.0,0.0004363323129985824,-0.052414823323488235,0.12736980617046356,9.84568977355957,0.0004,0.0,0.0,0.0,0.0004,0.0,0.0,0.0,0.0004
2025/05/07 10:24:07.300775557,1746606247,297957087,mti/imu_base_body,0.5710955064975858,0.820832533191439,-0.004223997983657031,-0.008126054013174544,0.017453292519943295,0.0,0.0,0.0,0.017453292519943295,0.0,0.0,0.0,0.15707963267948966,0.0014083703281357884,0.007347756996750832,0.018126552924513817,0.0004363323129985824,0.0,0.0,0.0,0.0004363323129985824,0.0,0.0,0.0,0.0004363323129985824,-0.06892631947994232,0.1252734363079071,9.855428695678711,0.0004,0.0,0.0,0.0,0.0004,0.0,0.0,0.0,0.0004
2025/05/07 10:24:07.348813981,1746606247,347905734,mti/imu_base_body,0.5711870093429489,0.8207694412859231,-0.004159441675707549,-0.008100842795526048,0.017453292519943295,0.0,0.0,0.0,0.017453292519943295,0.0,0.0,0.0,0.15707963267948966,-0.0010931830620393157,0.00953148864209652,0.016582317650318146,0.0004363323129985824,0.0,0.0,0.0,0.0004363323129985824,0.0,0.0,0.0,0.0004363323129985824,-0.07182837277650833,0.11451660096645355,9.851951599121094,0.0004,0.0,0.0,0.0,0.0004,0.0,0.0,0.0,0.0004
2025/05/07 10:24:07.398423920,1746606247,397953966,mti/imu_base_body,0.5713005385501707,0.8206905209781862,-0.0041077693979032145,-0.008117244570162588,0.017453292519943295,0.0,0.0,0.0,0.017453292519943295,0.0,0.0,0.0,0.15707963267948966,0.0005289760883897543,0.014164102263748646,0.02385089173913002,0.0004363323129985824,0.0,0.0,0.0,0.0004363323129985824,0.0,0.0,0.0,0.0004363323129985824,-0.05917445570230484,0.11224262416362762,9.841131210327148,0.0004,0.0,0.0,0.0,0.0004,0.0,0.0,0.0,0.0004
2025/05/07 10:24:07.451587175,1746606247,450750077,mti/imu_base_body,0.5713962870237055,0.8206245103095846,-0.003993457558628259,-0.008108548045420319,0.017453292519943295,0.0,0.0,0.0,0.017453292519943295,0.0,0.0,0.0,0.15707963267948966,-0.012069639749825,0.013234208337962627,0.021401535719633102,0.0004363323129985824,0.0,0.0,0.0,0.0004363323129985824,0.0,0.0,0.0,0.0004363323129985824,-0.06150241196155548,0.11894849687814713,9.847261428833008,0.0004,0.0,0.0,0.0,0.0004,0.0,0.0,0.0,0.0004
2025/05/07 10:24:07.499934638,1746606247,499443344,mti/imu_base_body,0.5714889342942591,0.8205607423341605,-0.0039119261247469225,-0.008072357351977796,0.017453292519943295,0.0,0.0,0.0,0.017453292519943295,0.0,0.0,0.0,0.15707963267948966,-0.007536792196333408,0.012605560012161732,0.022305283695459366,0.0004363323129985824,0.0,0.0,0.0,0.0004363323129985824,0.0,0.0,0.0,0.0004363323129985824,-0.0709579661488533,0.12323953211307526,9.840312004089355,0.0004,0.0,0.0,0.0,0.0004,0.0,0.0,0.0,0.0004
2025/05/07 10:24:07.549231738,1746606247,547976935,mti/imu_base_body,0.5715955686634226,0.820487011179245,-0.0038139460884224377,-0.00806375754362486,0.017453292519943295,0.0,0.0,0.0,0.017453292519943295,0.0,0.0,0.0,0.15707963267948966,-0.008025098592042923,0.011061144061386585,0.02119997702538967,0.0004363323129985824,0.0,0.0,0.0,0.0004363323129985824,0.0,0.0,0.0,0.0004363323129985824,-0.06511183083057404,0.12525203824043274,9.818218231201172,0.0004,0.0,0.0,0.0,0.0004,0.0,0.0,0.0,0.0004
2025/05/07 10:24:07.598708500,1746606247,598022347,mti/imu_base_body,0.5716890843257367,0.820422152679271,-0.0036981367664564945,-0.008087400099416558,0.017453292519943295,0.0,0.0,0.0,0.017453292519943295,0.0,0.0,0.0,0.15707963267948966,-0.00524359755218029,0.01822918839752674,0.022289931774139404,0.0004363323129985824,0.0,0.0,0.0,0.0004363323129985824,0.0,0.0,0.0,0.0004363323129985824,-0.058171745389699936,0.12472433596849442,9.835604667663574,0.0004,0.0,0.0,0.0,0.0004,0.0,0.0,0.0,0.0004
2025/05/07 10:24:07.648259632,1746606247,647928990,mti/imu_base_body,0.5718004898185615,0.820345294824593,-0.003604879630394036,-0.00804996554372686,0.017453292519943295,0.0,0.0,0.0,0.017453292519943295,0.0,0.0,0.0,0.15707963267948966,-0.011797947809100151,0.015420598909258842,0.0292386244982481,0.0004363323129985824,0.0,0.0,0.0,0.0004363323129985824,0.0,0.0,0.0,0.0004363323129985824,-0.048629280179739,0.11804775893688202,9.846169471740723,0.0004,0.0,0.0,0.0,0.0004,0.0,0.0,0.0,0.0004
2025/05/07 10:24:07.707846267,1746606247,706680279,mti/imu_base_body,0.5719025695584772,0.8202744448990638,-0.0034782110674470546,-0.008073910187397176,0.017453292519943295,0.0,0.0,0.0,0.017453292519943295,0.0,0.0,0.0,0.15707963267948966,-0.009109129197895527,0.019116681069135666,0.016445273533463478,0.0004363323129985824,0.0,0.0,0.0,0.0004363323129985824,0.0,0.0,0.0,0.0004363323129985824,-0.05900949612259865,0.10777918249368668,9.835009574890137,0.0004,0.0,0.0,0.0,0.0004,0.0,0.0,0.0,0.0004
2025/05/07 10:24:07.748576700,1746606247,748228018,mti/imu_base_body,0.5719919855650883,0.8202127736623717,-0.003359593161062674,-0.008055278032385423,0.017453292519943295,0.0,0.0,0.0,0.017453292519943295,0.0,0.0,0.0,0.15707963267948966,-0.01223978865891695,0.015254262834787369,0.021362725645303726,0.0004363323129985824,0.0,0.0,0.0,0.0004363323129985824,0.0,0.0,0.0,0.0004363323129985824,-0.06261652708053589,0.11008132994174957,9.824332237243652,0.0004,0.0,0.0,0.0,0.0004,0.0,0.0,0.0,0.0004
2025/05/07 10:24:07.798648203,1746606247,798157297,mti/imu_base_body,0.5721147853286849,0.8201276752415879,-0.0032156122573523873,-0.008057825323966369,0.017453292519943295,0.0,0.0,0.0,0.017453292519943295,0.0,0.0,0.0,0.15707963267948966,-0.008478074334561825,0.02150142192840576,0.026596447452902794,0.0004363323129985824,0.0,0.0,0.0,0.0004363323129985824,0.0,0.0,0.0,0.0004363323129985824,-0.06671956181526184,0.12091415375471115,9.841864585876465,0.0004,0.0,0.0,0.0,0.0004,0.0,0.0,0.0,0.0004
2025/05/07 10:24:07.848508908,1746606247,847993184,mti/imu_base_body,0.5722423562969231,0.8200385888615364,-0.003120170703091227,-0.008103269248195953,0.017453292519943295,0.0,0.0,0.0,0.017453292519943295,0.0,0.0,0.0,0.15707963267948966,-0.004009546246379614,0.017319289967417717,0.03372277319431305,0.0004363323129985824,0.0,0.0,0.0,0.0004363323129985824,0.0,0.0,0.0,0.0004363323129985824,-0.07488042861223221,0.1316356658935547,9.838027000427246,0.0004,0.0,0.0,0.0,0.0004,0.0,0.0,0.0,0.0004
2025/05/07 10:24:07.899556199,1746606247,898079427,mti/imu_base_body,0.5723796689504441,0.8199435577730467,-0.002986518181679968,-0.008072010146713134,0.017453292519943295,0.0,0.0,0.0,0.017453292519943295,0.0,0.0,0.0,0.15707963267948966,-0.012105266563594341,0.01890905573964119,0.023293020203709602,0.0004363323129985824,0.0,0.0,0.0,0.0004363323129985824,0.0,0.0,0.0,0.0004363323129985824,-0.06911268085241318,0.13441632688045502,9.83395004272461,0.0004,0.0,0.0,0.0,0.0004,0.0,0.0,0.0,0.0004
2025/05/07 10:24:07.948663910,1746606247,948146131,mti/imu_base_body,0.5724736640707859,0.819878206904803,-0.0028713096990987154,-0.008086121971984734,0.017453292519943295,0.0,0.0,0.0,0.017453292519943295,0.0,0.0,0.0,0.15707963267948966,-0.011595393531024456,0.015428749844431877,0.018424320966005325,0.0004363323129985824,0.0,0.0,0.0,0.0004363323129985824,0.0,0.0,0.0,0.0004363323129985824,-0.07016035914421082,0.1087329238653183,9.802510261535645,0.0004,0.0,0.0,0.0,0.0004,0.0,0.0,0.0,0.0004
2025/05/07 10:24:07.999176863,1746606247,998088192,mti/imu_base_body,0.5725600744945507,0.819818647324027,-0.002706331562005674,-0.00806364458997419,0.017453292519943295,0.0,0.0,0.0,0.017453292519943295,0.0,0.0,0.0,0.15707963267948966,-0.020126791670918465,0.02219262719154358,0.021161051467061043,0.0004363323129985824,0.0,0.0,0.0,0.0004363323129985824,0.0,0.0,0.0,0.0004363323129985824,-0.07373964786529541,0.12095698714256287,9.845861434936523,0.0004,0.0,0.0,0.0,0.0004,0.0,0.0,0.0,0.0004
2025/05/07 10:24:08.49239028,1746606248,48033903,mti/imu_base_body,0.5726961180118686,0.8197242141797894,-0.002570020201691442,-0.008047614405862654,0.017453292519943295,0.0,0.0,0.0,0.017453292519943295,0.0,0.0,0.0,0.15707963267948966,-0.015363738872110844,0.015090069733560085,0.02988763526082039,0.0004363323129985824,0.0,0.0,0.0,0.0004363323129985824,0.0,0.0,0.0,0.0004363323129985824,-0.06677325814962387,0.1284036636352539,9.860257148742676,0.0004,0.0,0.0,0.0,0.0004,0.0,0.0,0.0,0.0004
2025/05/07 10:24:08.99255650,1746606248,98059213,mti/imu_base_body,0.5727684000424044,0.8196742479420037,-0.002446076007754348,-0.008031431113999864,0.017453292519943295,0.0,0.0,0.0,0.017453292519943295,0.0,0.0,0.0,0.15707963267948966,-0.012698065489530563,0.020245293155312538,0.010062383487820625,0.0004363323129985824,0.0,0.0,0.0,0.0004363323129985824,0.0,0.0,0.0,0.0004363323129985824,-0.07467962056398392,0.13193030655384064,9.830973625183105,0.0004,0.0,0.0,0.0,0.0004,0.0,0.0,0.0,0.0004
2025/05/07 10:24:08.148564556,1746606248,148058219,mti/imu_base_body,0.5728174164997676,0.8196403329691034,-0.0022973096977324838,-0.008040789325790566,0.017453292519943295,0.0,0.0,0.0,0.017453292519943295,0.0,0.0,0.0,0.15707963267948966,-0.00764447683468461,0.018694724887609482,0.011388527229428291,0.0004363323129985824,0.0,0.0,0.0,0.0004363323129985824,0.0,0.0,0.0,0.0004363323129985824,-0.06347789615392685,0.12421096861362457,9.817757606506348,0.0004,0.0,0.0,0.0,0.0004,0.0,0.0,0.0,0.0004
2025/05/07 10:24:08.199283158,1746606248,198105722,mti/imu_base_body,0.5729174263704638,0.8195706803308186,-0.002148932057371668,-0.008056338755039099,0.017453292519943295,0.0,0.0,0.0,0.017453292519943295,0.0,0.0,0.0,0.15707963267948966,-0.015810435637831688,0.023008663207292557,0.025276368483901024,0.0004363323129985824,0.0,0.0,0.0,0.0004363323129985824,0.0,0.0,0.0,0.0004363323129985824,-0.07587827742099762,0.1268436461687088,9.824373245239258,0.0004,0.0,0.0,0.0,0.0004,0.0,0.0,0.0,0.0004
2025/05/07 10:24:08.255347915,1746606248,253701985,mti/imu_base_body,0.5730372404556919,0.8194873490696607,-0.0019850329056977393,-0.00805390650980534,0.017453292519943295,0.0,0.0,0.0,0.017453292519943295,0.0,0.0,0.0,0.15707963267948966,-0.018835900351405144,0.021791057661175728,0.02346528321504593,0.0004363323129985824,0.0,0.0,0.0,0.0004363323129985824,0.0,0.0,0.0,0.0004363323129985824,-0.05990297719836235,0.12548376619815826,9.827484130859375,0.0004,0.0,0.0,0.0,0.0004,0.0,0.0,0.0,0.0004
2025/05/07 10:24:08.300011364,1746606248,299131562,mti/imu_base_body,0.5731065710071979,0.8194395352046588,-0.001854540061284674,-0.008016675938649622,0.017453292519943295,0.0,0.0,0.0,0.017453292519943295,0.0,0.0,0.0,0.15707963267948966,-0.009762173518538475,0.011314074508845806,0.014349931851029396,0.0004363323129985824,0.0,0.0,0.0,0.0004363323129985824,0.0,0.0,0.0,0.0004363323129985824,-0.032840367406606674,0.12307469546794891,9.817131042480469,0.0004,0.0,0.0,0.0,0.0004,0.0,0.0,0.0,0.0004
2025/05/07 10:24:08.348483077,1746606248,347945077,mti/imu_base_body,0.5731928165755407,0.8193798221606552,-0.0017644817655189196,-0.007974250201174888,0.017453292519943295,0.0,0.0,0.0,0.017453292519943295,0.0,0.0,0.0,0.15707963267948966,-0.017508605495095253,0.005759516730904579,0.015978459268808365,0.0004363323129985824,0.0,0.0,0.0,0.0004363323129985824,0.0,0.0,0.0,0.0004363323129985824,-0.04587319493293762,0.13666793704032898,9.791461944580078,0.0004,0.0,0.0,0.0,0.0004,0.0,0.0,0.0,0.0004
2025/05/07 10:24:08.398577304,1746606248,398054647,mti/imu_base_body,0.5732679753387488,0.8193278621560403,-0.0016021335723854927,-0.007944552463195722,0.017453292519943295,0.0,0.0,0.0,0.017453292519943295,0.0,0.0,0.0,0.15707963267948966,-0.013893930241465569,0.01928951032459736,0.019788000732660294,0.0004363323129985824,0.0,0.0,0.0,0.0004363323129985824,0.0,0.0,0.0,0.0004363323129985824,-0.0403844378888607,0.13730716705322266,9.771764755249023,0.0004,0.0,0.0,0.0,0.0004,0.0,0.0,0.0,0.0004
2025/05/07 10:24:08.448454143,1746606248,447976795,mti/imu_base_body,0.5734039096746238,0.8192331326568126,-0.0014659621342990787,-0.007929797108477108,0.017453292519943295,0.0,0.0,0.0,0.017453292519943295,0.0,0.0,0.0,0.15707963267948966,-0.016474777832627296,0.021293649449944496,0.026355762034654617,0.0004363323129985824,0.0,0.0,0.0,0.0004363323129985824,0.0,0.0,0.0,0.0004363323129985824,-0.022455621510744095,0.12211460620164871,9.762857437133789,0.0004,0.0,0.0,0.0,0.0004,0.0,0.0,0.0,0.0004
2025/05/07 10:24:08.500590356,1746606248,499467095,mti/imu_base_body,0.5734428224257001,0.8192061451784466,-0.0013617611461416933,-0.007922544849821543,0.017453292519943295,0.0,0.0,0.0,0.017453292519943295,0.0,0.0,0.0,0.15707963267948966,-0.007581572514027357,0.00811905600130558,0.009033356793224812,0.0004363323129985824,0.0,0.0,0.0,0.0004363323129985824,0.0,0.0,0.0,0.0004363323129985824,-0.031239280477166176,0.1316254734992981,9.776069641113281,0.0004,0.0,0.0,0.0,0.0004,0.0,0.0,0.0,0.0004
2025/05/07 10:24:08.549049237,1746606248,548234889,mti/imu_base_body,0.5735302670490593,0.8191452480838611,-0.0012355289285168767,-0.007910043522691899,0.017453292519943295,0.0,0.0,0.0,0.017453292519943295,0.0,0.0,0.0,0.15707963267948966,-0.01286887377500534,0.022063354030251503,0.015887418761849403,0.0004363323129985824,0.0,0.0,0.0,0.0004363323129985824,0.0,0.0,0.0,0.0004363323129985824,-0.04052269458770752,0.0976867824792862,9.744030952453613,0.0004,0.0,0.0,0.0,0.0004,0.0,0.0,0.0,0.0004
2025/05/07 10:24:08.599099960,1746606248,597990738,mti/imu_base_body,0.5735955620433145,0.8191000262985563,-0.0011005722791772908,-0.007878252507796477,0.017453292519943295,0.0,0.0,0.0,0.017453292519943295,0.0,0.0,0.0,0.15707963267948966,-0.015314365737140179,0.010787809267640114,0.01660105399787426,0.0004363323129985824,0.0,0.0,0.0,0.0004363323129985824,0.0,0.0,0.0,0.0004363323129985824,-0.025248268619179726,0.08375827223062515,9.770779609680176,0.0004,0.0,0.0,0.0,0.0004,0.0,0.0,0.0,0.0004
2025/05/07 10:24:08.648628461,1746606248,648184718,mti/imu_base_body,0.5736842276751937,0.8190380865944151,-0.0009883308091735718,-0.007876726901922107,0.017453292519943295,0.0,0.0,0.0,0.017453292519943295,0.0,0.0,0.0,0.15707963267948966,-0.016956713050603867,0.013991894200444221,0.016878286376595497,0.0004363323129985824,0.0,0.0,0.0,0.0004363323129985824,0.0,0.0,0.0,0.0004363323129985824,-0.030875522643327713,0.09591221809387207,9.806793212890625,0.0004,0.0,0.0,0.0,0.0004,0.0,0.0,0.0,0.0004
2025/05/07 10:24:08.698357850,1746606248,697934700,mti/imu_base_body,0.5737519116153903,0.818991247720234,-0.000835264677820018,-0.007834692607711314,0.017453292519943295,0.0,0.0,0.0,0.017453292519943295,0.0,0.0,0.0,0.15707963267948966,-0.013194276951253414,0.020489312708377838,0.014865499921143055,0.0004363323129985824,0.0,0.0,0.0,0.0004363323129985824,0.0,0.0,0.0,0.0004363323129985824,-0.03512134402990341,0.09868861734867096,9.791553497314453,0.0004,0.0,0.0,0.0,0.0004,0.0,0.0,0.0,0.0004
2025/05/07 10:24:08.748865608,1746606248,748205508,mti/imu_base_body,0.5738648397532763,0.818912215397208,-0.0007229773831690612,-0.007836228167087286,0.017453292519943295,0.0,0.0,0.0,0.017453292519943295,0.0,0.0,0.0,0.15707963267948966,-0.004390702582895756,0.015425984747707844,0.024041159078478813,0.0004363323129985824,0.0,0.0,0.0,0.0004363323129985824,0.0,0.0,0.0,0.0004363323129985824,-0.045353103429079056,0.10344559699296951,9.774517059326172,0.0004,0.0,0.0,0.0,0.0004,0.0,0.0,0.0,0.0004
2025/05/07 10:24:08.798169255,1746606248,797782841,mti/imu_base_body,0.5739384333813096,0.8188609212460278,-0.0006136489923493074,-0.007815995063246487,0.017453292519943295,0.0,0.0,0.0,0.017453292519943295,0.0,0.0,0.0,0.15707963267948966,-0.012463166378438473,0.009679773822426796,0.013847091235220432,0.0004363323129985824,0.0,0.0,0.0,0.0004363323129985824,0.0,0.0,0.0,0.0004363323129985824,-0.03746306151151657,0.08030462265014648,9.758312225341797,0.0004,0.0,0.0,0.0,0.0004,0.0,0.0,0.0,0.0004
2025/05/07 10:24:08.848702365,1746606248,847859861,mti/imu_base_body,0.5740367807479598,0.818792467975836,-0.0005176032669138692,-0.007771796537236524,0.017453292519943295,0.0,0.0,0.0,0.017453292519943295,0.0,0.0,0.0,0.15707963267948966,-0.010869774036109447,0.007968532852828503,0.023895032703876495,0.0004363323129985824,0.0,0.0,0.0,0.0004363323129985824,0.0,0.0,0.0,0.0004363323129985824,-0.025631297379732132,0.07877068966627121,9.763934135437012,0.0004,0.0,0.0,0.0,0.0004,0.0,0.0,0.0,0.0004
2025/05/07 10:24:08.898543977,1746606248,898024405,mti/imu_base_body,0.5741309376984554,0.8187269651262468,-0.00040504340648954114,-0.00772391691413982,0.017453292519943295,0.0,0.0,0.0,0.017453292519943295,0.0,0.0,0.0,0.15707963267948966,-0.013250580057501793,0.00787948165088892,0.022310785949230194,0.0004363323129985824,0.0,0.0,0.0,0.0004363323129985824,0.0,0.0,0.0,0.0004363323129985824,-0.01883251965045929,0.09489910304546356,9.785416603088379,0.0004,0.0,0.0,0.0,0.0004,0.0,0.0,0.0,0.0004
2025/05/07 10:24:08.948172028,1746606248,947919885,mti/imu_base_body,0.5742438617827743,0.8186476260966087,-0.0003245788473716007,-0.00774248924861567,0.017453292519943295,0.0,0.0,0.0,0.017453292519943295,0.0,0.0,0.0,0.15707963267948966,-0.002059929072856903,0.018471552059054375,0.02363988570868969,0.0004363323129985824,0.0,0.0,0.0,0.0004363323129985824,0.0,0.0,0.0,0.0004363323129985824,-0.0195330623537302,0.08939936012029648,9.757204055786133,0.0004,0.0,0.0,0.0,0.0004,0.0,0.0,0.0,0.0004
2025/05/07 10:24:08.998467487,1746606248,997936084,mti/imu_base_body,0.5743380788176796,0.8185818664029615,-0.00018234066685112772,-0.007711418037052777,0.017453292519943295,0.0,0.0,0.0,0.017453292519943295,0.0,0.0,0.0,0.15707963267948966,-0.014406891539692879,0.014951054938137531,0.01763436570763588,0.0004363323129985824,0.0,0.0,0.0,0.0004363323129985824,0.0,0.0,0.0,0.0004363323129985824,-0.02834111452102661,0.0890466496348381,9.746298789978027,0.0004,0.0,0.0,0.0,0.0004,0.0,0.0,0.0,0.0004
2025/05/07 10:24:09.49310967,1746606249,48080854,mti/imu_base_body,0.5744181984516111,0.81852602590484,-0.00011920417380875334,-0.007672287429412994,0.017453292519943295,0.0,0.0,0.0,0.017453292519943295,0.0,0.0,0.0,0.15707963267948966,-0.008153613656759262,0.006217677146196365,0.02144514210522175,0.0004363323129985824,0.0,0.0,0.0,0.0004363323129985824,0.0,0.0,0.0,0.0004363323129985824,-0.01923377998173237,0.07952696830034256,9.7968168258667,0.0004,0.0,0.0,0.0,0.0004,0.0,0.0,0.0,0.0004
2025/05/07 10:24:09.99822489,1746606249,98717649,mti/imu_base_body,0.5745379611899475,0.8184422002415388,-2.3574049133010325e-05,-0.007648232459294372,0.017453292519943295,0.0,0.0,0.0,0.017453292519943295,0.0,0.0,0.0,0.15707963267948966,-0.010331252589821815,0.008630725555121899,0.020551331341266632,0.0004363323129985824,0.0,0.0,0.0,0.0004363323129985824,0.0,0.0,0.0,0.0004363323129985824,-0.008803794160485268,0.05714995041489601,9.794400215148926,0.0004,0.0,0.0,0.0,0.0004,0.0,0.0,0.0,0.0004
2025/05/07 10:24:09.148781149,1746606249,147774361,mti/imu_base_body,0.5746175972406025,0.8183863419521469,0.00010108291665510659,-0.007642122078596962,0.017453292519943295,0.0,0.0,0.0,0.017453292519943295,0.0,0.0,0.0,0.15707963267948966,-0.010082041844725609,0.016875846311450005,0.015177899040281773,0.0004363323129985824,0.0,0.0,0.0,0.0004363323129985824,0.0,0.0,0.0,0.0004363323129985824,-0.0031362625304609537,0.05717019736766815,9.764989852905273,0.0004,0.0,0.0,0.0,0.0004,0.0,0.0,0.0,0.0004
2025/05/07 10:24:09.198993761,1746606249,197947941,mti/imu_base_body,0.5747070570642671,0.818323667411741,0.00019428457600091133,-0.007624707721037863,0.017453292519943295,0.0,0.0,0.0,0.017453292519943295,0.0,0.0,0.0,0.15707963267948966,-0.005649440456181765,0.009584356099367142,0.020295633003115654,0.0004363323129985824,0.0,0.0,0.0,0.0004363323129985824,0.0,0.0,0.0,0.0004363323129985824,-0.004968908615410328,0.04419778287410736,9.763904571533203,0.0004,0.0,0.0,0.0,0.0004,0.0,0.0,0.0,0.0004
2025/05/07 10:24:09.248556705,1746606249,248053771,mti/imu_base_body,0.5747986380136244,0.8182592571108726,0.0002707997291213149,-0.007631550140825858,0.017453292519943295,0.0,0.0,0.0,0.017453292519943295,0.0,0.0,0.0,0.15707963267948966,-0.001750208088196814,0.01585817150771618,0.02255496382713318,0.0004363323129985824,0.0,0.0,0.0,0.0004363323129985824,0.0,0.0,0.0,0.0004363323129985824,-0.02529202401638031,0.051327724009752274,9.769330978393555,0.0004,0.0,0.0,0.0,0.0004,0.0,0.0,0.0,0.0004
2025/05/07 10:24:09.300525577,1746606249,299324789,mti/imu_base_body,0.574885825311979,0.8181981106304238,0.0003722341608852755,-0.0076158425600191945,0.017453292519943295,0.0,0.0,0.0,0.017453292519943295,0.0,0.0,0.0,0.15707963267948966,-0.010539340786635876,0.013713017106056213,0.018780173733830452,0.0004363323129985824,0.0,0.0,0.0,0.0004363323129985824,0.0,0.0,0.0,0.0004363323129985824,-0.01959667168557644,0.05554671585559845,9.777850151062012,0.0004,0.0,0.0,0.0,0.0004,0.0,0.0,0.0,0.0004
2025/05/07 10:24:09.348301675,1746606249,347959835,mti/imu_base_body,0.5750030324624446,0.8181156716648427,0.0004945008451390045,-0.007616817202106382,0.017453292519943295,0.0,0.0,0.0,0.017453292519943295,0.0,0.0,0.0,0.15707963267948966,-0.009962259791791439,0.012560831382870674,0.024649538099765778,0.0004363323129985824,0.0,0.0,0.0,0.0004363323129985824,0.0,0.0,0.0,0.0004363323129985824,-0.0200035460293293,0.0650489330291748,9.758526802062988,0.0004,0.0,0.0,0.0,0.0004,0.0,0.0,0.0,0.0004
2025/05/07 10:24:09.398558050,1746606249,398050689,mti/imu_base_body,0.5750665588617795,0.8180712075770661,0.0005617125622853192,-0.007591883249201811,0.017453292519943295,0.0,0.0,0.0,0.017453292519943295,0.0,0.0,0.0,0.15707963267948966,-0.0014251647517085075,0.011637910269200802,0.013731004670262337,0.0004363323129985824,0.0,0.0,0.0,0.0004363323129985824,0.0,0.0,0.0,0.0004363323129985824,-0.011285453103482723,0.05956089124083519,9.770517349243164,0.0004,0.0,0.0,0.0,0.0004,0.0,0.0,0.0,0.0004
2025/05/07 10:24:09.448400553,1746606249,447893971,mti/imu_base_body,0.5751322350294913,0.8180250760840354,0.0006357003398713926,-0.007581755256400027,0.017453292519943295,0.0,0.0,0.0,0.017453292519943295,0.0,0.0,0.0,0.15707963267948966,-0.0014420528896152973,0.010307401418685913,0.01191133726388216,0.0004363323129985824,0.0,0.0,0.0,0.0004363323129985824,0.0,0.0,0.0,0.0004363323129985824,-0.007797634229063988,0.07521596550941467,9.77760124206543,0.0004,0.0,0.0,0.0,0.0004,0.0,0.0,0.0,0.0004
2025/05/07 10:24:09.498016718,1746606249,497729857,mti/imu_base_body,0.5752208230425682,0.8179622980090555,0.0006810783713738157,-0.007630196997951765,0.017453292519943295,0.0,0.0,0.0,0.017453292519943295,0.0,0.0,0.0,0.15707963267948966,0.0030238633044064045,0.018949801102280617,0.023284967988729477,0.0004363323129985824,0.0,0.0,0.0,0.0004363323129985824,0.0,0.0,0.0,0.0004363323129985824,-0.017703169956803322,0.05324868857860565,9.788044929504395,0.0004,0.0,0.0,0.0,0.0004,0.0,0.0,0.0,0.0004
2025/05/07 10:24:09.548312272,1746606249,547906299,mti/imu_base_body,0.5753285071696306,0.817886484871911,0.0007864063453181433,-0.007628123418877456,0.017453292519943295,0.0,0.0,0.0,0.017453292519943295,0.0,0.0,0.0,0.15707963267948966,-0.0015090365195646882,0.013314155861735344,0.018055260181427002,0.0004363323129985824,0.0,0.0,0.0,0.0004363323129985824,0.0,0.0,0.0,0.0004363323129985824,-0.01290595531463623,0.05319058150053024,9.765599250793457,0.0004,0.0,0.0,0.0,0.0004,0.0,0.0,0.0,0.0004
2025/05/07 10:24:09.598407861,1746606249,597956043,mti/imu_base_body,0.5754201938981054,0.8178219784378498,0.0008423320248561973,-0.007622500575787307,0.017453292519943295,0.0,0.0,0.0,0.017453292519943295,0.0,0.0,0.0,0.15707963267948966,0.002303880639374256,0.010166783817112446,0.024667665362358093,0.0004363323129985824,0.0,0.0,0.0,0.0004363323129985824,0.0,0.0,0.0,0.0004363323129985824,-0.026364421471953392,0.07838781923055649,9.752296447753906,0.0004,0.0,0.0,0.0,0.0004,0.0,0.0,0.0,0.0004
2025/05/07 10:24:09.648369386,1746606249,647930469,mti/imu_base_body,0.5755288706740378,0.817745684419896,0.0009017293436792326,-0.007596151492243934,0.017453292519943295,0.0,0.0,0.0,0.017453292519943295,0.0,0.0,0.0,0.15707963267948966,-0.010147281922399998,0.0032396812457591295,0.023788996040821075,0.0004363323129985824,0.0,0.0,0.0,0.0004363323129985824,0.0,0.0,0.0,0.0004363323129985824,-0.025526748970150948,0.07171279191970825,9.780137062072754,0.0004,0.0,0.0,0.0,0.0004,0.0,0.0,0.0,0.0004
2025/05/07 10:24:09.698603369,1746606249,698110992,mti/imu_base_body,0.5756123550166652,0.8176873634862138,0.001006628574596081,-0.007535187193802527,0.017453292519943295,0.0,0.0,0.0,0.017453292519943295,0.0,0.0,0.0,0.15707963267948966,-0.016552571207284927,0.007909459061920643,0.011194365099072456,0.0004363323129985824,0.0,0.0,0.0,0.0004363323129985824,0.0,0.0,0.0,0.0004363323129985824,-0.019880766049027443,0.06506415456533432,9.792015075683594,0.0004,0.0,0.0,0.0,0.0004,0.0,0.0,0.0,0.0004
2025/05/07 10:24:09.748419492,1746606249,748048813,mti/imu_base_body,0.5757034760026596,0.8176236075107821,0.0011013357189986858,-0.007478717747294215,0.017453292519943295,0.0,0.0,0.0,0.017453292519943295,0.0,0.0,0.0,0.15707963267948966,-0.00772815803065896,0.0055634984746575356,0.022966153919696808,0.0004363323129985824,0.0,0.0,0.0,0.0004363323129985824,0.0,0.0,0.0,0.0004363323129985824,-0.039663080126047134,0.06392466276884079,9.746427536010742,0.0004,0.0,0.0,0.0,0.0004,0.0,0.0,0.0,0.0004
2025/05/07 10:24:09.798204505,1746606249,797767505,mti/imu_base_body,0.5757793086565347,0.817570554647013,0.001160629252088163,-0.007431610654340974,0.017453292519943295,0.0,0.0,0.0,0.017453292519943295,0.0,0.0,0.0,0.15707963267948966,-0.0038830521516501904,0.001026786514557898,0.014884846284985542,0.0004363323129985824,0.0,0.0,0.0,0.0004363323129985824,0.0,0.0,0.0,0.0004363323129985824,-0.030029622837901115,0.08041636645793915,9.740057945251465,0.0004,0.0,0.0,0.0,0.0004,0.0,0.0,0.0,0.0004
2025/05/07 10:24:09.848406934,1746606249,847966858,mti/imu_base_body,0.5758943121090542,0.817489433359328,0.0012171451770528795,-0.007435467967909364,0.017453292519943295,0.0,0.0,0.0,0.017453292519943295,0.0,0.0,0.0,0.15707963267948966,-0.0021122365724295378,0.010098661296069622,0.02591228485107422,0.0004363323129985824,0.0,0.0,0.0,0.0004363323129985824,0.0,0.0,0.0,0.0004363323129985824,-0.032027777284383774,0.0786890983581543,9.758661270141602,0.0004,0.0,0.0,0.0,0.0004,0.0,0.0,0.0,0.0004
2025/05/07 10:24:09.898175869,1746606249,897812484,mti/imu_base_body,0.5760068277937237,0.8174104948076314,0.0012361218551418343,-0.007395222519554474,0.017453292519943295,0.0,0.0,0.0,0.017453292519943295,0.0,0.0,0.0,0.15707963267948966,0.0034311525523662567,0.0004567849391605705,0.02795269712805748,0.0004363323129985824,0.0,0.0,0.0,0.0004363323129985824,0.0,0.0,0.0,0.0004363323129985824,-0.020501239225268364,0.07876301556825638,9.769689559936523,0.0004,0.0,0.0,0.0,0.0004,0.0,0.0,0.0,0.0004
2025/05/07 10:24:09.948145574,1746606249,947811942,mti/imu_base_body,0.5761176639277923,0.8173326557376148,0.001251999897548572,-0.00736204261992625,0.017453292519943295,0.0,0.0,0.0,0.017453292519943295,0.0,0.0,0.0,0.15707963267948966,0.006723733618855476,0.0011339449556544423,0.017224175855517387,0.0004363323129985824,0.0,0.0,0.0,0.0004363323129985824,0.0,0.0,0.0,0.0004363323129985824,-0.016465667635202408,0.07098910957574844,9.76584243774414,0.0004,0.0,0.0,0.0,0.0004,0.0,0.0,0.0,0.0004
2025/05/07 10:24:09.998354033,1746606249,997978036,mti/imu_base_body,0.5762178894467711,0.8172621890522085,0.0013143837677630993,-0.00733011748962738,0.017453292519943295,0.0,0.0,0.0,0.017453292519943295,0.0,0.0,0.0,0.15707963267948966,-0.008731529116630554,0.004050875548273325,0.027729272842407227,0.0004363323129985824,0.0,0.0,0.0,0.0004363323129985824,0.0,0.0,0.0,0.0004363323129985824,-0.024820873513817787,0.07643540948629379,9.774494171142578,0.0004,0.0,0.0,0.0,0.0004,0.0,0.0,0.0,0.0004
2025/05/07 10:24:10.48252720,1746606250,47896779,mti/imu_base_body,0.57633873890911,0.8171772763682289,0.0013445490992166132,-0.007290350319409854,0.017453292519943295,0.0,0.0,0.0,0.017453292519943295,0.0,0.0,0.0,0.15707963267948966,0.004649484530091286,-0.0007388715166598558,0.027158459648489952,0.0004363323129985824,0.0,0.0,0.0,0.0004363323129985824,0.0,0.0,0.0,0.0004363323129985824,-0.023909302428364754,0.06131519377231598,9.770652770996094,0.0004,0.0,0.0,0.0,0.0004,0.0,0.0,0.0,0.0004
2025/05/07 10:24:10.98257692,1746606250,97911778,mti/imu_base_body,0.5764610436594604,0.8170911936527594,0.001367812968704391,-0.007264673828690629,0.017453292519943295,0.0,0.0,0.0,0.017453292519943295,0.0,0.0,0.0,0.15707963267948966,0.0026205123867839575,0.004882294684648514,0.026620937511324883,0.0004363323129985824,0.0,0.0,0.0,0.0004363323129985824,0.0,0.0,0.0,0.0004363323129985824,-0.019222868606448174,0.06186071038246155,9.789012908935547,0.0004,0.0,0.0,0.0,0.0004,0.0,0.0,0.0,0.0004
2025/05/07 10:24:10.148275579,1746606250,147931820,mti/imu_base_body,0.5765951764669389,0.8169963332728706,0.0013878901758821258,-0.007284754944675707,0.017453292519943295,0.0,0.0,0.0,0.017453292519943295,0.0,0.0,0.0,0.15707963267948966,0.013860523700714111,0.007193129044026136,0.03139599785208702,0.0004363323129985824,0.0,0.0,0.0,0.0004363323129985824,0.0,0.0,0.0,0.0004363323129985824,-0.03321785107254982,0.08145512640476227,9.778226852416992,0.0004,0.0,0.0,0.0,0.0004,0.0,0.0,0.0,0.0004
2025/05/07 10:24:10.198299141,1746606250,197921794,mti/imu_base_body,0.5767556268407198,0.816882953050119,0.0013926661514139897,-0.007297150449054778,0.017453292519943295,0.0,0.0,0.0,0.017453292519943295,0.0,0.0,0.0,0.15707963267948966,0.004934585187584162,0.0071736834943294525,0.036968033760786057,0.0004363323129985824,0.0,0.0,0.0,0.0004363323129985824,0.0,0.0,0.0,0.0004363323129985824,-0.021719414740800858,0.06208378076553345,9.754809379577637,0.0004,0.0,0.0,0.0,0.0004,0.0,0.0,0.0,0.0004
2025/05/07 10:24:10.248309563,1746606250,247906705,mti/imu_base_body,0.576873820055901,0.8167995874014883,0.0013924659557525837,-0.007286342939517975,0.017453292519943295,0.0,0.0,0.0,0.017453292519943295,0.0,0.0,0.0,0.15707963267948966,0.0075881946831941605,0.003825708758085966,0.02382778190076351,0.0004363323129985824,0.0,0.0,0.0,0.0004363323129985824,0.0,0.0,0.0,0.0004363323129985824,-0.029539745301008224,0.06294629722833633,9.767297744750977,0.0004,0.0,0.0,0.0,0.0004,0.0,0.0,0.0,0.0004
2025/05/07 10:24:10.300676860,1746606250,298148986,mti/imu_base_body,0.576970079658514,0.8167318526457066,0.0014083986926126182,-0.007254272250368657,0.017453292519943295,0.0,0.0,0.0,0.017453292519943295,0.0,0.0,0.0,0.15707963267948966,0.0015312712639570236,-0.0010511913569644094,0.020420532673597336,0.0004363323129985824,0.0,0.0,0.0,0.0004363323129985824,0.0,0.0,0.0,0.0004363323129985824,-0.015480343252420425,0.06507451087236404,9.781328201293945,0.0004,0.0,0.0,0.0,0.0004,0.0,0.0,0.0,0.0004
2025/05/07 10:24:10.349232908,1746606250,348001015,mti/imu_base_body,0.577094689504666,0.8166439182119034,0.0014339731861777406,-0.007236982376967111,0.017453292519943295,0.0,0.0,0.0,0.017453292519943295,0.0,0.0,0.0,0.15707963267948966,0.003869377775117755,0.006017623469233513,0.02642929181456566,0.0004363323129985824,0.0,0.0,0.0,0.0004363323129985824,0.0,0.0,0.0,0.0004363323129985824,-0.018785323947668076,0.06912495195865631,9.775449752807617,0.0004,0.0,0.0,0.0,0.0004,0.0,0.0,0.0,0.0004
2025/05/07 10:24:10.400122441,1746606250,398568634,mti/imu_base_body,0.5772027172318704,0.8165674935796398,0.0014565322136344924,-0.007240867566880136,0.017453292519943295,0.0,0.0,0.0,0.017453292519943295,0.0,0.0,0.0,0.15707963267948966,0.006881969049572945,0.0027070397045463324,0.025042273104190826,0.0004363323129985824,0.0,0.0,0.0,0.0004363323129985824,0.0,0.0,0.0,0.0004363323129985824,-0.022912301123142242,0.06442300975322723,9.769085884094238,0.0004,0.0,0.0,0.0,0.0004,0.0,0.0,0.0,0.0004
2025/05/07 10:24:10.448814120,1746606250,447876369,mti/imu_base_body,0.5772991953301453,0.8164995718498805,0.0014824558924746581,-0.007203510578549745,0.017453292519943295,0.0,0.0,0.0,0.017453292519943295,0.0,0.0,0.0,0.15707963267948966,0.00814344547688961,-0.0010356823913753033,0.022778348997235298,0.0004363323129985824,0.0,0.0,0.0,0.0004363323129985824,0.0,0.0,0.0,0.0004363323129985824,-0.02424497716128826,0.06510885059833527,9.767655372619629,0.0004,0.0,0.0,0.0,0.0004,0.0,0.0,0.0,0.0004
2025/05/07 10:24:10.498391552,1746606250,497908863,mti/imu_base_body,0.5774181079648166,0.8164156643962939,0.0014376308413054737,-0.007191991396937167,0.017453292519943295,0.0,0.0,0.0,0.017453292519943295,0.0,0.0,0.0,0.15707963267948966,0.015726644545793533,0.00022845978674013168,0.02148449793457985,0.0004363323129985824,0.0,0.0,0.0,0.0004363323129985824,0.0,0.0,0.0,0.0004363323129985824,-0.032711442559957504,0.06786905974149704,9.799945831298828,0.0004,0.0,0.0,0.0,0.0004,0.0,0.0,0.0,0.0004
2025/05/07 10:24:10.548269440,1746606250,547882646,mti/imu_base_body,0.577524190864392,0.8163406060899536,0.0014265851989327576,-0.0071964345190145265,0.017453292519943295,0.0,0.0,0.0,0.017453292519943295,0.0,0.0,0.0,0.15707963267948966,0.007554930634796619,0.0032572096679359674,0.02826531045138836,0.0004363323129985824,0.0,0.0,0.0,0.0004363323129985824,0.0,0.0,0.0,0.0004363323129985824,-0.042109306901693344,0.06638690829277039,9.76803207397461,0.0004,0.0,0.0,0.0,0.0004,0.0,0.0,0.0,0.0004
2025/05/07 10:24:10.598458081,1746606250,597975568,mti/imu_base_body,0.5776403016867416,0.8162585612732739,0.0014043388253369656,-0.007188243721424983,0.017453292519943295,0.0,0.0,0.0,0.017453292519943295,0.0,0.0,0.0,0.15707963267948966,0.014519802294671535,-0.00015407585306093097,0.026460671797394753,0.0004363323129985824,0.0,0.0,0.0,0.0004363323129985824,0.0,0.0,0.0,0.0004363323129985824,-0.027063142508268356,0.06839659065008163,9.762016296386719,0.0004,0.0,0.0,0.0,0.0004,0.0,0.0,0.0,0.0004
2025/05/07 10:24:10.648286666,1746606250,647926578,mti/imu_base_body,0.5777808462561778,0.8161589944688765,0.0013856562163676363,-0.007202041647852915,0.017453292519943295,0.0,0.0,0.0,0.017453292519943295,0.0,0.0,0.0,0.15707963267948966,0.012154975906014442,0.00619683600962162,0.032071080058813095,0.0004363323129985824,0.0,0.0,0.0,0.0004363323129985824,0.0,0.0,0.0,0.0004363323129985824,-0.021346066147089005,0.06557708978652954,9.763324737548828,0.0004,0.0,0.0,0.0,0.0004,0.0,0.0,0.0,0.0004
2025/05/07 10:24:10.698275119,1746606250,697918808,mti/imu_base_body,0.5779125217166176,0.8160656930653781,0.0013691430144464104,-0.007212994681131587,0.017453292519943295,0.0,0.0,0.0,0.017453292519943295,0.0,0.0,0.0,0.15707963267948966,0.01887456513941288,0.0015031578950583935,0.027962034568190575,0.0004363323129985824,0.0,0.0,0.0,0.0004363323129985824,0.0,0.0,0.0,0.0004363323129985824,-0.023065682500600815,0.06128331273794174,9.791055679321289,0.0004,0.0,0.0,0.0,0.0004,0.0,0.0,0.0,0.0004
2025/05/07 10:24:10.748404894,1746606250,747965764,mti/imu_base_body,0.5780284957708735,0.81598363322185,0.0013015999361351725,-0.007216247538502371,0.017453292519943295,0.0,0.0,0.0,0.017453292519943295,0.0,0.0,0.0,0.15707963267948966,0.016461040824651718,-0.006658035796135664,0.02206391654908657,0.0004363323129985824,0.0,0.0,0.0,0.0004363323129985824,0.0,0.0,0.0,0.0004363323129985824,-0.027385680004954338,0.05901533365249634,9.78217601776123,0.0004,0.0,0.0,0.0,0.0004,0.0,0.0,0.0,0.0004
2025/05/07 10:24:10.798259299,1746606250,797903017,mti/imu_base_body,0.5781259132605182,0.8159149944626308,0.0012861821709315197,-0.0071760687817292446,0.017453292519943295,0.0,0.0,0.0,0.017453292519943295,0.0,0.0,0.0,0.15707963267948966,0.00972859188914299,-0.0022684771101921797,0.02475043758749962,0.0004363323129985824,0.0,0.0,0.0,0.0004363323129985824,0.0,0.0,0.0,0.0004363323129985824,-0.027251170948147774,0.07442902773618698,9.782903671264648,0.0004,0.0,0.0,0.0,0.0004,0.0,0.0,0.0,0.0004
2025/05/07 10:24:10.848156930,1746606250,847773108,mti/imu_base_body,0.5782630642357711,0.8158179197592554,0.0012661455358534829,-0.007165697162135266,0.017453292519943295,0.0,0.0,0.0,0.017453292519943295,0.0,0.0,0.0,0.15707963267948966,0.00976906530559063,0.0005688151577487588,0.0290535856038332,0.0004363323129985824,0.0,0.0,0.0,0.0004363323129985824,0.0,0.0,0.0,0.0004363323129985824,-0.016284525394439697,0.07170601934194565,9.778326034545898,0.0004,0.0,0.0,0.0,0.0004,0.0,0.0,0.0,0.0004
2025/05/07 10:24:10.898192909,1746606250,897814662,mti/imu_base_body,0.5783527991913702,0.8157545302027938,0.0012745129955947323,-0.007138749032553182,0.017453292519943295,0.0,0.0,0.0,0.017453292519943295,0.0,0.0,0.0,0.15707963267948966,0.0025522641371935606,-0.0011379499919712543,0.023219315335154533,0.0004363323129985824,0.0,0.0,0.0,0.0004363323129985824,0.0,0.0,0.0,0.0004363323129985824,-0.014852497726678848,0.041556909680366516,9.776041030883789,0.0004,0.0,0.0,0.0,0.0004,0.0,0.0,0.0,0.0004
2025/05/07 10:24:10.948318032,1746606250,947877261,mti/imu_base_body,0.5784899241148782,0.8156578027146861,0.0012789503916234711,-0.007079608330150113,0.017453292519943295,0.0,0.0,0.0,0.017453292519943295,0.0,0.0,0.0,0.15707963267948966,0.002405063947662711,-0.0020417836494743824,0.02888883650302887,0.0004363323129985824,0.0,0.0,0.0,0.0004363323129985824,0.0,0.0,0.0,0.0004363323129985824,-0.019265316426753998,0.06258190423250198,9.77736759185791,0.0004,0.0,0.0,0.0,0.0004,0.0,0.0,0.0,0.0004
2025/05/07 10:24:10.998364398,1746606250,997935164,mti/imu_base_body,0.5786231942667917,0.8155634459070702,0.0012868328738593702,-0.007057536243961382,0.017453292519943295,0.0,0.0,0.0,0.017453292519943295,0.0,0.0,0.0,0.15707963267948966,0.006980170961469412,-0.0020592352375388145,0.03060445375740528,0.0004363323129985824,0.0,0.0,0.0,0.0004363323129985824,0.0,0.0,0.0,0.0004363323129985824,-0.022209489718079567,0.07085564732551575,9.774608612060547,0.0004,0.0,0.0,0.0,0.0004,0.0,0.0,0.0,0.0004
2025/05/07 10:24:11.48076617,1746606251,47719618,mti/imu_base_body,0.5787633352554467,0.8154640529713773,0.001241959847752402,-0.007059575852912366,0.017453292519943295,0.0,0.0,0.0,0.017453292519943295,0.0,0.0,0.0,0.15707963267948966,0.0211276113986969,0.004629148170351982,0.03442413732409477,0.0004363323129985824,0.0,0.0,0.0,0.0004363323129985824,0.0,0.0,0.0,0.0004363323129985824,-0.02819182351231575,0.08392088115215302,9.769814491271973,0.0004,0.0,0.0,0.0,0.0004,0.0,0.0,0.0,0.0004
2025/05/07 10:24:11.98184572,1746606251,97801607,mti/imu_base_body,0.5788853927166779,0.8153770113567158,0.0012222016814986544,-0.007108985391554097,0.017453292519943295,0.0,0.0,0.0,0.017453292519943295,0.0,0.0,0.0,0.15707963267948966,0.01802404411137104,0.004855398088693619,0.02180084027349949,0.0004363323129985824,0.0,0.0,0.0,0.0004363323129985824,0.0,0.0,0.0,0.0004363323129985824,-0.020927557721734047,0.09507341682910919,9.780610084533691,0.0004,0.0,0.0,0.0,0.0004,0.0,0.0,0.0,0.0004
2025/05/07 10:24:11.148308764,1746606251,147915945,mti/imu_base_body,0.5790137042483492,0.8152858232987252,0.0012118444031869935,-0.007119554330657296,0.017453292519943295,0.0,0.0,0.0,0.017453292519943295,0.0,0.0,0.0,0.15707963267948966,0.015886405482888222,0.006277293898165226,0.03294467180967331,0.0004363323129985824,0.0,0.0,0.0,0.0004363323129985824,0.0,0.0,0.0,0.0004363323129985824,-0.009050986729562283,0.0705365389585495,9.757671356201172,0.0004,0.0,0.0,0.0,0.0004,0.0,0.0,0.0,0.0004
2025/05/07 10:24:11.198203469,1746606251,197876278,mti/imu_base_body,0.5791371415702071,0.8151981876602776,0.001180945935736766,-0.007119793254396513,0.017453292519943295,0.0,0.0,0.0,0.017453292519943295,0.0,0.0,0.0,0.15707963267948966,0.018645504489541054,-0.0010580758098512888,0.025086743757128716,0.0004363323129985824,0.0,0.0,0.0,0.0004363323129985824,0.0,0.0,0.0,0.0004363323129985824,0.0024443555157631636,0.0820758119225502,9.769782066345215,0.0004,0.0,0.0,0.0,0.0004,0.0,0.0,0.0,0.0004
2025/05/07 10:24:11.248166725,1746606251,247777936,mti/imu_base_body,0.5792495124187931,0.8151183074777089,0.0011181232778256678,-0.007134211771532622,0.017453292519943295,0.0,0.0,0.0,0.017453292519943295,0.0,0.0,0.0,0.15707963267948966,0.017860950902104378,-0.002484476426616311,0.023166999220848083,0.0004363323129985824,0.0,0.0,0.0,0.0004363323129985824,0.0,0.0,0.0,0.0004363323129985824,0.0007239297847263515,0.08454514294862747,9.753576278686523,0.0004,0.0,0.0,0.0,0.0004,0.0,0.0,0.0,0.0004
2025/05/07 10:24:11.298082861,1746606251,297759298,mti/imu_base_body,0.5793909270039987,0.8150177472521078,0.0010639030777665776,-0.007147970326404228,0.017453292519943295,0.0,0.0,0.0,0.017453292519943295,0.0,0.0,0.0,0.15707963267948966,0.017183277755975723,0.000919816258829087,0.03512351214885712,0.0004363323129985824,0.0,0.0,0.0,0.0004363323129985824,0.0,0.0,0.0,0.0004363323129985824,-0.015186326578259468,0.08462920039892197,9.736547470092773,0.0004,0.0,0.0,0.0,0.0004,0.0,0.0,0.0,0.0004
2025/05/07 10:24:11.348233266,1746606251,347806466,mti/imu_base_body,0.5795246716343001,0.814922619339542,0.0010346058932029297,-0.007156049649226158,0.017453292519943295,0.0,0.0,0.0,0.017453292519943295,0.0,0.0,0.0,0.15707963267948966,0.015644177794456482,0.006090676877647638,0.029534315690398216,0.0004363323129985824,0.0,0.0,0.0,0.0004363323129985824,0.0,0.0,0.0,0.0004363323129985824,0.00790218822658062,0.07861271500587463,9.774335861206055,0.0004,0.0,0.0,0.0,0.0004,0.0,0.0,0.0,0.0004
2025/05/07 10:24:11.398334948,1746606251,397915288,mti/imu_base_body,0.5796520242616483,0.8148318083478114,0.0010064719732347928,-0.0071862290650856146,0.017453292519943295,0.0,0.0,0.0,0.017453292519943295,0.0,0.0,0.0,0.15707963267948966,0.016284195706248283,0.001451907679438591,0.027386998757719994,0.0004363323129985824,0.0,0.0,0.0,0.0004363323129985824,0.0,0.0,0.0,0.0004363323129985824,-0.007629860192537308,0.08047591149806976,9.780473709106445,0.0004,0.0,0.0,0.0,0.0004,0.0,0.0,0.0,0.0004
2025/05/07 10:24:11.448322767,1746606251,447905052,mti/imu_base_body,0.5797778701170354,0.8147424636641937,0.0009760018507264522,-0.007168447903229024,0.017453292519943295,0.0,0.0,0.0,0.017453292519943295,0.0,0.0,0.0,0.15707963267948966,0.014056163839995861,-0.0007611821056343615,0.030279044061899185,0.0004363323129985824,0.0,0.0,0.0,0.0004363323129985824,0.0,0.0,0.0,0.0004363323129985824,-0.010249284096062183,0.09142125397920609,9.767152786254883,0.0004,0.0,0.0,0.0,0.0004,0.0,0.0,0.0,0.0004
2025/05/07 10:24:11.498377434,1746606251,497975153,mti/imu_base_body,0.5799285449590756,0.8146353092551704,0.0009713651545943647,-0.007159057627849344,0.017453292519943295,0.0,0.0,0.0,0.017453292519943295,0.0,0.0,0.0,0.15707963267948966,0.006397170014679432,-0.0015178833855316043,0.034035101532936096,0.0004363323129985824,0.0,0.0,0.0,0.0004363323129985824,0.0,0.0,0.0,0.0004363323129985824,-0.027773886919021606,0.07670967280864716,9.803421974182129,0.0004,0.0,0.0,0.0,0.0004,0.0,0.0,0.0,0.0004
2025/05/07 10:24:11.548279356,1746606251,547893531,mti/imu_base_body,0.5800668708064718,0.8145368796791206,0.0009250140453909796,-0.007158308767129605,0.017453292519943295,0.0,0.0,0.0,0.017453292519943295,0.0,0.0,0.0,0.15707963267948966,0.023478811606764793,0.0010372400283813477,0.027945972979068756,0.0004363323129985824,0.0,0.0,0.0,0.0004363323129985824,0.0,0.0,0.0,0.0004363323129985824,-0.040140919387340546,0.09498640149831772,9.806797981262207,0.0004,0.0,0.0,0.0,0.0004,0.0,0.0,0.0,0.0004
2025/05/07 10:24:11.598281502,1746606251,597906619,mti/imu_base_body,0.5801968975887241,0.8144441505950847,0.0008564159815310211,-0.007179982001172706,0.017453292519943295,0.0,0.0,0.0,0.017453292519943295,0.0,0.0,0.0,0.15707963267948966,0.018472716212272644,-0.002479149727150798,0.03287047892808914,0.0004363323129985824,0.0,0.0,0.0,0.0004363323129985824,0.0,0.0,0.0,0.0004363323129985824,-0.033190663903951645,0.08683759719133377,9.805827140808105,0.0004,0.0,0.0,0.0,0.0004,0.0,0.0,0.0,0.0004
2025/05/07 10:24:11.648172815,1746606251,647825071,mti/imu_base_body,0.5803016376844616,0.8143695952387375,0.0008195632602202912,-0.00717634778204103,0.017453292519943295,0.0,0.0,0.0,0.017453292519943295,0.0,0.0,0.0,0.15707963267948966,0.02271123230457306,-0.0030906423926353455,0.02356799505650997,0.0004363323129985824,0.0,0.0,0.0,0.0004363323129985824,0.0,0.0,0.0,0.0004363323129985824,-0.02665827050805092,0.09340977668762207,9.823349952697754,0.0004,0.0,0.0,0.0,0.0004,0.0,0.0,0.0,0.0004
2025/05/07 10:24:11.698554679,1746606251,698203428,mti/imu_base_body,0.5803963366720222,0.8143025697693076,0.0007671098491632208,-0.0071294310627022135,0.017453292519943295,0.0,0.0,0.0,0.017453292519943295,0.0,0.0,0.0,0.15707963267948966,0.008212216198444366,-0.01233221497386694,0.019620060920715332,0.0004363323129985824,0.0,0.0,0.0,0.0004363323129985824,0.0,0.0,0.0,0.0004363323129985824,-0.029035229235887527,0.07938188314437866,9.786140441894531,0.0004,0.0,0.0,0.0,0.0004,0.0,0.0,0.0,0.0004
2025/05/07 10:24:11.748695911,1746606251,748112733,mti/imu_base_body,0.5805172741070157,0.8142167578337043,0.0007021685801582508,-0.007090323364693788,0.017453292519943295,0.0,0.0,0.0,0.017453292519943295,0.0,0.0,0.0,0.15707963267948966,0.01570194587111473,-0.004850482102483511,0.023959143087267876,0.0004363323129985824,0.0,0.0,0.0,0.0004363323129985824,0.0,0.0,0.0,0.0004363323129985824,-0.044353168457746506,0.097469761967659,9.809807777404785,0.0004,0.0,0.0,0.0,0.0004,0.0,0.0,0.0,0.0004
2025/05/07 10:24:11.799297579,1746606251,798495449,mti/imu_base_body,0.5806190339133652,0.8141444343107542,0.000656205231073341,-0.007067314414053218,0.017453292519943295,0.0,0.0,0.0,0.017453292519943295,0.0,0.0,0.0,0.15707963267948966,0.012530580163002014,-0.004842080641537905,0.025448936969041824,0.0004363323129985824,0.0,0.0,0.0,0.0004363323129985824,0.0,0.0,0.0,0.0004363323129985824,-0.021539224311709404,0.09012102335691452,9.822983741760254,0.0004,0.0,0.0,0.0,0.0004,0.0,0.0,0.0,0.0004
2025/05/07 10:24:11.848212446,1746606251,847852298,mti/imu_base_body,0.5807706628475062,0.8140360422181896,0.0006277154876530031,-0.007096838639879985,0.017453292519943295,0.0,0.0,0.0,0.017453292519943295,0.0,0.0,0.0,0.15707963267948966,0.02271382510662079,0.003979799337685108,0.03347613289952278,0.0004363323129985824,0.0,0.0,0.0,0.0004363323129985824,0.0,0.0,0.0,0.0004363323129985824,-0.05063619464635849,0.08423726260662079,9.800687789916992,0.0004,0.0,0.0,0.0,0.0004,0.0,0.0,0.0,0.0004
2025/05/07 10:24:11.898082988,1746606251,897738055,mti/imu_base_body,0.5809039971365089,0.8139407318201848,0.0005482981959364446,-0.007122539149567555,0.017453292519943295,0.0,0.0,0.0,0.017453292519943295,0.0,0.0,0.0,0.15707963267948966,0.02315681055188179,-0.005612668115645647,0.03671519458293915,0.0004363323129985824,0.0,0.0,0.0,0.0004363323129985824,0.0,0.0,0.0,0.0004363323129985824,-0.03690362349152565,0.10065189749002457,9.811232566833496,0.0004,0.0,0.0,0.0,0.0004,0.0,0.0,0.0,0.0004
2025/05/07 10:24:11.948282635,1746606251,947913291,mti/imu_base_body,0.581057629697977,0.8138311865481755,0.00046229168813360965,-0.007114566589196583,0.017453292519943295,0.0,0.0,0.0,0.017453292519943295,0.0,0.0,0.0,0.15707963267948966,0.023585673421621323,-0.005438182968646288,0.027793558314442635,0.0004363323129985824,0.0,0.0,0.0,0.0004363323129985824,0.0,0.0,0.0,0.0004363323129985824,-0.040973201394081116,0.09370577335357666,9.817962646484375,0.0004,0.0,0.0,0.0,0.0004,0.0,0.0,0.0,0.0004
2025/05/07 10:24:11.998141916,1746606251,997761938,mti/imu_base_body,0.5811982337703164,0.8137307786610367,0.0003965790136148668,-0.007118682957766484,0.017453292519943295,0.0,0.0,0.0,0.017453292519943295,0.0,0.0,0.0,0.15707963267948966,0.02106275036931038,-0.0027594820130616426,0.031142693012952805,0.0004363323129985824,0.0,0.0,0.0,0.0004363323129985824,0.0,0.0,0.0,0.0004363323129985824,-0.04477113112807274,0.09684376418590546,9.801279067993164,0.0004,0.0,0.0,0.0,0.0004,0.0,0.0,0.0,0.0004
2025/05/07 10:24:12.48196085,1746606252,47778905,mti/imu_base_body,0.581311433532924,0.8136501706205009,0.00031687302269554863,-0.007093425449941751,0.017453292519943295,0.0,0.0,0.0,0.017453292519943295,0.0,0.0,0.0,0.15707963267948966,0.018794573843479156,-0.011183088645339012,0.033036526292562485,0.0004363323129985824,0.0,0.0,0.0,0.0004363323129985824,0.0,0.0,0.0,0.0004363323129985824,-0.04489416256546974,0.09859516471624374,9.812445640563965,0.0004,0.0,0.0,0.0,0.0004,0.0,0.0,0.0,0.0004
2025/05/07 10:24:12.98195769,1746606252,97829694,mti/imu_base_body,0.5814535889958989,0.8135486481850178,0.00024436545123777964,-0.0070895109594790815,0.017453292519943295,0.0,0.0,0.0,0.017453292519943295,0.0,0.0,0.0,0.15707963267948966,0.021011993288993835,-0.005668821278959513,0.028942283242940903,0.0004363323129985824,0.0,0.0,0.0,0.0004363323129985824,0.0,0.0,0.0,0.0004363323129985824,-0.04205193743109703,0.09503014385700226,9.806321144104004,0.0004,0.0,0.0,0.0,0.0004,0.0,0.0,0.0,0.0004
2025/05/07 10:24:12.148285113,1746606252,147930348,mti/imu_base_body,0.5815851620056178,0.8134547625540007,0.00019922396078756767,-0.007071698729921383,0.017453292519943295,0.0,0.0,0.0,0.017453292519943295,0.0,0.0,0.0,0.15707963267948966,0.011530530638992786,-0.0017935114447027445,0.025234002619981766,0.0004363323129985824,0.0,0.0,0.0,0.0004363323129985824,0.0,0.0,0.0,0.0004363323129985824,-0.0443890318274498,0.09563535451889038,9.828289985656738,0.0004,0.0,0.0,0.0,0.0004,0.0,0.0,0.0,0.0004
2025/05/07 10:24:12.198110262,1746606252,197771542,mti/imu_base_body,0.5816912128612017,0.8133789679265679,0.00011557426206827877,-0.007069233152540402,0.017453292519943295,0.0,0.0,0.0,0.017453292519943295,0.0,0.0,0.0,0.15707963267948966,0.027308622375130653,-0.007070458494126797,0.023988304659724236,0.0004363323129985824,0.0,0.0,0.0,0.0004363323129985824,0.0,0.0,0.0,0.0004363323129985824,-0.018823273479938507,0.0892166718840599,9.836180686950684,0.0004,0.0,0.0,0.0,0.0004,0.0,0.0,0.0,0.0004
2025/05/07 10:24:12.248028546,1746606252,247754175,mti/imu_base_body,0.5817868677405826,0.8133108872047858,5.846366684584409e-05,-0.007031206209852529,0.017453292519943295,0.0,0.0,0.0,0.017453292519943295,0.0,0.0,0.0,0.15707963267948966,0.010773325338959694,-0.009108230471611023,0.022185342386364937,0.0004363323129985824,0.0,0.0,0.0,0.0004363323129985824,0.0,0.0,0.0,0.0004363323129985824,-0.03916434571146965,0.10616309940814972,9.79743480682373,0.0004,0.0,0.0,0.0,0.0004,0.0,0.0,0.0,0.0004
2025/05/07 10:24:12.298288310,1746606252,297846859,mti/imu_base_body,0.581913374047597,0.8132206116758691,3.5335158506274566e-05,-0.007004327340521007,0.017453292519943295,0.0,0.0,0.0,0.017453292519943295,0.0,0.0,0.0,0.15707963267948966,0.012051153928041458,-0.0025613869074732065,0.03155290335416794,0.0004363323129985824,0.0,0.0,0.0,0.0004363323129985824,0.0,0.0,0.0,0.0004363323129985824,-0.037026625126600266,0.09909280389547348,9.797796249389648,0.0004,0.0,0.0,0.0,0.0004,0.0,0.0,0.0,0.0004
2025/05/07 10:24:12.348243111,1746606252,347866980,mti/imu_base_body,0.5820078524355202,0.813153012725489,-2.293913899840917e-05,-0.007002647545749759,0.017453292519943295,0.0,0.0,0.0,0.017453292519943295,0.0,0.0,0.0,0.15707963267948966,0.024517986923456192,-0.004313498269766569,0.01874382607638836,0.0004363323129985824,0.0,0.0,0.0,0.0004363323129985824,0.0,0.0,0.0,0.0004363323129985824,-0.02901296317577362,0.10657595843076706,9.818306922912598,0.0004,0.0,0.0,0.0,0.0004,0.0,0.0,0.0,0.0004
2025/05/07 10:24:12.398375794,1746606252,397928200,mti/imu_base_body,0.5821193202803663,0.8130736041355837,-6.998453518498437e-05,-0.006957464801291794,0.017453292519943295,0.0,0.0,0.0,0.017453292519943295,0.0,0.0,0.0,0.15707963267948966,0.003785950830206275,-0.011146679520606995,0.023768367245793343,0.0004363323129985824,0.0,0.0,0.0,0.0004363323129985824,0.0,0.0,0.0,0.0004363323129985824,-0.01806340552866459,0.10543511062860489,9.808579444885254,0.0004,0.0,0.0,0.0,0.0004,0.0,0.0,0.0,0.0004
2025/05/07 10:24:12.448241776,1746606252,447935411,mti/imu_base_body,0.5822654954559721,0.8129692147279353,-0.00012071042863329292,-0.006923448205047316,0.017453292519943295,0.0,0.0,0.0,0.017453292519943295,0.0,0.0,0.0,0.15707963267948966,0.02076735720038414,-0.005731334909796715,0.03535192087292671,0.0004363323129985824,0.0,0.0,0.0,0.0004363323129985824,0.0,0.0,0.0,0.0004363323129985824,-0.017973970621824265,0.08734337240457535,9.804372787475586,0.0004,0.0,0.0,0.0,0.0004,0.0,0.0,0.0,0.0004
2025/05/07 10:24:12.498382867,1746606252,497963721,mti/imu_base_body,0.5824391679460679,0.8128450659350897,-0.00018202586970837015,-0.006890667155972202,0.017453292519943295,0.0,0.0,0.0,0.017453292519943295,0.0,0.0,0.0,0.15707963267948966,0.011241133324801922,-0.005535740405321121,0.039484065026044846,0.0004363323129985824,0.0,0.0,0.0,0.0004363323129985824,0.0,0.0,0.0,0.0004363323129985824,-0.03888293355703354,0.09724441170692444,9.819644927978516,0.0004,0.0,0.0,0.0,0.0004,0.0,0.0,0.0,0.0004
2025/05/07 10:24:12.548093549,1746606252,547730542,mti/imu_base_body,0.5825533872807045,0.8127633649993402,-0.00023628866641637247,-0.006870782371224222,0.017453292519943295,0.0,0.0,0.0,0.017453292519943295,0.0,0.0,0.0,0.15707963267948966,0.02026534080505371,-0.004255522508174181,0.023110581561923027,0.0004363323129985824,0.0,0.0,0.0,0.0004363323129985824,0.0,0.0,0.0,0.0004363323129985824,-0.031416215002536774,0.09725095331668854,9.832234382629395,0.0004,0.0,0.0,0.0,0.0004,0.0,0.0,0.0,0.0004
2025/05/07 10:24:12.598095174,1746606252,597746189,mti/imu_base_body,0.5826855569890116,0.8126684792848978,-0.0002777808370428318,-0.006885295272050187,0.017453292519943295,0.0,0.0,0.0,0.017453292519943295,0.0,0.0,0.0,0.15707963267948966,0.019212227314710617,-0.0004250207857694477,0.030366837978363037,0.0004363323129985824,0.0,0.0,0.0,0.0004363323129985824,0.0,0.0,0.0,0.0004363323129985824,-0.009988399222493172,0.10165610909461975,9.826935768127441,0.0004,0.0,0.0,0.0,0.0004,0.0,0.0,0.0,0.0004
2025/05/07 10:24:12.650320473,1746606252,649029205,mti/imu_base_body,0.5828159931017975,0.8125748641176342,-0.000363247499537896,-0.006890314958509956,0.017453292519943295,0.0,0.0,0.0,0.017453292519943295,0.0,0.0,0.0,0.15707963267948966,0.023199308663606644,-0.007969610393047333,0.030754731968045235,0.0004363323129985824,0.0,0.0,0.0,0.0004363323129985824,0.0,0.0,0.0,0.0004363323129985824,-0.033957526087760925,0.09716632217168808,9.803311347961426,0.0004,0.0,0.0,0.0,0.0004,0.0,0.0,0.0,0.0004
2025/05/07 10:24:12.698426304,1746606252,697786126,mti/imu_base_body,0.5829520404179015,0.8124776872419645,-0.000444069773807751,-0.006835869263656093,0.017453292519943295,0.0,0.0,0.0,0.017453292519943295,0.0,0.0,0.0,0.15707963267948966,0.016914119943976402,-0.01189352571964264,0.027026625350117683,0.0004363323129985824,0.0,0.0,0.0,0.0004363323129985824,0.0,0.0,0.0,0.0004363323129985824,-0.03911260515451431,0.09869926422834396,9.807394027709961,0.0004,0.0,0.0,0.0,0.0004,0.0,0.0,0.0,0.0004
2025/05/07 10:24:12.748081984,1746606252,747739410,mti/imu_base_body,0.58305499069697,0.8124038923101795,-0.0004906873967895718,-0.006822961857228428,0.017453292519943295,0.0,0.0,0.0,0.017453292519943295,0.0,0.0,0.0,0.15707963267948966,0.0121920770034194,0.0002148613566532731,0.026745952665805817,0.0004363323129985824,0.0,0.0,0.0,0.0004363323129985824,0.0,0.0,0.0,0.0004363323129985824,-0.026408696547150612,0.088192880153656,9.838953971862793,0.0004,0.0,0.0,0.0,0.0004,0.0,0.0,0.0,0.0004
2025/05/07 10:24:12.798136259,1746606252,797775293,mti/imu_base_body,0.583186140974638,0.8123095772841082,-0.0005209124204335999,-0.006841365205380156,0.017453292519943295,0.0,0.0,0.0,0.017453292519943295,0.0,0.0,0.0,0.15707963267948966,0.020787376910448074,0.0019143495010212064,0.02680925279855728,0.0004363323129985824,0.0,0.0,0.0,0.0004363323129985824,0.0,0.0,0.0,0.0004363323129985824,-0.02514547109603882,0.10299766063690186,9.82154655456543,0.0004,0.0,0.0,0.0,0.0004,0.0,0.0,0.0,0.0004
2025/05/07 10:24:12.848232110,1746606252,847840304,mti/imu_base_body,0.5832927214209664,0.8122328048378258,-0.0005745818494373423,-0.006865984146471835,0.017453292519943295,0.0,0.0,0.0,0.017453292519943295,0.0,0.0,0.0,0.15707963267948966,0.019700439646840096,-0.0029105853755027056,0.027862899005413055,0.0004363323129985824,0.0,0.0,0.0,0.0004363323129985824,0.0,0.0,0.0,0.0004363323129985824,-0.043710801750421524,0.09839075058698654,9.831049919128418,0.0004,0.0,0.0,0.0,0.0004,0.0,0.0,0.0,0.0004
2025/05/07 10:24:12.901585025,1746606252,898048834,mti/imu_base_body,0.5834270966699163,0.8121364086704935,-0.0006372461755008198,-0.006846203357845603,0.017453292519943295,0.0,0.0,0.0,0.017453292519943295,0.0,0.0,0.0,0.15707963267948966,0.01994924433529377,-0.0028289537876844406,0.027812382206320763,0.0004363323129985824,0.0,0.0,0.0,0.0004363323129985824,0.0,0.0,0.0,0.0004363323129985824,-0.04196285083889961,0.0842629000544548,9.835128784179688,0.0004,0.0,0.0,0.0,0.0004,0.0,0.0,0.0,0.0004
2025/05/07 10:24:12.948457042,1746606252,948017808,mti/imu_base_body,0.5835616477237553,0.8120396766646181,-0.000695150246435277,-0.006847159593068362,0.017453292519943295,0.0,0.0,0.0,0.017453292519943295,0.0,0.0,0.0,0.15707963267948966,0.021883133798837662,-0.004030803684145212,0.02889380045235157,0.0004363323129985824,0.0,0.0,0.0,0.0004363323129985824,0.0,0.0,0.0,0.0004363323129985824,-0.02846384234726429,0.08937068283557892,9.834497451782227,0.0004,0.0,0.0,0.0,0.0004,0.0,0.0,0.0,0.0004
2025/05/07 10:24:12.998471886,1746606252,998076188,mti/imu_base_body,0.5836654632096869,0.8119649279491716,-0.0007770133705816092,-0.006854129189038615,0.017453292519943295,0.0,0.0,0.0,0.017453292519943295,0.0,0.0,0.0,0.15707963267948966,0.018348846584558487,-0.007600271608680487,0.022938121110200882,0.0004363323129985824,0.0,0.0,0.0,0.0004363323129985824,0.0,0.0,0.0,0.0004363323129985824,-0.03082008846104145,0.08100789040327072,9.835447311401367,0.0004,0.0,0.0,0.0,0.0004,0.0,0.0,0.0,0.0004
2025/05/07 10:24:13.48279113,1746606253,47987086,mti/imu_base_body,0.5837827994187,0.8118804026876506,-0.0008484665820664445,-0.006865488989376212,0.017453292519943295,0.0,0.0,0.0,0.017453292519943295,0.0,0.0,0.0,0.15707963267948966,0.02162851206958294,-0.0017829957650974393,0.02942730486392975,0.0004363323129985824,0.0,0.0,0.0,0.0004363323129985824,0.0,0.0,0.0,0.0004363323129985824,-0.03970325365662575,0.08785942941904068,9.832942962646484,0.0004,0.0,0.0,0.0,0.0004,0.0,0.0,0.0,0.0004
2025/05/07 10:24:13.98205678,1746606253,97828338,mti/imu_base_body,0.5839261277514242,0.8117769972233758,-0.0009126872794727329,-0.006895731299622658,0.017453292519943295,0.0,0.0,0.0,0.017453292519943295,0.0,0.0,0.0,0.15707963267948966,0.02647963911294937,0.0026113034691661596,0.03097173571586609,0.0004363323129985824,0.0,0.0,0.0,0.0004363323129985824,0.0,0.0,0.0,0.0004363323129985824,-0.03171855956315994,0.0987195298075676,9.816959381103516,0.0004,0.0,0.0,0.0,0.0004,0.0,0.0,0.0,0.0004
