time,header_stamp_secs,header_stamp_nsecs,header_frame_id,orientation_x,orientation_y,orientation_z,orientation_w,orientation_covariance_0,orientation_covariance_1,orientation_covariance_2,orientation_covariance_3,orientation_covariance_4,orientation_covariance_5,orientation_covariance_6,orientation_covariance_7,orientation_covariance_8,angular_velocity_x,angular_velocity_y,angular_velocity_z,angular_velocity_covariance_0,angular_velocity_covariance_1,angular_velocity_covariance_2,angular_velocity_covariance_3,angular_velocity_covariance_4,angular_velocity_covariance_5,angular_velocity_covariance_6,angular_velocity_covariance_7,angular_velocity_covariance_8,linear_acceleration_x,linear_acceleration_y,linear_acceleration_z,linear_acceleration_covariance_0,linear_acceleration_covariance_1,linear_acceleration_covariance_2,linear_acceleration_covariance_3,linear_acceleration_covariance_4,linear_acceleration_covariance_5,linear_acceleration_covariance_6,linear_acceleration_covariance_7,linear_acceleration_covariance_8
2025/05/20 13:26:45.217480417,1747740405,117995219,mA1/imu,0.986746628582021,-0.16226796360164292,0.0003578620939243878,0.0002662805155439218,0.0,0.0,0.0,0.0,0.0,0.0,0.0,0.0,0.0,0.002328481070271344,-0.010495439546882868,-0.00013065467786014425,0.0,0.0,0.0,0.0,0.0,0.0,0.0,0.0,0.0,0.011422787418500339,0.6282317558081643,9.815811037112873,0.0,0.0,0.0,0.0,0.0,0.0,0.0,0.0,0.0
2025/05/20 13:26:45.217652147,1747740405,169813236,mA1/imu,0.9867472303219939,-0.16226478776525038,8.081161173141133e-05,0.000188607676583372,0.0,0.0,0.0,0.0,0.0,0.0,0.0,0.0,0.0,0.0014104210789116273,-0.011981346545326019,-0.00013118842610622343,0.0,0.0,0.0,0.0,0.0,0.0,0.0,0.0,0.0,0.010566831885452026,0.010362240924054791,9.815125150304043,0.0,0.0,0.0,0.0,0.0,0.0,0.0,0.0,0.0
2025/05/20 13:26:45.217759878,1747740405,212767605,mA1/imu,0.9867477382093205,-0.16226161422962293,-0.0002267883101659518,0.00013510532900722584,0.0,0.0,0.0,0.0,0.0,0.0,0.0,0.0,0.0,0.000466258521798386,-0.012732132249079374,-0.00012974350990840473,0.0,0.0,0.0,0.0,0.0,0.0,0.0,0.0,0.0,0.005267347498626922,-0.6063466973015963,9.812071885250047,0.0,0.0,0.0,0.0,0.0,0.0,0.0,0.0,0.0
2025/05/20 13:26:45.264212585,1747740405,263456439,mA1/imu,0.9867481335753097,-0.1622584871768654,-0.0005436141427011521,9.331871013256393e-05,0.0,0.0,0.0,0.0,0.0,0.0,0.0,0.0,0.0,6.929674844644578e-05,-0.012720064094151684,-0.00012633320247710015,0.0,0.0,0.0,0.0,0.0,0.0,0.0,0.0,0.0,0.004495621961724278,-0.5574825524937695,9.811463221899956,0.0,0.0,0.0,0.0,0.0,0.0,0.0,0.0,0.0
2025/05/20 13:26:45.315968476,1747740405,315761725,mA1/imu,0.9867484144147545,-0.1622554358151674,-0.0008551307955239493,9.460296338035203e-05,0.0,0.0,0.0,0.0,0.0,0.0,0.0,0.0,0.0,-0.003310062544407607,-0.011915126161315976,-0.00012105502375165238,0.0,0.0,0.0,0.0,0.0,0.0,0.0,0.0,0.0,-0.00034851656102903583,0.545701127622855,9.811997481478402,0.0,0.0,0.0,0.0,0.0,0.0,0.0,0.0,0.0
2025/05/20 13:26:45.366755424,1747740405,365584261,mA1/imu,0.9867486045493955,-0.16225251608216154,-0.0011396878417248707,0.00011643217751914028,0.0,0.0,0.0,0.0,0.0,0.0,0.0,0.0,0.0,-0.002412122171145307,-0.010454265835608541,-0.00011372917576186278,0.0,0.0,0.0,0.0,0.0,0.0,0.0,0.0,0.0,-0.0013205520428095432,-0.5831541649929325,9.808072150938187,0.0,0.0,0.0,0.0,0.0,0.0,0.0,0.0,0.0
2025/05/20 13:26:45.417244466,1747740405,416589120,mA1/imu,0.9867487420181471,-0.16224975003856695,-0.0013822093680491434,0.00016803359670869298,0.0,0.0,0.0,0.0,0.0,0.0,0.0,0.0,0.0,-0.003571564170379188,-0.008364363606189456,-0.00010542553783796247,0.0,0.0,0.0,0.0,0.0,0.0,0.0,0.0,0.0,-0.003878591334329131,0.021799729256691033,9.808494985013372,0.0,0.0,0.0,0.0,0.0,0.0,0.0,0.0,0.0
2025/05/20 13:26:45.466897118,1747740405,466578298,mA1/imu,0.9867488692391506,-0.16224714913428512,-0.0015708264403543988,0.0002532930093008966,0.0,0.0,0.0,0.0,0.0,0.0,0.0,0.0,0.0,-0.0038702580108964024,-0.005863940768264888,-9.646283980590117e-05,0.0,0.0,0.0,0.0,0.0,0.0,0.0,0.0,0.0,-0.003143479227891762,0.04143790753038062,9.806673997805866,0.0,0.0,0.0,0.0,0.0,0.0,0.0,0.0,0.0
2025/05/20 13:26:45.520222596,1747740405,519710586,mA1/imu,0.9867490341073785,-0.1622447280270925,-0.0016932027133596084,0.00035352530582705437,0.0,0.0,0.0,0.0,0.0,0.0,0.0,0.0,0.0,-0.0044867125780929645,-0.0030334136522998717,-8.831575986480038e-05,0.0,0.0,0.0,0.0,0.0,0.0,0.0,0.0,0.0,-0.0038563467689748526,0.11518908957667467,9.804400765479702,0.0,0.0,0.0,0.0,0.0,0.0,0.0,0.0,0.0
2025/05/20 13:26:45.560780619,1747740405,560439220,mA1/imu,0.9867492624959888,-0.1622424340922376,-0.0017468593914646492,0.0004837620434814304,0.0,0.0,0.0,0.0,0.0,0.0,0.0,0.0,0.0,-0.006216520306438415,-8.736380697131655e-05,-8.120994037466544e-05,0.0,0.0,0.0,0.0,0.0,0.0,0.0,0.0,0.0,-0.0028142124770656196,0.5518148900942601,9.806051396102664,0.0,0.0,0.0,0.0,0.0,0.0,0.0,0.0,0.0
2025/05/20 13:26:45.615135722,1747740405,614771416,mA1/imu,0.9867495732821399,-0.16224026518669715,-0.0017282780660980684,0.000623726375312855,0.0,0.0,0.0,0.0,0.0,0.0,0.0,0.0,0.0,-0.006035726669503039,0.002787000874109331,-7.520381208348441e-05,0.0,0.0,0.0,0.0,0.0,0.0,0.0,0.0,0.0,-0.0010201933276640235,0.5609204923713619,9.806340787157037,0.0,0.0,0.0,0.0,0.0,0.0,0.0,0.0,0.0
2025/05/20 13:26:45.672995818,1747740405,668375952,mA1/imu,0.9867499693492308,-0.162238196808725,-0.001638858432737166,0.0007613334243158324,0.0,0.0,0.0,0.0,0.0,0.0,0.0,0.0,0.0,-0.005761359778488545,0.005480885546995514,-7.070872556649626e-05,0.0,0.0,0.0,0.0,0.0,0.0,0.0,0.0,0.0,9.30465597160264e-05,0.5588437736101928,9.803355588022443,0.0,0.0,0.0,0.0,0.0,0.0,0.0,0.0,0.0
2025/05/20 13:26:45.720022765,1747740405,719758410,mA1/imu,0.9867504164156476,-0.16223616327094517,-0.001489028788589392,0.0009087485548453016,0.0,0.0,0.0,0.0,0.0,0.0,0.0,0.0,0.0,-0.004642520125402512,0.007740277177568504,-6.782950222776086e-05,0.0,0.0,0.0,0.0,0.0,0.0,0.0,0.0,0.0,0.003799966362412553,-0.029675904049383132,9.804621821757154,0.0,0.0,0.0,0.0,0.0,0.0,0.0,0.0,0.0
2025/05/20 13:26:45.771303302,1747740405,769834342,mA1/imu,0.9867508959655314,-0.1622341576551741,-0.0012868759561140489,0.0010446776587461847,0.0,0.0,0.0,0.0,0.0,0.0,0.0,0.0,0.0,-0.004077712249568513,0.009535431868677408,-6.633066846006379e-05,0.0,0.0,0.0,0.0,0.0,0.0,0.0,0.0,0.0,0.0047285750634694194,-0.026016754781030264,9.805496533634138,0.0,0.0,0.0,0.0,0.0,0.0,0.0,0.0,0.0
2025/05/20 13:26:45.812226428,1747740405,811641633,mA1/imu,0.9867513793189212,-0.16223215160222998,-0.0010451870763503585,0.0011627479060496238,0.0,0.0,0.0,0.0,0.0,0.0,0.0,0.0,0.0,-0.0024396788709105345,0.010740299554898513,-6.608222554414501e-05,0.0,0.0,0.0,0.0,0.0,0.0,0.0,0.0,0.0,0.008509059303261762,-0.2809766088308045,9.807380988701771,0.0,0.0,0.0,0.0,0.0,0.0,0.0,0.0,0.0
2025/05/20 13:26:45.861744260,1747740405,861554889,mA1/imu,0.9867518328732937,-0.16223012495967154,-0.0007797018900342845,0.0012644926759275664,0.0,0.0,0.0,0.0,0.0,0.0,0.0,0.0,0.0,-0.0019250916564981686,0.011319692770267875,-6.649293250544598e-05,0.0,0.0,0.0,0.0,0.0,0.0,0.0,0.0,0.0,0.010198368727185199,-0.022026690806754092,9.807703888719285,0.0,0.0,0.0,0.0,0.0,0.0,0.0,0.0,0.0
2025/05/20 13:26:45.913972039,1747740405,913587130,mA1/imu,0.9867522470938975,-0.16222808118602827,-0.0005056372111856853,0.0013404703852481397,0.0,0.0,0.0,0.0,0.0,0.0,0.0,0.0,0.0,-0.00024973841851217245,0.01121670492672645,-6.753900522802242e-05,0.0,0.0,0.0,0.0,0.0,0.0,0.0,0.0,0.0,0.013686739427560404,-0.34175417269031716,9.809257561025943,0.0,0.0,0.0,0.0,0.0,0.0,0.0,0.0,0.0
2025/05/20 13:26:45.963661137,1747740405,963420563,mA1/imu,0.9867526132869752,-0.16222602262206168,-0.00023995222279374405,0.0013929028977861118,0.0,0.0,0.0,0.0,0.0,0.0,0.0,0.0,0.0,0.0006904646765816714,0.010456179119857318,-6.893439956727953e-05,0.0,0.0,0.0,0.0,0.0,0.0,0.0,0.0,0.0,0.015995986002203703,-0.626672714527543,9.8105571120296,0.0,0.0,0.0,0.0,0.0,0.0,0.0,0.0,0.0
2025/05/20 13:26:46.15040085,1747740406,14758265,mA1/imu,0.9867529673963543,-0.16222396649754545,4.354068136444979e-06,0.0014021445484634907,0.0,0.0,0.0,0.0,0.0,0.0,0.0,0.0,0.0,0.0010252766432546454,0.009107374456526185,-7.063029683816873e-05,0.0,0.0,0.0,0.0,0.0,0.0,0.0,0.0,0.0,0.01930609929206194,-0.4556499823069948,9.813368126620972,0.0,0.0,0.0,0.0,0.0,0.0,0.0,0.0,0.0
2025/05/20 13:26:46.65140980,1747740406,64779327,mA1/imu,0.9867533087183842,-0.1622219213237948,0.00021026741442925332,0.001382665162760348,0.0,0.0,0.0,0.0,0.0,0.0,0.0,0.0,0.0,0.0023522045170800664,0.007218905220598515,-7.194965365639474e-05,0.0,0.0,0.0,0.0,0.0,0.0,0.0,0.0,0.0,0.01752165362361649,-0.33743017966479244,9.813173483474424,0.0,0.0,0.0,0.0,0.0,0.0,0.0,0.0,0.0
2025/05/20 13:26:46.117209380,1747740406,116533398,mA1/imu,0.9867536739887921,-0.16221989950137297,0.0003681397939950013,0.0013249711231674297,0.0,0.0,0.0,0.0,0.0,0.0,0.0,0.0,0.0,0.004892642554787522,0.004907236804575859,-7.357624617653199e-05,0.0,0.0,0.0,0.0,0.0,0.0,0.0,0.0,0.0,0.019511450066206578,-0.5412306521004664,9.813976889711054,0.0,0.0,0.0,0.0,0.0,0.0,0.0,0.0,0.0
2025/05/20 13:26:46.167224425,1747740406,166559775,mA1/imu,0.9867540522371288,-0.16221790850651704,0.00046581182262347975,0.0012544212701884028,0.0,0.0,0.0,0.0,0.0,0.0,0.0,0.0,0.0,0.004312769164765892,0.002362431903296884,-7.56566431667996e-05,0.0,0.0,0.0,0.0,0.0,0.0,0.0,0.0,0.0,0.019270661274052664,-0.291890821001318,9.813257104199787,0.0,0.0,0.0,0.0,0.0,0.0,0.0,0.0,0.0
2025/05/20 13:26:46.218482867,1747740406,217545562,mA1/imu,0.9867544933955904,-0.16221592632401358,0.0005040161474015343,0.0011441058417175068,0.0,0.0,0.0,0.0,0.0,0.0,0.0,0.0,0.0,0.005791334488041416,-0.0002594412212767434,-7.810889877111225e-05,0.0,0.0,0.0,0.0,0.0,0.0,0.0,0.0,0.0,0.017992818254957445,-0.5672800181533646,9.81408590396184,0.0,0.0,0.0,0.0,0.0,0.0,0.0,0.0,0.0
2025/05/20 13:26:46.267679998,1747740406,267319022,mA1/imu,0.9867549701576813,-0.16221394685448579,0.0004793954416448272,0.0010171012800775496,0.0,0.0,0.0,0.0,0.0,0.0,0.0,0.0,0.0,0.005162246573677814,-0.002805403652943071,-8.083512060082358e-05,0.0,0.0,0.0,0.0,0.0,0.0,0.0,0.0,0.0,0.017116704815461035,-0.5392407046657193,9.815525710216878,0.0,0.0,0.0,0.0,0.0,0.0,0.0,0.0,0.0
2025/05/20 13:26:46.319101697,1747740406,318391569,mA1/imu,0.9867554740575376,-0.1622119523973729,0.00039602501306082666,0.0008718263046797635,0.0,0.0,0.0,0.0,0.0,0.0,0.0,0.0,0.0,0.005752754546934269,-0.005147570798173628,-8.367684702860783e-05,0.0,0.0,0.0,0.0,0.0,0.0,0.0,0.0,0.0,0.014624122119531395,-0.26952765469901185,9.815649154592593,0.0,0.0,0.0,0.0,0.0,0.0,0.0,0.0,0.0
2025/05/20 13:26:46.368495006,1747740406,368128052,mA1/imu,0.9867559658596894,-0.1622099343822918,0.00025747567173999356,0.0007312552789313002,0.0,0.0,0.0,0.0,0.0,0.0,0.0,0.0,0.0,0.0049041169856198046,-0.007160576297380291,-8.631450145758927e-05,0.0,0.0,0.0,0.0,0.0,0.0,0.0,0.0,0.0,0.013793811914146307,-0.6509940653791101,9.813057858352566,0.0,0.0,0.0,0.0,0.0,0.0,0.0,0.0,0.0
2025/05/20 13:26:46.420097311,1747740406,419852240,mA1/imu,0.9867564376238996,-0.16220788090188076,7.791115024005435e-05,0.0005745528389888019,0.0,0.0,0.0,0.0,0.0,0.0,0.0,0.0,0.0,0.00418092433972543,-0.008662876727646537,-8.835292449567686e-05,0.0,0.0,0.0,0.0,0.0,0.0,0.0,0.0,0.0,0.009927730139536496,-0.04947930938930363,9.812805350308327,0.0,0.0,0.0,0.0,0.0,0.0,0.0,0.0,0.0
2025/05/20 13:26:46.469951560,1747740406,469626902,mA1/imu,0.9867568484625805,-0.162205803702772,-0.00013352704596885704,0.00042594349592693474,0.0,0.0,0.0,0.0,0.0,0.0,0.0,0.0,0.0,0.003460641670732262,-0.009650634169592012,-8.946589420282618e-05,0.0,0.0,0.0,0.0,0.0,0.0,0.0,0.0,0.0,0.008543572214743424,0.570937906774125,9.813201578910247,0.0,0.0,0.0,0.0,0.0,0.0,0.0,0.0,0.0
2025/05/20 13:26:46.511369892,1747740406,511055013,mA1/imu,0.9867571820707116,-0.1622037150827674,-0.00036357580024320567,0.0002936968752356267,0.0,0.0,0.0,0.0,0.0,0.0,0.0,0.0,0.0,0.0028852966527900237,-0.010038839934333367,-8.917386863306963e-05,0.0,0.0,0.0,0.0,0.0,0.0,0.0,0.0,0.0,0.0046960133250571225,0.5821144512400002,9.811801011108138,0.0,0.0,0.0,0.0,0.0,0.0,0.0,0.0,0.0
2025/05/20 13:26:46.561312002,1747740406,560905894,mA1/imu,0.9867574357790484,-0.16220163668428347,-0.0005983387887261883,0.0001843431336157428,0.0,0.0,0.0,0.0,0.0,0.0,0.0,0.0,0.0,0.0029689962775229554,-0.009853436980329158,-8.722094873100922e-05,0.0,0.0,0.0,0.0,0.0,0.0,0.0,0.0,0.0,0.003963985330470182,0.019874471664026134,9.80811037385573,0.0,0.0,0.0,0.0,0.0,0.0,0.0,0.0,0.0
2025/05/20 13:26:46.612540950,1747740406,612289916,mA1/imu,0.9867576203177144,-0.16219959544838117,-0.0008240618688732296,0.00010441905568071573,0.0,0.0,0.0,0.0,0.0,0.0,0.0,0.0,0.0,0.0016250427269959846,-0.009075140172578697,-8.386400135966932e-05,0.0,0.0,0.0,0.0,0.0,0.0,0.0,0.0,0.0,0.0012883299271624349,-0.005219365416728161,9.806895533254872,0.0,0.0,0.0,0.0,0.0,0.0,0.0,0.0,0.0
2025/05/20 13:26:46.662370648,1747740406,662188047,mA1/imu,0.9867577582679928,-0.16219762934504206,-0.0010263042756262551,4.724730326046152e-05,0.0,0.0,0.0,0.0,0.0,0.0,0.0,0.0,0.0,0.0004889645945236063,-0.007809334767834735,-7.922462653680494e-05,0.0,0.0,0.0,0.0,0.0,0.0,0.0,0.0,0.0,0.0011031369799842268,-0.011461207224064749,9.80652774846315,0.0,0.0,0.0,0.0,0.0,0.0,0.0,0.0,0.0
2025/05/20 13:26:46.713541016,1747740406,713248832,mA1/imu,0.9867578766005562,-0.16219576147112308,-0.0011947618023853118,2.172094663346457e-05,0.0,0.0,0.0,0.0,0.0,0.0,0.0,0.0,0.0,-0.0001537465104901392,-0.006099411538092063,-7.342502196978803e-05,0.0,0.0,0.0,0.0,0.0,0.0,0.0,0.0,0.0,-0.001179109847544376,-0.17919214524260915,9.8048626368861,0.0,0.0,0.0,0.0,0.0,0.0,0.0,0.0,0.0
2025/05/20 13:26:46.763450707,1747740406,763167615,mA1/imu,0.9867580036444381,-0.1621940038669057,-0.0013213532491371002,3.713294950845005e-05,0.0,0.0,0.0,0.0,0.0,0.0,0.0,0.0,0.0,-0.0010507089276315614,-0.004072779270424573,-6.689184409934037e-05,0.0,0.0,0.0,0.0,0.0,0.0,0.0,0.0,0.0,-0.0006539607805587759,-0.6034071874317859,9.805260956419644,0.0,0.0,0.0,0.0,0.0,0.0,0.0,0.0,0.0
2025/05/20 13:26:46.814645895,1747740406,814209090,mA1/imu,0.9867581628343504,-0.16219238404238318,-0.0013972349061176102,7.983134049159224e-05,0.0,0.0,0.0,0.0,0.0,0.0,0.0,0.0,0.0,-0.0020685757450095415,-0.0018105856033402503,-6.00456464854286e-05,0.0,0.0,0.0,0.0,0.0,0.0,0.0,0.0,0.0,-0.0009285348412582418,-0.6071226041545894,9.805202998620032,0.0,0.0,0.0,0.0,0.0,0.0,0.0,0.0,0.0
2025/05/20 13:26:46.864234564,1747740406,864052614,mA1/imu,0.9867583666708832,-0.16219089037791953,-0.0014202131921270977,0.00015452481122167115,0.0,0.0,0.0,0.0,0.0,0.0,0.0,0.0,0.0,-0.004711774755799659,0.000512956434756168,-5.35977856156001e-05,0.0,0.0,0.0,0.0,0.0,0.0,0.0,0.0,0.0,-0.0002525911009606391,0.5269778980564048,9.805321336406317,0.0,0.0,0.0,0.0,0.0,0.0,0.0,0.0,0.0
2025/05/20 13:26:46.915310909,1747740406,915024003,mA1/imu,0.9867586167445365,-0.1621895148213461,-0.001389241208891075,0.0002521334738254539,0.0,0.0,0.0,0.0,0.0,0.0,0.0,0.0,0.0,-0.005349353075506854,0.002749330632766712,-4.800617794755921e-05,0.0,0.0,0.0,0.0,0.0,0.0,0.0,0.0,0.0,0.0015296806326690303,0.5295830549173857,9.805144741821692,0.0,0.0,0.0,0.0,0.0,0.0,0.0,0.0,0.0
2025/05/20 13:26:46.965164438,1747740406,964899713,mA1/imu,0.9867589008398449,-0.1621882367441944,-0.0013079287023768887,0.0003698616766100737,0.0,0.0,0.0,0.0,0.0,0.0,0.0,0.0,0.0,-0.004026753984754784,0.004772077947474632,-4.2990982095694746e-05,0.0,0.0,0.0,0.0,0.0,0.0,0.0,0.0,0.0,0.001997452153674424,0.6540454207918468,9.807258644447057,0.0,0.0,0.0,0.0,0.0,0.0,0.0,0.0,0.0
2025/05/20 13:26:47.16199124,1747740407,15873199,mA1/imu,0.9867591946604853,-0.1621870104579845,-0.001184091975780629,0.0005131450912488195,0.0,0.0,0.0,0.0,0.0,0.0,0.0,0.0,0.0,-0.002492342054230934,0.006455758537137929,-3.944464974462809e-05,0.0,0.0,0.0,0.0,0.0,0.0,0.0,0.0,0.0,0.004199883028055518,-0.47586703927759727,9.80578888127745,0.0,0.0,0.0,0.0,0.0,0.0,0.0,0.0,0.0
2025/05/20 13:26:47.66006473,1747740407,65722550,mA1/imu,0.9867594711370193,-0.16218580866262197,-0.0010262335797188436,0.0006755993496415781,0.0,0.0,0.0,0.0,0.0,0.0,0.0,0.0,0.0,-0.00389007204600933,0.007743876473975488,-3.7383792942668934e-05,0.0,0.0,0.0,0.0,0.0,0.0,0.0,0.0,0.0,0.007224802895613343,-0.5765061022005022,9.806975528173666,0.0,0.0,0.0,0.0,0.0,0.0,0.0,0.0,0.0
2025/05/20 13:26:47.117277099,1747740407,116708169,mA1/imu,0.9867597193599233,-0.1621846226961929,-0.0008422271919656907,0.000833704369691398,0.0,0.0,0.0,0.0,0.0,0.0,0.0,0.0,0.0,-0.00485646282909401,0.008562809752081162,-3.698385584506907e-05,0.0,0.0,0.0,0.0,0.0,0.0,0.0,0.0,0.0,0.010303684277422377,-0.6528836468134551,9.809361244566647,0.0,0.0,0.0,0.0,0.0,0.0,0.0,0.0,0.0
2025/05/20 13:26:47.167322158,1747740407,166690425,mA1/imu,0.986759936860609,-0.16218342637133115,-0.0006426895180950019,0.0009747653487698414,0.0,0.0,0.0,0.0,0.0,0.0,0.0,0.0,0.0,-0.004708114119575742,0.008876554091713871,-3.773995609989577e-05,0.0,0.0,0.0,0.0,0.0,0.0,0.0,0.0,0.0,0.010438423494209363,-0.03923935460500858,9.80976739319295,0.0,0.0,0.0,0.0,0.0,0.0,0.0,0.0,0.0
2025/05/20 13:26:47.218175414,1747740407,217549110,mA1/imu,0.9867601120247417,-0.16218219233623113,-0.00044198418383741244,0.001105647282923444,0.0,0.0,0.0,0.0,0.0,0.0,0.0,0.0,0.0,-0.004551388695546325,0.008638856638188672,-3.927781408909988e-05,0.0,0.0,0.0,0.0,0.0,0.0,0.0,0.0,0.0,0.013824205811091946,0.5614243112233578,9.81254566811075,0.0,0.0,0.0,0.0,0.0,0.0,0.0,0.0,0.0
2025/05/20 13:26:47.267718048,1747740407,267396534,mA1/imu,0.9867602621769831,-0.16218092799296993,-0.0002507709546994317,0.0012118983781608272,0.0,0.0,0.0,0.0,0.0,0.0,0.0,0.0,0.0,-0.002383719902663337,0.007914851899330985,-4.108419891333643e-05,0.0,0.0,0.0,0.0,0.0,0.0,0.0,0.0,0.0,0.014064161146981502,0.6577959930831492,9.814452502309718,0.0,0.0,0.0,0.0,0.0,0.0,0.0,0.0,0.0
2025/05/20 13:26:47.320585424,1747740407,318959947,mA1/imu,0.9867603778680389,-0.1621796391977283,-8.355724562378582e-05,0.0013093195204104176,0.0,0.0,0.0,0.0,0.0,0.0,0.0,0.0,0.0,-4.9749225579138086e-05,0.006714234042677284,-4.314287599004653e-05,0.0,0.0,0.0,0.0,0.0,0.0,0.0,0.0,0.0,0.01556187314092197,-0.4976747174164621,9.812609904020835,0.0,0.0,0.0,0.0,0.0,0.0,0.0,0.0,0.0
2025/05/20 13:26:47.368990384,1747740407,368666429,mA1/imu,0.9867605008407886,-0.1621783409877488,5.2783532038673655e-05,0.0013772831213646846,0.0,0.0,0.0,0.0,0.0,0.0,0.0,0.0,0.0,-0.0008012165941883084,0.005173316415233415,-4.5893766329420984e-05,0.0,0.0,0.0,0.0,0.0,0.0,0.0,0.0,0.0,0.016523277525333342,0.006319308173748036,9.815616683789793,0.0,0.0,0.0,0.0,0.0,0.0,0.0,0.0,0.0
2025/05/20 13:26:47.420930868,1747740407,420677772,mA1/imu,0.9867606514756931,-0.1621770370390439,0.00015043663458424945,0.0014151767809277589,0.0,0.0,0.0,0.0,0.0,0.0,0.0,0.0,0.0,-0.001220610530243632,0.0033465105337890035,-4.8128617400191604e-05,0.0,0.0,0.0,0.0,0.0,0.0,0.0,0.0,0.0,0.01744953750413124,-0.09200434287170309,9.816317963942234,0.0,0.0,0.0,0.0,0.0,0.0,0.0,0.0,0.0
2025/05/20 13:26:47.460716856,1747740407,460447944,mA1/imu,0.9867608609243059,-0.16217573927094706,0.00020590098360846032,0.0014108666236097211,0.0,0.0,0.0,0.0,0.0,0.0,0.0,0.0,0.0,-0.00023155287775468737,0.0013664763613477427,-5.0291768588392105e-05,0.0,0.0,0.0,0.0,0.0,0.0,0.0,0.0,0.0,0.016118594513450994,-0.09070837039830199,9.814571668757104,0.0,0.0,0.0,0.0,0.0,0.0,0.0,0.0,0.0
2025/05/20 13:26:47.511774398,1747740407,511551533,mA1/imu,0.9867611312020418,-0.1621744479840459,0.00021635723098640066,0.0013680495187874144,0.0,0.0,0.0,0.0,0.0,0.0,0.0,0.0,0.0,0.0019784376405209336,-0.0006700023748625313,-5.255437947436911e-05,0.0,0.0,0.0,0.0,0.0,0.0,0.0,0.0,0.0,0.015483668820800009,-0.008148840607840005,9.814045247172553,0.0,0.0,0.0,0.0,0.0,0.0,0.0,0.0,0.0
2025/05/20 13:26:47.562120473,1747740407,561889312,mA1/imu,0.9867614397795138,-0.1621731652758678,0.000180084777770492,0.0013011526197551928,0.0,0.0,0.0,0.0,0.0,0.0,0.0,0.0,0.0,0.0028863686725983067,-0.0026365656968038395,-5.495521813833275e-05,0.0,0.0,0.0,0.0,0.0,0.0,0.0,0.0,0.0,0.014911049163082068,0.6209190423765479,9.81511751259737,0.0,0.0,0.0,0.0,0.0,0.0,0.0,0.0,0.0
2025/05/20 13:26:47.613213204,1747740407,612831637,mA1/imu,0.9867617735603542,-0.16217188638936567,0.00010082745740057797,0.0012129875360603357,0.0,0.0,0.0,0.0,0.0,0.0,0.0,0.0,0.0,0.0030363613192118735,-0.0043794325416549006,-5.693030151970364e-05,0.0,0.0,0.0,0.0,0.0,0.0,0.0,0.0,0.0,0.012870051339385765,-0.05107162337050718,9.813151334109886,0.0,0.0,0.0,0.0,0.0,0.0,0.0,0.0,0.0
2025/05/20 13:26:47.663175142,1747740407,662874958,mA1/imu,0.986762121104369,-0.16217060271506953,-1.4513587961446174e-05,0.001100798797964419,0.0,0.0,0.0,0.0,0.0,0.0,0.0,0.0,0.0,0.0038528052067531415,-0.005842802771778996,-5.8674156746763336e-05,0.0,0.0,0.0,0.0,0.0,0.0,0.0,0.0,0.0,0.011541658990269963,-0.6632171572150671,9.81212428748631,0.0,0.0,0.0,0.0,0.0,0.0,0.0,0.0,0.0
2025/05/20 13:26:47.716058669,1747740407,714284393,mA1/imu,0.9867624698446779,-0.1621693104794467,-0.00015622365254405732,0.000958352139053745,0.0,0.0,0.0,0.0,0.0,0.0,0.0,0.0,0.0,0.004896440549266122,-0.006909739240823602,-6.003800246314336e-05,0.0,0.0,0.0,0.0,0.0,0.0,0.0,0.0,0.0,0.008673262154138817,-0.32243842730083705,9.810656111020476,0.0,0.0,0.0,0.0,0.0,0.0,0.0,0.0,0.0
2025/05/20 13:26:47.764429794,1747740407,764166759,mA1/imu,0.9867627740021163,-0.16216800043943305,-0.0003188701864186657,0.0008159650290372055,0.0,0.0,0.0,0.0,0.0,0.0,0.0,0.0,0.0,0.0042753439017444135,-0.007566801148612868,-6.112226064812994e-05,0.0,0.0,0.0,0.0,0.0,0.0,0.0,0.0,0.0,0.007894944813975876,0.28825493658651147,9.809564017017308,0.0,0.0,0.0,0.0,0.0,0.0,0.0,0.0,0.0
2025/05/20 13:26:47.815823804,1747740407,815436729,mA1/imu,0.9867630343985044,-0.162166679175992,-0.000489724381954414,0.0006650411390797251,0.0,0.0,0.0,0.0,0.0,0.0,0.0,0.0,0.0,0.004876780516355639,-0.007758492896686441,-6.139475212310546e-05,0.0,0.0,0.0,0.0,0.0,0.0,0.0,0.0,0.0,0.004744984706434009,-0.006589355085486175,9.808405302690186,0.0,0.0,0.0,0.0,0.0,0.0,0.0,0.0,0.0
2025/05/20 13:26:47.865708231,1747740407,865389714,mA1/imu,0.9867632375100394,-0.16216534737216762,-0.0006605837189878404,0.0005261554142217592,0.0,0.0,0.0,0.0,0.0,0.0,0.0,0.0,0.0,0.004117961498588697,-0.007507040634533985,-6.0797549518312684e-05,0.0,0.0,0.0,0.0,0.0,0.0,0.0,0.0,0.0,0.004089338028056463,-0.16830923616688576,9.806618745199394,0.0,0.0,0.0,0.0,0.0,0.0,0.0,0.0,0.0
2025/05/20 13:26:47.913048145,1747740407,912829792,mA1/imu,0.9867633981661915,-0.16216402971938712,-0.0008188337883395767,0.0003911724774465558,0.0,0.0,0.0,0.0,0.0,0.0,0.0,0.0,0.0,0.003751967253222213,-0.006807885851254021,-5.913395546605201e-05,0.0,0.0,0.0,0.0,0.0,0.0,0.0,0.0,0.0,0.0021505803821701697,-0.038696465953020225,9.805465219257554,0.0,0.0,0.0,0.0,0.0,0.0,0.0,0.0,0.0
2025/05/20 13:26:47.963306448,1747740407,963047057,mA1/imu,0.9867635277156078,-0.16216274889994703,-0.0009550333138717861,0.00026674113099750286,0.0,0.0,0.0,0.0,0.0,0.0,0.0,0.0,0.0,0.0035031970062050803,-0.005720386800108519,-5.646428800944493e-05,0.0,0.0,0.0,0.0,0.0,0.0,0.0,0.0,0.0,0.0022865755619668575,0.4399131130160742,9.806092556456775,0.0,0.0,0.0,0.0,0.0,0.0,0.0,0.0,0.0
2025/05/20 13:26:48.16347026,1747740408,15796358,mA1/imu,0.9867636387539576,-0.16216151013507793,-0.00106484683576324,0.00017878751897092658,0.0,0.0,0.0,0.0,0.0,0.0,0.0,0.0,0.0,0.0037901953483588133,-0.004332060982047721,-5.2506234265008666e-05,0.0,0.0,0.0,0.0,0.0,0.0,0.0,0.0,0.0,0.0005202610458157585,-0.5695810772675705,9.803528453294863,0.0,0.0,0.0,0.0,0.0,0.0,0.0,0.0,0.0
2025/05/20 13:26:48.65982110,1747740408,65756329,mA1/imu,0.9867637563903071,-0.16216034462069376,-0.001139560961796797,0.00011448931306090682,0.0,0.0,0.0,0.0,0.0,0.0,0.0,0.0,0.0,0.0022352737914175485,-0.002714573104659027,-4.801109843217216e-05,0.0,0.0,0.0,0.0,0.0,0.0,0.0,0.0,0.0,0.001399960459421843,-0.617950073341514,9.804726806335447,0.0,0.0,0.0,0.0,0.0,0.0,0.0,0.0,0.0
2025/05/20 13:26:48.117200422,1747740408,116764926,mA1/imu,0.9867638942755872,-0.16215927515610387,-0.0011750100616780867,7.606760048366917e-05,0.0,0.0,0.0,0.0,0.0,0.0,0.0,0.0,0.0,-0.0005236237040556575,-0.0009369227631024961,-4.288871867539128e-05,0.0,0.0,0.0,0.0,0.0,0.0,0.0,0.0,0.0,0.0019186410594045043,-0.1086710445125805,9.806336007210335,0.0,0.0,0.0,0.0,0.0,0.0,0.0,0.0,0.0
2025/05/20 13:26:48.167990811,1747740408,166798564,mA1/imu,0.9867640591752476,-0.1621583209794294,-0.0011692054293639764,5.844471567161008e-05,0.0,0.0,0.0,0.0,0.0,0.0,0.0,0.0,0.0,-2.3798766932405222e-05,0.0008304636113086923,-3.7438475834191984e-05,0.0,0.0,0.0,0.0,0.0,0.0,0.0,0.0,0.0,0.001754346150938002,0.6183103120223442,9.808359324209095,0.0,0.0,0.0,0.0,0.0,0.0,0.0,0.0,0.0
2025/05/20 13:26:48.218497108,1747740408,218119211,mA1/imu,0.9867642502666538,-0.16215744404219717,-0.0011269866608044831,8.739826345944987e-05,0.0,0.0,0.0,0.0,0.0,0.0,0.0,0.0,0.0,-0.00168327050159745,0.0025232229792447485,-3.2482294361151256e-05,0.0,0.0,0.0,0.0,0.0,0.0,0.0,0.0,0.0,0.002991848108261464,0.5739228897936477,9.808123654788794,0.0,0.0,0.0,0.0,0.0,0.0,0.0,0.0,0.0
2025/05/20 13:26:48.268297944,1747740408,268058385,mA1/imu,0.9867644605589424,-0.162156653517922,-0.0010483057585920258,0.00014196029092572375,0.0,0.0,0.0,0.0,0.0,0.0,0.0,0.0,0.0,-0.002168731339020081,0.004055122372222679,-2.818682372919397e-05,0.0,0.0,0.0,0.0,0.0,0.0,0.0,0.0,0.0,0.0034499144222567106,-0.114089082013277,9.80783743089842,0.0,0.0,0.0,0.0,0.0,0.0,0.0,0.0,0.0
2025/05/20 13:26:48.320046703,1747740408,319025537,mA1/imu,0.9867646743383052,-0.16215592492299838,-0.0009396799942323842,0.00022470401423724628,0.0,0.0,0.0,0.0,0.0,0.0,0.0,0.0,0.0,-0.0038058333324543143,0.005302691892260579,-2.4858359281140295e-05,0.0,0.0,0.0,0.0,0.0,0.0,0.0,0.0,0.0,0.006540180956612126,0.534422416461608,9.810337176100564,0.0,0.0,0.0,0.0,0.0,0.0,0.0,0.0,0.0
2025/05/20 13:26:48.369464776,1747740408,369193027,mA1/imu,0.9867648745957014,-0.16215523570306498,-0.0008078661430650508,0.00033037933934905824,0.0,0.0,0.0,0.0,0.0,0.0,0.0,0.0,0.0,-0.005111547641419864,0.006226054922727067,-2.2642956166754447e-05,0.0,0.0,0.0,0.0,0.0,0.0,0.0,0.0,0.0,0.0075629546400013,0.5022381423673432,9.81132022508589,0.0,0.0,0.0,0.0,0.0,0.0,0.0,0.0,0.0
2025/05/20 13:26:48.420616704,1747740408,420388058,mA1/imu,0.9867650515240876,-0.16215457020011473,-0.0006600338603540145,0.0004391004256128694,0.0,0.0,0.0,0.0,0.0,0.0,0.0,0.0,0.0,-0.003482787188827134,0.006716540938424614,-2.1559457252539317e-05,0.0,0.0,0.0,0.0,0.0,0.0,0.0,0.0,0.0,0.009378156151671096,0.025363803873232137,9.810942582810425,0.0,0.0,0.0,0.0,0.0,0.0,0.0,0.0,0.0
2025/05/20 13:26:48.471050777,1747740408,470270979,mA1/imu,0.9867651819033331,-0.1621538857120434,-0.0005100112939595588,0.0005770790652724462,0.0,0.0,0.0,0.0,0.0,0.0,0.0,0.0,0.0,-0.0036775384249828065,0.0068207555134522395,-2.1593230890669954e-05,0.0,0.0,0.0,0.0,0.0,0.0,0.0,0.0,0.0,0.010256640433084123,0.032881146584530604,9.813009411540571,0.0,0.0,0.0,0.0,0.0,0.0,0.0,0.0,0.0
2025/05/20 13:26:48.511450506,1747740408,511199883,mA1/imu,0.9867652697266385,-0.16215318198046236,-0.0003637136095700328,0.0007181555092783329,0.0,0.0,0.0,0.0,0.0,0.0,0.0,0.0,0.0,-0.0055004123128482105,0.006546016801054091,-2.261856537614581e-05,0.0,0.0,0.0,0.0,0.0,0.0,0.0,0.0,0.0,0.012720429906045697,0.5492026242904494,9.814777705329384,0.0,0.0,0.0,0.0,0.0,0.0,0.0,0.0,0.0
2025/05/20 13:26:48.561357850,1747740408,561071728,mA1/imu,0.9867653206510637,-0.16215244460390682,-0.00022979837398723904,0.0008566575088235518,0.0,0.0,0.0,0.0,0.0,0.0,0.0,0.0,0.0,-0.004419445874786501,0.005889309512233069,-2.4378546074436317e-05,0.0,0.0,0.0,0.0,0.0,0.0,0.0,0.0,0.0,0.012498379285469336,-0.6374523741920219,9.813377403573574,0.0,0.0,0.0,0.0,0.0,0.0,0.0,0.0,0.0
2025/05/20 13:26:48.615634440,1747740408,615330604,mA1/imu,0.9867653484553425,-0.16215167402272554,-0.00011592446315594865,0.0009840025169366117,0.0,0.0,0.0,0.0,0.0,0.0,0.0,0.0,0.0,-0.004708056878535575,0.004901436033460595,-2.6450861820879857e-05,0.0,0.0,0.0,0.0,0.0,0.0,0.0,0.0,0.0,0.014369027801230642,-0.049688330350605665,9.8142059858855,0.0,0.0,0.0,0.0,0.0,0.0,0.0,0.0,0.0
2025/05/20 13:26:48.671439826,1747740408,667687280,mA1/imu,0.9867653626296341,-0.16215087617075633,-2.9476943237402803e-05,0.0011007282011151055,0.0,0.0,0.0,0.0,0.0,0.0,0.0,0.0,0.0,-0.004431576709131548,0.0036459608481611123,-2.8620057819543655e-05,0.0,0.0,0.0,0.0,0.0,0.0,0.0,0.0,0.0,0.01426758464970225,-0.07699767414389036,9.815247195001684,0.0,0.0,0.0,0.0,0.0,0.0,0.0,0.0,0.0
2025/05/20 13:26:48.714386062,1747740408,714053319,mA1/imu,0.9867653883325098,-0.1621500606137878,2.5631009892039362e-05,0.0011939744500237019,0.0,0.0,0.0,0.0,0.0,0.0,0.0,0.0,0.0,-0.0040220992427996635,0.0021874106867536525,-3.0709009076206516e-05,0.0,0.0,0.0,0.0,0.0,0.0,0.0,0.0,0.0,0.015234415696691952,-0.07626526320687183,9.814494940003575,0.0,0.0,0.0,0.0,0.0,0.0,0.0,0.0,0.0
2025/05/20 13:26:48.764304836,1747740408,763941064,mA1/imu,0.9867654263461556,-0.16214923632316913,4.484789384383894e-05,0.0012714229702811353,0.0,0.0,0.0,0.0,0.0,0.0,0.0,0.0,0.0,-0.003580910122911184,0.0006413327249511715,-3.284606718294415e-05,0.0,0.0,0.0,0.0,0.0,0.0,0.0,0.0,0.0,0.014202205084368556,-0.09404257603889404,9.813013126773,0.0,0.0,0.0,0.0,0.0,0.0,0.0,0.0,0.0
2025/05/20 13:26:48.815995129,1747740408,815681030,mA1/imu,0.9867655132325924,-0.16214840607082956,3.08410709295242e-05,0.001309714600977986,0.0,0.0,0.0,0.0,0.0,0.0,0.0,0.0,0.0,-0.0012183811496739192,-0.0009199886296664636,-3.500964429556936e-05,0.0,0.0,0.0,0.0,0.0,0.0,0.0,0.0,0.0,0.013790074929913113,-0.6235527978967477,9.812866670051344,0.0,0.0,0.0,0.0,0.0,0.0,0.0,0.0,0.0
2025/05/20 13:26:48.865840781,1747740408,865649956,mA1/imu,0.9867656290009283,-0.1621475864644837,-1.719818959635032e-05,0.0013241338176995,0.0,0.0,0.0,0.0,0.0,0.0,0.0,0.0,0.0,0.0004670388928279894,-0.002373103530653591,-3.6065450297795404e-05,0.0,0.0,0.0,0.0,0.0,0.0,0.0,0.0,0.0,0.011363442346818756,-0.5695941910931225,9.811984461475678,0.0,0.0,0.0,0.0,0.0,0.0,0.0,0.0,0.0
2025/05/20 13:26:48.916997927,1747740408,916626575,mA1/imu,0.986765768721202,-0.16214678554776846,-9.496358919251671e-05,0.0013147617646168373,0.0,0.0,0.0,0.0,0.0,0.0,0.0,0.0,0.0,-0.00017000463717090793,-0.003611923656074353,-3.703450939197494e-05,0.0,0.0,0.0,0.0,0.0,0.0,0.0,0.0,0.0,0.009695619232661457,0.5808875668191211,9.810985027388876,0.0,0.0,0.0,0.0,0.0,0.0,0.0,0.0,0.0
2025/05/20 13:26:48.966772633,1747740408,966499280,mA1/imu,0.9867659240127463,-0.16214600094918813,-0.00019732609809773214,0.0012832169995253453,0.0,0.0,0.0,0.0,0.0,0.0,0.0,0.0,0.0,-4.576832550836389e-05,-0.004631512145034802,-3.7816385383665876e-05,0.0,0.0,0.0,0.0,0.0,0.0,0.0,0.0,0.0,0.008994643018623924,0.23432348365286632,9.8097877968047,0.0,0.0,0.0,0.0,0.0,0.0,0.0,0.0,0.0
2025/05/20 13:26:49.22026767,1747740409,20949990,mA1/imu,0.9867661128415159,-0.16214523783532514,-0.0003143821269446059,0.0012089494814712357,0.0,0.0,0.0,0.0,0.0,0.0,0.0,0.0,0.0,0.0013497184105491938,-0.005317930686240885,-3.790529077637171e-05,0.0,0.0,0.0,0.0,0.0,0.0,0.0,0.0,0.0,-0.0009175594422257609,0.5605455206382174,9.808473686014834,0.0,0.0,0.0,0.0,0.0,0.0,0.0,0.0,0.0
2025/05/20 13:26:49.65874049,1747740409,64526515,mA1/imu,0.9867664725598735,-0.1621433579164592,-0.0004406153775708367,0.0011251548374628878,0.0,0.0,0.0,0.0,0.0,0.0,0.0,0.0,0.0,0.004258006648021137,-0.0056398371244514274,-0.00012570384749740527,0.0,0.0,0.0,0.0,0.0,0.0,0.0,0.0,0.0,0.003327776399533423,-0.5507448326276503,9.80665189625065,0.0,0.0,0.0,0.0,0.0,0.0,0.0,0.0,0.0
2025/05/20 13:26:49.116895057,1747740409,116597703,mA1/imu,0.9867669780646825,-0.16214049022281204,-0.0005657957751801826,0.0010355223519455624,0.0,0.0,0.0,0.0,0.0,0.0,0.0,0.0,0.0,0.0036355899174849104,-0.005429849952246887,-0.0001224363551539015,0.0,0.0,0.0,0.0,0.0,0.0,0.0,0.0,0.0,-0.0025681413873435534,-0.6368335173043499,9.807569493879907,0.0,0.0,0.0,0.0,0.0,0.0,0.0,0.0,0.0
2025/05/20 13:26:49.166907325,1747740409,166534211,mA1/imu,0.9867676838416427,-0.16213653835759473,-0.0006770830958438398,0.0009069805386462028,0.0,0.0,0.0,0.0,0.0,0.0,0.0,0.0,0.0,0.004215854091583815,-0.0050629391565162885,-0.000218720830005627,0.0,0.0,0.0,0.0,0.0,0.0,0.0,0.0,0.0,0.0031124480193125553,0.06492018367931231,9.802957001434505,0.0,0.0,0.0,0.0,0.0,0.0,0.0,0.0,0.0
2025/05/20 13:26:49.217971801,1747740409,217487860,mA1/imu,0.9867683875931234,-0.16213242832086344,-0.0007731647080551774,0.0007919280156239657,0.0,0.0,0.0,0.0,0.0,0.0,0.0,0.0,0.0,0.0033755578930015065,-0.00417465571227235,-0.0001530031500697798,0.0,0.0,0.0,0.0,0.0,0.0,0.0,0.0,0.0,-0.004451034937637455,0.5551636985888942,9.806684992123133,0.0,0.0,0.0,0.0,0.0,0.0,0.0,0.0,0.0
2025/05/20 13:26:49.267869003,1747740409,267310107,mA1/imu,0.986769221055965,-0.1621275391607216,-0.0008463904434714237,0.0006701085808964404,0.0,0.0,0.0,0.0,0.0,0.0,0.0,0.0,0.0,0.004668574922503738,-0.003369868054734058,-0.0002713926493431532,0.0,0.0,0.0,0.0,0.0,0.0,0.0,0.0,0.0,0.005338022769276682,0.008613621531948772,9.804176634078319,0.0,0.0,0.0,0.0,0.0,0.0,0.0,0.0,0.0
2025/05/20 13:26:49.318906583,1747740409,318435528,mA1/imu,0.9867709423433652,-0.16211719166943164,-0.0009008764525055686,0.0005585101800583697,0.0,0.0,0.0,0.0,0.0,0.0,0.0,0.0,0.0,0.004958895870143381,-0.002405029678674825,-0.0004377212101965229,0.0,0.0,0.0,0.0,0.0,0.0,0.0,0.0,0.0,-0.0053481988963085154,-0.594543867661718,9.805016596407146,0.0,0.0,0.0,0.0,0.0,0.0,0.0,0.0,0.0
2025/05/20 13:26:49.368595868,1747740409,368130158,mA1/imu,0.9867725923214355,-0.16210735758012762,-0.0009227146711615008,0.0004519505039365538,0.0,0.0,0.0,0.0,0.0,0.0,0.0,0.0,0.0,0.004199091392485672,-0.000993619537790442,-0.00038167048924099816,0.0,0.0,0.0,0.0,0.0,0.0,0.0,0.0,0.0,-0.005717098290156215,-0.6282511732942196,9.805960812268568,0.0,0.0,0.0,0.0,0.0,0.0,0.0,0.0,0.0
2025/05/20 13:26:49.419548833,1747740409,419195046,mA1/imu,0.9867741395271963,-0.16209823952968833,-0.0009115649193403915,0.00035686290811001736,0.0,0.0,0.0,0.0,0.0,0.0,0.0,0.0,0.0,0.002299427676059323,0.00036686955710586386,-0.0003675613041466463,0.0,0.0,0.0,0.0,0.0,0.0,0.0,0.0,0.0,-0.0036339078114550824,0.5318378062115671,9.806597618836177,0.0,0.0,0.0,0.0,0.0,0.0,0.0,0.0,0.0
2025/05/20 13:26:49.473830193,1747740409,470011317,mA1/imu,0.9867757971329287,-0.16208851351045386,-0.00087200351969364,0.00028211789396525655,0.0,0.0,0.0,0.0,0.0,0.0,0.0,0.0,0.0,0.0025987667875992638,0.0015553061205652269,-0.00041431067687392104,0.0,0.0,0.0,0.0,0.0,0.0,0.0,0.0,0.0,-0.0023224949850164517,-0.029393693186918743,9.80792893978377,0.0,0.0,0.0,0.0,0.0,0.0,0.0,0.0,0.0
2025/05/20 13:26:49.515018499,1747740409,514394339,mA1/imu,0.9867775008515526,-0.16207856330410364,-0.0008063380018604279,0.00023010751491685987,0.0,0.0,0.0,0.0,0.0,0.0,0.0,0.0,0.0,0.0019598531074067594,0.0027101068706084676,-0.0003989334325290304,0.0,0.0,0.0,0.0,0.0,0.0,0.0,0.0,0.0,-0.0021485724416700058,0.6059709063153508,9.810362676909516,0.0,0.0,0.0,0.0,0.0,0.0,0.0,0.0,0.0
2025/05/20 13:26:49.564267290,1747740409,564081245,mA1/imu,0.9867791531380924,-0.16206894976035316,-0.0007182901278287965,0.00020619150671763887,0.0,0.0,0.0,0.0,0.0,0.0,0.0,0.0,0.0,0.0018058032126482362,0.0036886822815313256,-0.0003841006608754483,0.0,0.0,0.0,0.0,0.0,0.0,0.0,0.0,0.0,-0.0012921591317463406,-0.016964643308441548,9.809447818769153,0.0,0.0,0.0,0.0,0.0,0.0,0.0,0.0,0.0
2025/05/20 13:26:49.615429093,1747740409,615053766,mA1/imu,0.9867807489752505,-0.1620596618118023,-0.0006133488760396631,0.0002080106824370333,0.0,0.0,0.0,0.0,0.0,0.0,0.0,0.0,0.0,0.0010369384142582408,0.004417355137949379,-0.0003707593274129282,0.0,0.0,0.0,0.0,0.0,0.0,0.0,0.0,0.0,0.0014106258509737155,-0.601136619333083,9.810960371536407,0.0,0.0,0.0,0.0,0.0,0.0,0.0,0.0,0.0
2025/05/20 13:26:49.665157685,1747740409,664953997,mA1/imu,0.9867829606159498,-0.16204654098245486,-0.0005037886603406748,0.00023106412132265554,0.0,0.0,0.0,0.0,0.0,0.0,0.0,0.0,0.0,-0.0009649211412732339,0.004378262450226217,-0.0006830174296408379,0.0,0.0,0.0,0.0,0.0,0.0,0.0,0.0,0.0,0.021875843960504838,-0.050591965015073986,9.811744697619977,0.0,0.0,0.0,0.0,0.0,0.0,0.0,0.0,0.0
2025/05/20 13:26:49.719540407,1747740409,719184525,mA1/imu,0.9867857283275769,-0.16202991848160897,-0.00039648821794343887,0.0002732818132525725,0.0,0.0,0.0,0.0,0.0,0.0,0.0,0.0,0.0,-0.0024809078198217856,0.004564515250804163,-0.0006650159458028318,0.0,0.0,0.0,0.0,0.0,0.0,0.0,0.0,0.0,0.003241800322585385,0.33499028617245724,9.813298350687347,0.0,0.0,0.0,0.0,0.0,0.0,0.0,0.0,0.0
2025/05/20 13:26:49.767139639,1747740409,766894105,mA1/imu,0.9867883162354386,-0.16201426867374033,-0.00029089098144451607,0.00033327132784508615,0.0,0.0,0.0,0.0,0.0,0.0,0.0,0.0,0.0,-0.0024687440722680315,0.004530976863632816,-0.0006105904000634722,0.0,0.0,0.0,0.0,0.0,0.0,0.0,0.0,0.0,0.001966205130194071,-0.03415634284308381,9.81408231772045,0.0,0.0,0.0,0.0,0.0,0.0,0.0,0.0,0.0
2025/05/20 13:26:49.815757184,1747740409,812460160,mA1/imu,0.9867907506361268,-0.16199941238632973,-0.00019394266174643842,0.00040893974768410076,0.0,0.0,0.0,0.0,0.0,0.0,0.0,0.0,0.0,-0.0023861911363708384,0.004150615595481842,-0.0005932284414059607,0.0,0.0,0.0,0.0,0.0,0.0,0.0,0.0,0.0,0.0049287993579305266,0.2972937396785439,9.815515148717182,0.0,0.0,0.0,0.0,0.0,0.0,0.0,0.0,0.0
2025/05/20 13:26:49.866734350,1747740409,866308544,mA1/imu,0.9867930923232356,-0.1619849620949479,-0.00011283846597881427,0.0005022606148530563,0.0,0.0,0.0,0.0,0.0,0.0,0.0,0.0,0.0,-0.0040287724392781025,0.0035544992445429927,-0.0005771870829525851,0.0,0.0,0.0,0.0,0.0,0.0,0.0,0.0,0.0,0.005338500933022702,0.5714037587134015,9.81413886116153,0.0,0.0,0.0,0.0,0.0,0.0,0.0,0.0,0.0
2025/05/20 13:26:49.918973688,1747740409,917599000,mA1/imu,0.9867953482746497,-0.16197090210610282,-5.181014245898403e-05,0.0006039951633104597,0.0,0.0,0.0,0.0,0.0,0.0,0.0,0.0,0.0,-0.00327328109892555,0.002731008628655839,-0.0005616119870646008,0.0,0.0,0.0,0.0,0.0,0.0,0.0,0.0,0.0,0.006268147840162617,0.022464262110812747,9.81284205918331,0.0,0.0,0.0,0.0,0.0,0.0,0.0,0.0,0.0
2025/05/20 13:26:49.967774159,1747740409,967495713,mA1/imu,0.9867975233986527,-0.16195723432524017,-1.3915502977280002e-05,0.0007084280933376616,0.0,0.0,0.0,0.0,0.0,0.0,0.0,0.0,0.0,-0.0027547955550006335,0.001768849222653208,-0.0005460748600736992,0.0,0.0,0.0,0.0,0.0,0.0,0.0,0.0,0.0,0.006727015118508749,-0.22591832032780731,9.813379709733832,0.0,0.0,0.0,0.0,0.0,0.0,0.0,0.0,0.0
2025/05/20 13:26:50.20652296,1747740410,20394917,mA1/imu,0.9867996162349584,-0.16194395255236563,-2.7449663237506447e-06,0.0008207452229539468,0.0,0.0,0.0,0.0,0.0,0.0,0.0,0.0,0.0,-0.004273529162151192,0.0007443639613677315,-0.0005317805685609799,0.0,0.0,0.0,0.0,0.0,0.0,0.0,0.0,0.0,0.006790460379784011,-0.02892146380277553,9.812840814023184,0.0,0.0,0.0,0.0,0.0,0.0,0.0,0.0,0.0
2025/05/20 13:26:50.70528704,1747740410,70218871,mA1/imu,0.9868016484487356,-0.16193102827295786,-1.6248390274937026e-05,0.0009211065683613862,0.0,0.0,0.0,0.0,0.0,0.0,0.0,0.0,0.0,-0.0040914392260583375,-0.00030775060001477476,-0.0005183840284746954,0.0,0.0,0.0,0.0,0.0,0.0,0.0,0.0,0.0,0.006001954071420021,-0.6535195138681323,9.812218331322901,0.0,0.0,0.0,0.0,0.0,0.0,0.0,0.0,0.0
2025/05/20 13:26:50.114195245,1747740410,111964867,mA1/imu,0.9868036253530653,-0.16191845546202585,-5.394622785556562e-05,0.0010078991236466424,0.0,0.0,0.0,0.0,0.0,0.0,0.0,0.0,0.0,-0.0037661016635946055,-0.0013281630470070994,-0.0005050245093575871,0.0,0.0,0.0,0.0,0.0,0.0,0.0,0.0,0.0,0.006111510866001349,-0.2713876449371495,9.811344059731638,0.0,0.0,0.0,0.0,0.0,0.0,0.0,0.0,0.0
2025/05/20 13:26:50.162045287,1747740410,161775003,mA1/imu,0.9868055459910501,-0.16190621708810266,-0.00011585385039352062,0.0010852867875455938,0.0,0.0,0.0,0.0,0.0,0.0,0.0,0.0,0.0,-0.003629302867531994,-0.002324457776495428,-0.0004933274033965639,0.0,0.0,0.0,0.0,0.0,0.0,0.0,0.0,0.0,0.006979612552419568,-0.04567724378374062,9.81024224477801,0.0,0.0,0.0,0.0,0.0,0.0,0.0,0.0,0.0
2025/05/20 13:26:50.213246620,1747740410,212844237,mA1/imu,0.9868074299128275,-0.1618942925543357,-0.00019650099453738022,0.0011382857858086917,0.0,0.0,0.0,0.0,0.0,0.0,0.0,0.0,0.0,-0.0021129595158619684,-0.0031507683696203087,-0.00048156660772463733,0.0,0.0,0.0,0.0,0.0,0.0,0.0,0.0,0.0,0.00547021533842871,-0.016537920458905963,9.808855911084974,0.0,0.0,0.0,0.0,0.0,0.0,0.0,0.0,0.0
2025/05/20 13:26:50.262845673,1747740410,262702612,mA1/imu,0.9868092682298621,-0.16188267639346363,-0.00029219997211839635,0.0011755162736340054,0.0,0.0,0.0,0.0,0.0,0.0,0.0,0.0,0.0,-0.0017956677639203616,-0.0037630676191550937,-0.00046979389453040047,0.0,0.0,0.0,0.0,0.0,0.0,0.0,0.0,0.0,0.0051185474768337,0.12958296780327216,9.808596037374603,0.0,0.0,0.0,0.0,0.0,0.0,0.0,0.0,0.0
2025/05/20 13:26:50.314790613,1747740410,314550437,mA1/imu,0.9868110587589403,-0.16187139058007982,-0.00039723662591342507,0.0011955859624229593,0.0,0.0,0.0,0.0,0.0,0.0,0.0,0.0,0.0,-0.0013759546447505338,-0.004152987363015796,-0.00045607747595854535,0.0,0.0,0.0,0.0,0.0,0.0,0.0,0.0,0.0,0.003843152153286569,-0.04061605094803275,9.806895096591042,0.0,0.0,0.0,0.0,0.0,0.0,0.0,0.0,0.0
2025/05/20 13:26:50.364929533,1747740410,364423821,mA1/imu,0.9868126789846173,-0.1618612482059601,-0.0005033549785256137,0.0011914521295859418,0.0,0.0,0.0,0.0,0.0,0.0,0.0,0.0,0.0,-0.00042202735026466943,-0.00422653554940954,-0.00039188305175366926,0.0,0.0,0.0,0.0,0.0,0.0,0.0,0.0,0.0,0.002300743972448654,-0.03146432408072521,9.80671704213514,0.0,0.0,0.0,0.0,0.0,0.0,0.0,0.0,0.0
2025/05/20 13:26:50.415998091,1747740410,415697055,mA1/imu,0.9868141869803353,-0.16185190221992604,-0.0006049752479974798,0.0011645286945435737,0.0,0.0,0.0,0.0,0.0,0.0,0.0,0.0,0.0,0.0005252579864647891,-0.004121677722425463,-0.0003790033871729986,0.0,0.0,0.0,0.0,0.0,0.0,0.0,0.0,0.0,0.001973476916563228,0.041891720497502755,9.805988331674815,0.0,0.0,0.0,0.0,0.0,0.0,0.0,0.0,0.0
2025/05/20 13:26:50.466255011,1747740410,465727238,mA1/imu,0.9868156556671015,-0.16184286022054228,-0.000698220595171271,0.0011237499468183694,0.0,0.0,0.0,0.0,0.0,0.0,0.0,0.0,0.0,0.0005117682515927486,-0.00378792853571905,-0.00036672894505708346,0.0,0.0,0.0,0.0,0.0,0.0,0.0,0.0,0.0,0.001970423554357028,0.5500746693148912,9.807138672654833,0.0,0.0,0.0,0.0,0.0,0.0,0.0,0.0,0.0
2025/05/20 13:26:50.518346176,1747740410,516810153,mA1/imu,0.9868170975185626,-0.16183410360473338,-0.0007768560831771812,0.0010655750175381721,0.0,0.0,0.0,0.0,0.0,0.0,0.0,0.0,0.0,0.0019854809477162063,-0.0032404200553609137,-0.0003555509565117186,0.0,0.0,0.0,0.0,0.0,0.0,0.0,0.0,0.0,0.0010583741847506479,-0.029021373015804933,9.806779524178102,0.0,0.0,0.0,0.0,0.0,0.0,0.0,0.0,0.0
2025/05/20 13:26:50.566898130,1747740410,566627441,mA1/imu,0.9868185152672666,-0.1618256194514061,-0.0008363031189428146,0.0009936860517777482,0.0,0.0,0.0,0.0,0.0,0.0,0.0,0.0,0.0,0.0030615556596283694,-0.002509161971686534,-0.00034453668839749173,0.0,0.0,0.0,0.0,0.0,0.0,0.0,0.0,0.0,0.0007244671247933401,-0.6260626093920978,9.806584399340945,0.0,0.0,0.0,0.0,0.0,0.0,0.0,0.0,0.0
2025/05/20 13:26:50.619043395,1747740410,618675975,mA1/imu,0.9868199144921029,-0.16181738766178383,-0.0008731976523386006,0.0009093613001071911,0.0,0.0,0.0,0.0,0.0,0.0,0.0,0.0,0.0,0.0020867878076062446,-0.001649123801974977,-0.0003341452719111843,0.0,0.0,0.0,0.0,0.0,0.0,0.0,0.0,0.0,0.0010299030030165128,0.5287686941888139,9.808674619594933,0.0,0.0,0.0,0.0,0.0,0.0,0.0,0.0,0.0
2025/05/20 13:26:50.668695343,1747740410,668490051,mA1/imu,0.986821297574477,-0.16180940695431703,-0.000884883000649826,0.0008120693278001493,0.0,0.0,0.0,0.0,0.0,0.0,0.0,0.0,0.0,0.0029441551270705173,-0.0006997992127618273,-0.00032351544035972706,0.0,0.0,0.0,0.0,0.0,0.0,0.0,0.0,0.0,0.000753347936041298,0.3479831642169392,9.80675570728489,0.0,0.0,0.0,0.0,0.0,0.0,0.0,0.0,0.0
2025/05/20 13:26:50.721102894,1747740410,720340674,mA1/imu,0.9868226501342894,-0.16180166144171781,-0.0008733498260253532,0.0007188857482555718,0.0,0.0,0.0,0.0,0.0,0.0,0.0,0.0,0.0,0.0038097153462257442,0.0002238557064520393,-0.0003133106118727165,0.0,0.0,0.0,0.0,0.0,0.0,0.0,0.0,0.0,0.001596681268143215,0.039108632170822014,9.808271095620464,0.0,0.0,0.0,0.0,0.0,0.0,0.0,0.0,0.0
2025/05/20 13:26:50.770465352,1747740410,770201260,mA1/imu,0.9868239692052692,-0.16179414755128718,-0.0008400981945650922,0.0006339204473846461,0.0,0.0,0.0,0.0,0.0,0.0,0.0,0.0,0.0,0.0033357646254087965,0.0011201038379110213,-0.0003029881607191509,0.0,0.0,0.0,0.0,0.0,0.0,0.0,0.0,0.0,0.001540610513475229,-0.04725522888218614,9.808942547168675,0.0,0.0,0.0,0.0,0.0,0.0,0.0,0.0,0.0
2025/05/20 13:26:50.811458624,1747740410,811169380,mA1/imu,0.9868252577296178,-0.1617868777289604,-0.0007852471998278899,0.0005479857874511407,0.0,0.0,0.0,0.0,0.0,0.0,0.0,0.0,0.0,0.0039190303905459745,0.0019167723286960142,-0.0002926359098904758,0.0,0.0,0.0,0.0,0.0,0.0,0.0,0.0,0.0,0.003382099081777992,-0.6274228940472598,9.810285388399233,0.0,0.0,0.0,0.0,0.0,0.0,0.0,0.0,0.0
2025/05/20 13:26:50.862221213,1747740410,862027797,mA1/imu,0.9868265053226641,-0.16177984545096138,-0.0007132058074878378,0.00047046359831783913,0.0,0.0,0.0,0.0,0.0,0.0,0.0,0.0,0.0,0.0032090741648148607,0.0026106441291885636,-0.0002825195242638115,0.0,0.0,0.0,0.0,0.0,0.0,0.0,0.0,0.0,0.003220124122386713,-0.2380686530461036,9.81149472320565,0.0,0.0,0.0,0.0,0.0,0.0,0.0,0.0,0.0
2025/05/20 13:26:50.913263437,1747740410,913035030,mA1/imu,0.9868277066165847,-0.16177304250406982,-0.0006285594013525686,0.0004063076506028396,0.0,0.0,0.0,0.0,0.0,0.0,0.0,0.0,0.0,0.002963640990077663,0.0031125263764782587,-0.0002727383338195406,0.0,0.0,0.0,0.0,0.0,0.0,0.0,0.0,0.0,0.0043229513019025926,-0.018059987851757314,9.812561517344463,0.0,0.0,0.0,0.0,0.0,0.0,0.0,0.0,0.0
2025/05/20 13:26:50.965046819,1747740410,962898679,mA1/imu,0.9868288596663364,-0.16176644866425094,-0.000536637390153228,0.00036032833135833333,0.0,0.0,0.0,0.0,0.0,0.0,0.0,0.0,0.0,0.0015757985283330691,0.0034497839589750804,-0.0002639626482445952,0.0,0.0,0.0,0.0,0.0,0.0,0.0,0.0,0.0,0.004871625152450588,0.2338304536259646,9.813787712788645,0.0,0.0,0.0,0.0,0.0,0.0,0.0,0.0,0.0
2025/05/20 13:26:51.14619772,1747740411,14290143,mA1/imu,0.986829964414871,-0.16176004686490889,-0.0004429749170438707,0.0003351782055341805,0.0,0.0,0.0,0.0,0.0,0.0,0.0,0.0,0.0,-6.280940456705274e-05,0.0035704072226000185,-0.0002559705657363418,0.0,0.0,0.0,0.0,0.0,0.0,0.0,0.0,0.0,0.007253097961802037,0.27028501312657116,9.814916474363859,0.0,0.0,0.0,0.0,0.0,0.0,0.0,0.0,0.0
2025/05/20 13:26:51.64465669,1747740411,64165289,mA1/imu,0.98683102603389,-0.16175382500389218,-0.00035111060481732764,0.00032074110034423627,0.0,0.0,0.0,0.0,0.0,0.0,0.0,0.0,0.0,0.0010526100754269544,0.003485884219868241,-0.00024868592393956267,0.0,0.0,0.0,0.0,0.0,0.0,0.0,0.0,0.0,0.005662304339110821,-0.6215840418790628,9.812978156940332,0.0,0.0,0.0,0.0,0.0,0.0,0.0,0.0,0.0
2025/05/20 13:26:51.118200979,1747740411,117300741,mA1/imu,0.9868320459901713,-0.16174775860345939,-0.0002669456201873958,0.00032300719043635564,0.0,0.0,0.0,0.0,0.0,0.0,0.0,0.0,0.0,0.0010735017169868097,0.003181025685342743,-0.00024282659037989395,0.0,0.0,0.0,0.0,0.0,0.0,0.0,0.0,0.0,0.012131722856816128,-0.5678064463914495,9.813043377586164,0.0,0.0,0.0,0.0,0.0,0.0,0.0,0.0,0.0
2025/05/20 13:26:51.167896949,1747740411,167286324,mA1/imu,0.9868328841992916,-0.16174269459135365,-0.00019786240104167622,0.00034678481218500354,0.0,0.0,0.0,0.0,0.0,0.0,0.0,0.0,0.0,-0.00048358831266336554,0.002649503816043861,-0.0001808525639949077,0.0,0.0,0.0,0.0,0.0,0.0,0.0,0.0,0.0,0.011523058275560622,0.0056639215050955805,9.814302974128115,0.0,0.0,0.0,0.0,0.0,0.0,0.0,0.0,0.0
2025/05/20 13:26:51.219118433,1747740411,218895188,mA1/imu,0.9868336061479773,-0.16173825136532982,-0.0001489396701939266,0.0003868323135482113,0.0,0.0,0.0,0.0,0.0,0.0,0.0,0.0,0.0,-0.001771083595039842,0.0018651551958115094,-0.0001779137008419652,0.0,0.0,0.0,0.0,0.0,0.0,0.0,0.0,0.0,0.0128260859475423,-0.030220107553410466,9.81277369405466,0.0,0.0,0.0,0.0,0.0,0.0,0.0,0.0,0.0
2025/05/20 13:26:51.269039786,1747740411,268694437,mA1/imu,0.986834172010234,-0.16173467580817974,-0.00012294255446353362,0.0004432597737604775,0.0,0.0,0.0,0.0,0.0,0.0,0.0,0.0,0.0,-0.0026330236111062784,0.0010659529295846762,-0.00012309604289217102,0.0,0.0,0.0,0.0,0.0,0.0,0.0,0.0,0.0,0.011891994850812045,-0.236702030737806,9.811293472107085,0.0,0.0,0.0,0.0,0.0,0.0,0.0,0.0,0.0
2025/05/20 13:26:51.311635342,1747740411,311293725,mA1/imu,0.9868346359131694,-0.16173165669649345,-0.00012083798607545097,0.0005079197878189908,0.0,0.0,0.0,0.0,0.0,0.0,0.0,0.0,0.0,-0.0020621286014315433,0.00012124060470225695,-0.00012096302436167931,0.0,0.0,0.0,0.0,0.0,0.0,0.0,0.0,0.0,0.01326903101279111,-0.5954120625777276,9.810610493351396,0.0,0.0,0.0,0.0,0.0,0.0,0.0,0.0,0.0
2025/05/20 13:26:51.361256690,1747740411,361043112,mA1/imu,0.9868351988085559,-0.16172794636247478,-0.0001449695966423849,0.0005837308204080289,0.0,0.0,0.0,0.0,0.0,0.0,0.0,0.0,0.0,-0.002780381118595035,-0.0008613801861150718,-0.00016710747885126997,0.0,0.0,0.0,0.0,0.0,0.0,0.0,0.0,0.0,0.014567301686257514,-0.6171143126544418,9.80967636511164,0.0,0.0,0.0,0.0,0.0,0.0,0.0,0.0,0.0
2025/05/20 13:26:51.412220456,1747740411,412048801,mA1/imu,0.9868358128644353,-0.16172387260874846,-0.00019156287435293624,0.0006563385433071789,0.0,0.0,0.0,0.0,0.0,0.0,0.0,0.0,0.0,-0.003670204185969058,-0.001696083723914987,-0.0001643754398961296,0.0,0.0,0.0,0.0,0.0,0.0,0.0,0.0,0.0,0.012048713366544797,0.0424386712979813,9.808375962958273,0.0,0.0,0.0,0.0,0.0,0.0,0.0,0.0,0.0
2025/05/20 13:26:51.462010862,1747740411,461844378,mA1/imu,0.9868359682881478,-0.16172247903625794,-0.00025483364591987693,0.0007392746266489997,0.0,0.0,0.0,0.0,0.0,0.0,0.0,0.0,0.0,-0.00489948071176682,-0.0021297305210736753,4.140286964656926e-06,0.0,0.0,0.0,0.0,0.0,0.0,0.0,0.0,0.0,0.008276750665900494,0.5252276123195992,9.808551185919734,0.0,0.0,0.0,0.0,0.0,0.0,0.0,0.0,0.0
2025/05/20 13:26:51.513081357,1747740411,512797863,mA1/imu,0.986835873501994,-0.16172260654673457,-0.00032936051135875526,0.0008054954625453676,0.0,0.0,0.0,0.0,0.0,0.0,0.0,0.0,0.0,-0.0030875572249765616,-0.0027283319415685276,4.039994702209709e-06,0.0,0.0,0.0,0.0,0.0,0.0,0.0,0.0,0.0,0.01032145273369534,0.01744486837991291,9.806584502576245,0.0,0.0,0.0,0.0,0.0,0.0,0.0,0.0,0.0
2025/05/20 13:26:51.562812810,1747740411,562645886,mA1/imu,0.9868358250149909,-0.1617222921305411,-0.00041881730151166707,0.0008827723908065745,0.0,0.0,0.0,0.0,0.0,0.0,0.0,0.0,0.0,-0.0035377328355730726,-0.003204335346273919,-2.516525643572152e-05,0.0,0.0,0.0,0.0,0.0,0.0,0.0,0.0,0.0,0.011120393108198899,0.6007311516891107,9.807967783925006,0.0,0.0,0.0,0.0,0.0,0.0,0.0,0.0,0.0
2025/05/20 13:26:51.613963722,1747740411,613685975,mA1/imu,0.9868358064232543,-0.1617217105705025,-0.0005156770383956419,0.0009558076730864403,0.0,0.0,0.0,0.0,0.0,0.0,0.0,0.0,0.0,-0.0046301957755328325,-0.0034192995876220285,-2.4987544956476046e-05,0.0,0.0,0.0,0.0,0.0,0.0,0.0,0.0,0.0,0.00886729095278295,0.5023064883038618,9.807003511787444,0.0,0.0,0.0,0.0,0.0,0.0,0.0,0.0,0.0
2025/05/20 13:26:51.663867275,1747740411,663669157,mA1/imu,0.9868357911539367,-0.16172114580512129,-0.0006117056902996522,0.001009015961736795,0.0,0.0,0.0,0.0,0.0,0.0,0.0,0.0,0.0,-0.002407934455233797,-0.003436458932715873,-2.4605580405476555e-05,0.0,0.0,0.0,0.0,0.0,0.0,0.0,0.0,0.0,0.007527803450617262,-0.6330835469579701,9.805414306611237,0.0,0.0,0.0,0.0,0.0,0.0,0.0,0.0,0.0
2025/05/20 13:26:51.716468109,1747740411,714689775,mA1/imu,0.9868357896674474,-0.16172060096941668,-0.0007010831138310792,0.001039199684234925,0.0,0.0,0.0,0.0,0.0,0.0,0.0,0.0,0.0,-0.0002032901510181241,-0.003238514448228386,-2.4165940536846597e-05,0.0,0.0,0.0,0.0,0.0,0.0,0.0,0.0,0.0,0.006490295605797865,-0.5232684257037367,9.805500595842028,0.0,0.0,0.0,0.0,0.0,0.0,0.0,0.0,0.0
2025/05/20 13:26:51.765295249,1747740411,764941050,mA1/imu,0.9868353744856974,-0.16172260660780857,-0.0007780155138280918,0.0010662398930658642,0.0,0.0,0.0,0.0,0.0,0.0,0.0,0.0,0.0,-0.0003906418024353232,-0.0026158836481862055,0.00014002462294009302,0.0,0.0,0.0,0.0,0.0,0.0,0.0,0.0,0.0,0.003977647157105212,0.04314891885294463,9.806423929106247,0.0,0.0,0.0,0.0,0.0,0.0,0.0,0.0,0.0
2025/05/20 13:26:51.816195870,1747740411,815897766,mA1/imu,0.9868347393612145,-0.161726052699825,-0.0008396827048445835,0.0010844357852398659,0.0,0.0,0.0,0.0,0.0,0.0,0.0,0.0,0.0,-0.0004828273321544242,-0.0021135795239598564,0.00013499006297611698,0.0,0.0,0.0,0.0,0.0,0.0,0.0,0.0,0.0,0.0072489405253392605,0.008504203910055078,9.807538295138258,0.0,0.0,0.0,0.0,0.0,0.0,0.0,0.0,0.0
2025/05/20 13:26:51.866180753,1747740411,865841143,mA1/imu,0.9868342284045825,-0.16172899137619157,-0.0008817490640530717,0.0010777365913059909,0.0,0.0,0.0,0.0,0.0,0.0,0.0,0.0,0.0,0.0002682582392657585,-0.0013917678297348866,0.00010178861156921897,0.0,0.0,0.0,0.0,0.0,0.0,0.0,0.0,0.0,0.001842742561836674,-0.09870420448608647,9.807715243597645,0.0,0.0,0.0,0.0,0.0,0.0,0.0,0.0,0.0
2025/05/20 13:26:51.919109737,1747740411,916808006,mA1/imu,0.98683383873414,-0.1617314522608839,-0.0008998979576978585,0.0010498868951287874,0.0,0.0,0.0,0.0,0.0,0.0,0.0,0.0,0.0,0.001810006874711615,-0.0005559632810719674,0.00010573067557178534,0.0,0.0,0.0,0.0,0.0,0.0,0.0,0.0,0.0,-0.0002725763953046346,-0.6001759286433456,9.809839314612207,0.0,0.0,0.0,0.0,0.0,0.0,0.0,0.0,0.0
2025/05/20 13:26:51.968811710,1747740411,966646846,mA1/imu,0.9868334960465533,-0.16173388059515853,-0.0008933897237185953,0.0010023986081441614,0.0,0.0,0.0,0.0,0.0,0.0,0.0,0.0,0.0,0.0019979959187952792,0.00027397946753651936,8.807584813401002e-05,0.0,0.0,0.0,0.0,0.0,0.0,0.0,0.0,0.0,0.0036633005958639445,-0.09848038930429433,9.809945087358031,0.0,0.0,0.0,0.0,0.0,0.0,0.0,0.0,0.0
2025/05/20 13:26:52.18250540,1747740412,17655344,mA1/imu,0.9868331537981878,-0.16173648806262023,-0.000863570890318694,0.000942994808785242,0.0,0.0,0.0,0.0,0.0,0.0,0.0,0.0,0.0,0.0023503147856889155,0.0011392940938611384,0.00011638822650209547,0.0,0.0,0.0,0.0,0.0,0.0,0.0,0.0,0.0,0.00043261472325658787,-0.041288189245762406,9.81180402109988,0.0,0.0,0.0,0.0,0.0,0.0,0.0,0.0,0.0
2025/05/20 13:26:52.67830365,1747740412,67380877,mA1/imu,0.9868322338917297,-0.16174277031006581,-0.0008063179265030394,0.0008765021877953258,0.0,0.0,0.0,0.0,0.0,0.0,0.0,0.0,0.0,0.0031579447742037334,0.002312492721704702,0.000388372598571358,0.0,0.0,0.0,0.0,0.0,0.0,0.0,0.0,0.0,-0.012740753485217703,-0.6562046921239527,9.812181784104665,0.0,0.0,0.0,0.0,0.0,0.0,0.0,0.0,0.0
2025/05/20 13:26:52.119152900,1747740412,118958725,mA1/imu,0.9868300256953473,-0.1617571141088891,-0.0007171522347619957,0.0007887420085722233,0.0,0.0,0.0,0.0,0.0,0.0,0.0,0.0,0.0,0.003976214421000684,0.0033491595437855465,0.0007062923106017568,0.0,0.0,0.0,0.0,0.0,0.0,0.0,0.0,0.0,-0.006740912289172313,-0.16575051669214952,9.812947506177911,0.0,0.0,0.0,0.0,0.0,0.0,0.0,0.0,0.0
2025/05/20 13:26:52.169327979,1747740412,168816452,mA1/imu,0.9868264962103319,-0.16177949955556398,-0.0006069058304154476,0.0007011177532386286,0.0,0.0,0.0,0.0,0.0,0.0,0.0,0.0,0.0,0.004106501667128609,0.00404356315610314,0.0010438152894832176,0.0,0.0,0.0,0.0,0.0,0.0,0.0,0.0,0.0,-0.005949693831449009,-0.0025203934287239965,9.813585649074197,0.0,0.0,0.0,0.0,0.0,0.0,0.0,0.0,0.0
2025/05/20 13:26:52.221567426,1747740412,221153047,mA1/imu,0.9868217690222187,-0.16180906625326344,-0.0004865792377925846,0.0006208886783222896,0.0,0.0,0.0,0.0,0.0,0.0,0.0,0.0,0.0,0.00398165940479667,0.004295200934245636,0.0012875777828284176,0.0,0.0,0.0,0.0,0.0,0.0,0.0,0.0,0.0,-0.002829929970754737,-0.01345900869115421,9.813308983864019,0.0,0.0,0.0,0.0,0.0,0.0,0.0,0.0,0.0
2025/05/20 13:26:52.261801279,1747740412,261053793,mA1/imu,0.9868160744648251,-0.16184439993195107,-0.0003625030839655758,0.0005421992377438827,0.0,0.0,0.0,0.0,0.0,0.0,0.0,0.0,0.0,0.0037406990572832165,0.004311752629061546,0.0014700230994860958,0.0,0.0,0.0,0.0,0.0,0.0,0.0,0.0,0.0,0.009598713729113792,-0.6433112135938238,9.814303799836393,0.0,0.0,0.0,0.0,0.0,0.0,0.0,0.0,0.0
2025/05/20 13:26:52.312335152,1747740412,312042836,mA1/imu,0.9868101868531138,-0.1618807639198834,-0.0002473302005602681,0.00046067712065061796,0.0,0.0,0.0,0.0,0.0,0.0,0.0,0.0,0.0,0.003229407857759981,0.0038044752604579034,0.001475452501139575,0.0,0.0,0.0,0.0,0.0,0.0,0.0,0.0,0.0,0.011481413410003551,-0.030117911896722506,9.814347583932568,0.0,0.0,0.0,0.0,0.0,0.0,0.0,0.0,0.0
2025/05/20 13:26:52.361987372,1747740412,361798293,mA1/imu,0.9868038573135971,-0.1619196543978778,-0.0001465735130788538,0.00038887900827510436,0.0,0.0,0.0,0.0,0.0,0.0,0.0,0.0,0.0,0.0024732904132041223,0.0033484561185468174,0.0016418530801907494,0.0,0.0,0.0,0.0,0.0,0.0,0.0,0.0,0.0,0.0018967371987973418,0.20786400014901688,9.811508195567681,0.0,0.0,0.0,0.0,0.0,0.0,0.0,0.0,0.0
2025/05/20 13:26:52.415114824,1747740412,412810221,mA1/imu,0.9867972303257657,-0.1619602200205946,-6.667320833196087e-05,0.0003300105474729504,0.0,0.0,0.0,0.0,0.0,0.0,0.0,0.0,0.0,0.0021497050398095454,0.00239959094309141,0.0016451101862909553,0.0,0.0,0.0,0.0,0.0,0.0,0.0,0.0,0.0,0.009046652727513418,0.6049651359690479,9.81168906907684,0.0,0.0,0.0,0.0,0.0,0.0,0.0,0.0,0.0
2025/05/20 13:26:52.462938296,1747740412,462687247,mA1/imu,0.9867905875827964,-0.1620007881035826,-1.3737953164457546e-05,0.0002841180847874039,0.0,0.0,0.0,0.0,0.0,0.0,0.0,0.0,0.0,0.0030988655345942006,0.0013426382195771604,0.0016470609098049999,0.0,0.0,0.0,0.0,0.0,0.0,0.0,0.0,0.0,0.012282012806219624,-0.5395611240744573,9.811849153664557,0.0,0.0,0.0,0.0,0.0,0.0,0.0,0.0,0.0
2025/05/20 13:26:52.514580312,1747740412,514313822,mA1/imu,0.986783936325263,-0.162041339306832,8.886715512938303e-06,0.0002593975587967365,0.0,0.0,0.0,0.0,0.0,0.0,0.0,0.0,0.0,0.0014964936096854616,0.00027039911148077106,0.0016402548755486163,0.0,0.0,0.0,0.0,0.0,0.0,0.0,0.0,0.0,0.014728666803014686,-0.2287975036309362,9.810988371537846,0.0,0.0,0.0,0.0,0.0,0.0,0.0,0.0,0.0
2025/05/20 13:26:52.563794548,1747740412,563564340,mA1/imu,0.9867770511437043,-0.16208329644987654,5.24930568644405e-06,0.0002373194503710074,0.0,0.0,0.0,0.0,0.0,0.0,0.0,0.0,0.0,0.0012180475795658522,-0.0007069445315349651,0.0017146300290851197,0.0,0.0,0.0,0.0,0.0,0.0,0.0,0.0,0.0,0.014151957337537857,-0.4263885118662906,9.81064835765711,0.0,0.0,0.0,0.0,0.0,0.0,0.0,0.0,0.0
2025/05/20 13:26:52.616137959,1747740412,615879485,mA1/imu,0.9867705493164243,-0.1621228651008631,-3.322264437548682e-05,0.00024188738148576925,0.0,0.0,0.0,0.0,0.0,0.0,0.0,0.0,0.0,-0.0005557868619560415,-0.002013230899728074,0.001532121535451088,0.0,0.0,0.0,0.0,0.0,0.0,0.0,0.0,0.0,0.018615952405892817,0.12340078146573893,9.810495286671264,0.0,0.0,0.0,0.0,0.0,0.0,0.0,0.0,0.0
2025/05/20 13:26:52.666037046,1747740412,665789451,mA1/imu,0.9867647259157962,-0.16215823841039367,-0.00010591226647724218,0.0002649274489628886,0.0,0.0,0.0,0.0,0.0,0.0,0.0,0.0,0.0,-0.0011069516732927784,-0.0031864221988074765,0.0013638027018460952,0.0,0.0,0.0,0.0,0.0,0.0,0.0,0.0,0.0,0.018572340826404424,-0.4111732883288302,9.806214584653157,0.0,0.0,0.0,0.0,0.0,0.0,0.0,0.0,0.0
2025/05/20 13:26:52.718855822,1747740412,716730239,mA1/imu,0.9867596072090522,-0.1621892417866647,-0.00020479337182774417,0.00029238498357160906,0.0,0.0,0.0,0.0,0.0,0.0,0.0,0.0,0.0,-0.0018356038810189547,-0.004040704071059776,0.0011790577049072127,0.0,0.0,0.0,0.0,0.0,0.0,0.0,0.0,0.0,0.012448990029169833,0.033454385676067164,9.806390671218006,0.0,0.0,0.0,0.0,0.0,0.0,0.0,0.0,0.0
2025/05/20 13:26:52.766739657,1747740412,766558649,mA1/imu,0.9867551642482885,-0.16221596148336492,-0.00032503064601989494,0.0003493199680158734,0.0,0.0,0.0,0.0,0.0,0.0,0.0,0.0,0.0,-0.0037244383259170694,-0.004551949076463187,0.0010228980596645064,0.0,0.0,0.0,0.0,0.0,0.0,0.0,0.0,0.0,0.009648849622591622,-0.050069433027219216,9.806246626182519,0.0,0.0,0.0,0.0,0.0,0.0,0.0,0.0,0.0
2025/05/20 13:26:52.817825665,1747740412,817608867,mA1/imu,0.9867514408268869,-0.16223817183945094,-0.00045409782278377155,0.0004042516823702196,0.0,0.0,0.0,0.0,0.0,0.0,0.0,0.0,0.0,-0.002443718275899387,-0.004810186763068347,0.0008200895318200619,0.0,0.0,0.0,0.0,0.0,0.0,0.0,0.0,0.0,0.009145356622355875,-0.5589771669266443,9.8068597588302,0.0,0.0,0.0,0.0,0.0,0.0,0.0,0.0,0.0
2025/05/20 13:26:52.868064480,1747740412,867509982,mA1/imu,0.9867482837402908,-0.16225676751707538,-0.000584706960385208,0.00047333737555638937,0.0,0.0,0.0,0.0,0.0,0.0,0.0,0.0,0.0,-0.003474736603257043,-0.0046030021331558224,0.0007130187622628027,0.0,0.0,0.0,0.0,0.0,0.0,0.0,0.0,0.0,0.005123845230667518,0.1539632908520096,9.80833666788222,0.0,0.0,0.0,0.0,0.0,0.0,0.0,0.0,0.0
2025/05/20 13:26:52.919020598,1747740412,918462301,mA1/imu,0.9867457205097901,-0.16227158205937425,-0.0007105531763767483,0.0005584135980615671,0.0,0.0,0.0,0.0,0.0,0.0,0.0,0.0,0.0,-0.005199751359628885,-0.00425224530954441,0.0005257204706431657,0.0,0.0,0.0,0.0,0.0,0.0,0.0,0.0,0.0,0.0071725333025114794,0.5441338216007755,9.80700697593405,0.0,0.0,0.0,0.0,0.0,0.0,0.0,0.0,0.0
2025/05/20 13:26:52.968979384,1747740412,968582157,mA1/imu,0.986743920792652,-0.16228171388941212,-0.0008224004063963534,0.000635431688525754,0.0,0.0,0.0,0.0,0.0,0.0,0.0,0.0,0.0,-0.0038629846326954645,-0.0036648860859313038,0.0003340794080652697,0.0,0.0,0.0,0.0,0.0,0.0,0.0,0.0,0.0,0.006539660927862507,0.003939774265806753,9.807304686968324,0.0,0.0,0.0,0.0,0.0,0.0,0.0,0.0,0.0
2025/05/20 13:26:53.20411512,1747740413,19697372,mA1/imu,0.9867429271331178,-0.16228691148071434,-0.0009170758361318742,0.000716300724675265,0.0,0.0,0.0,0.0,0.0,0.0,0.0,0.0,0.0,-0.0034699512036710984,-0.002897531759422671,0.00012628858282482948,0.0,0.0,0.0,0.0,0.0,0.0,0.0,0.0,0.0,0.006654268201248708,-0.2454169031305933,9.806861194888613,0.0,0.0,0.0,0.0,0.0,0.0,0.0,0.0,0.0
2025/05/20 13:26:53.69917710,1747740413,69560433,mA1/imu,0.986742626958904,-0.16228795050904715,-0.0009878479393734243,0.0007958757833571219,0.0,0.0,0.0,0.0,0.0,0.0,0.0,0.0,0.0,-0.003461882953739283,-0.001817118261193817,3.312499270415294e-06,0.0,0.0,0.0,0.0,0.0,0.0,0.0,0.0,0.0,0.000588558109530693,-0.003528440328263719,9.80745763824195,0.0,0.0,0.0,0.0,0.0,0.0,0.0,0.0,0.0
2025/05/20 13:26:53.111256630,1747740413,110963203,mA1/imu,0.986742715336148,-0.1622868176346868,-0.0010266767263264684,0.0008651519815532909,0.0,0.0,0.0,0.0,0.0,0.0,0.0,0.0,0.0,-0.0021173492231333297,-0.000591288292069103,-5.885067459506291e-05,0.0,0.0,0.0,0.0,0.0,0.0,0.0,0.0,0.0,0.0007081111438242346,-0.5729063090781407,9.808335593297572,0.0,0.0,0.0,0.0,0.0,0.0,0.0,0.0,0.0
2025/05/20 13:26:53.161333815,1747740413,161131125,mA1/imu,0.9867431166822994,-0.1622839600432862,-0.001036509895163368,0.0009293223382374851,0.0,0.0,0.0,0.0,0.0,0.0,0.0,0.0,0.0,-0.0025849022034399195,0.0004272892861856807,-0.00015589550755099036,0.0,0.0,0.0,0.0,0.0,0.0,0.0,0.0,0.0,0.006590559518011907,0.2808445529325085,9.810311726935076,0.0,0.0,0.0,0.0,0.0,0.0,0.0,0.0,0.0
2025/05/20 13:26:53.213980545,1747740413,213771329,mA1/imu,0.9867439448904463,-0.16227877629384488,-0.001017838377106065,0.0009746751510832073,0.0,0.0,0.0,0.0,0.0,0.0,0.0,0.0,0.0,-0.0010199040352184279,0.0014263561139594583,-0.0002416126850047325,0.0,0.0,0.0,0.0,0.0,0.0,0.0,0.0,0.0,0.006795538160341522,-0.13962155831500642,9.810112859061306,0.0,0.0,0.0,0.0,0.0,0.0,0.0,0.0,0.0
2025/05/20 13:26:53.264020253,1747740413,263794818,mA1/imu,0.986745013169026,-0.16227234846125754,-0.0009722202340905474,0.001009306070262372,0.0,0.0,0.0,0.0,0.0,0.0,0.0,0.0,0.0,-0.0006622541075224993,0.0024083395537007565,-0.0002681095754208861,0.0,0.0,0.0,0.0,0.0,0.0,0.0,0.0,0.0,0.005866400333798389,-0.09789116192539421,9.811790257447162,0.0,0.0,0.0,0.0,0.0,0.0,0.0,0.0,0.0
2025/05/20 13:26:53.319119756,1747740413,315298823,mA1/imu,0.9867463571102815,-0.16226449404596008,-0.0009019887437459032,0.001023287791141763,0.0,0.0,0.0,0.0,0.0,0.0,0.0,0.0,0.0,0.0003057691982429184,0.003146230977104396,-0.0003467640946428015,0.0,0.0,0.0,0.0,0.0,0.0,0.0,0.0,0.0,0.008906665413440349,0.2260524914886866,9.812566140471304,0.0,0.0,0.0,0.0,0.0,0.0,0.0,0.0,0.0
2025/05/20 13:26:53.365301555,1747740413,365100174,mA1/imu,0.9867481314837752,-0.1622541872112203,-0.0008136869516269606,0.0010206170925500721,0.0,0.0,0.0,0.0,0.0,0.0,0.0,0.0,0.0,0.0010297100812922744,0.003656326436654058,-0.0004584182694377484,0.0,0.0,0.0,0.0,0.0,0.0,0.0,0.0,0.0,0.00983486428973632,0.001383660472018173,9.812390671071766,0.0,0.0,0.0,0.0,0.0,0.0,0.0,0.0,0.0
2025/05/20 13:26:53.416423019,1747740413,416048972,mA1/imu,0.9867502958395237,-0.1622416880092222,-0.000711092475137187,0.000991302185280967,0.0,0.0,0.0,0.0,0.0,0.0,0.0,0.0,0.0,0.0028993837767568435,0.003969742505004184,-0.000534350789224294,0.0,0.0,0.0,0.0,0.0,0.0,0.0,0.0,0.0,0.01033453723846219,0.07673091693594683,9.81224246603871,0.0,0.0,0.0,0.0,0.0,0.0,0.0,0.0,0.0
2025/05/20 13:26:53.466073731,1747740413,465838420,mA1/imu,0.9867526209632161,-0.16222816564654025,-0.0006025866054229505,0.0009613441449013043,0.0,0.0,0.0,0.0,0.0,0.0,0.0,0.0,0.0,0.0021371791585760086,0.0041238829326804664,-0.0005541830181435874,0.0,0.0,0.0,0.0,0.0,0.0,0.0,0.0,0.0,0.010646720007241529,0.6022810220911182,9.814840384039035,0.0,0.0,0.0,0.0,0.0,0.0,0.0,0.0,0.0
2025/05/20 13:26:53.518085036,1747740413,517369790,mA1/imu,0.9867551587148714,-0.16221340681676635,-0.000491881639999574,0.000908543306284093,0.0,0.0,0.0,0.0,0.0,0.0,0.0,0.0,0.0,0.0032362068323156315,0.003932051751271612,-0.0006238345509958971,0.0,0.0,0.0,0.0,0.0,0.0,0.0,0.0,0.0,0.012626183210499613,-0.27763961418534927,9.812623361894458,0.0,0.0,0.0,0.0,0.0,0.0,0.0,0.0,0.0
2025/05/20 13:26:53.567856927,1747740413,567163393,mA1/imu,0.9867585065410366,-0.1621936898846241,-0.00038963158363082985,0.000839593796188575,0.0,0.0,0.0,0.0,0.0,0.0,0.0,0.0,0.0,0.003588282826279082,0.0033373111059541625,-0.0009015864350148813,0.0,0.0,0.0,0.0,0.0,0.0,0.0,0.0,0.0,0.015247563879851132,0.0053700887682105215,9.812708221798486,0.0,0.0,0.0,0.0,0.0,0.0,0.0,0.0,0.0
2025/05/20 13:26:53.623325861,1747740413,618271266,mA1/imu,0.9867624269965972,-0.16217036977074373,-0.00030202954408246294,0.0007698144971530031,0.0,0.0,0.0,0.0,0.0,0.0,0.0,0.0,0.0,0.0028974449988856316,0.0027573998297003906,-0.000972255598998976,0.0,0.0,0.0,0.0,0.0,0.0,0.0,0.0,0.0,0.013302013212459884,-0.05688607330279148,9.81185254269693,0.0,0.0,0.0,0.0,0.0,0.0,0.0,0.0,0.0
2025/05/20 13:26:53.670417107,1747740413,670124729,mA1/imu,0.9867666295587112,-0.16214532724159147,-0.00022771514385649862,0.0006780773346637309,0.0,0.0,0.0,0.0,0.0,0.0,0.0,0.0,0.0,0.004424340952234931,0.0020498092878134104,-0.0010424908615458883,0.0,0.0,0.0,0.0,0.0,0.0,0.0,0.0,0.0,0.012281366852980483,-0.583670180041214,9.81085589456681,0.0,0.0,0.0,0.0,0.0,0.0,0.0,0.0,0.0
2025/05/20 13:26:53.712107520,1747740413,711843860,mA1/imu,0.9867710730874526,-0.16211868703107532,-0.00017348693422989279,0.0005920603357885829,0.0,0.0,0.0,0.0,0.0,0.0,0.0,0.0,0.0,0.003868003298619994,0.0012849596774072993,-0.0010896574532613115,0.0,0.0,0.0,0.0,0.0,0.0,0.0,0.0,0.0,0.007210216315717788,0.011252977258446612,9.811518259442586,0.0,0.0,0.0,0.0,0.0,0.0,0.0,0.0,0.0
2025/05/20 13:26:53.761967747,1747740413,761671716,mA1/imu,0.9867754863699493,-0.1620921468064336,-0.00013789646759265067,0.0005063868046292562,0.0,0.0,0.0,0.0,0.0,0.0,0.0,0.0,0.0,0.003855256402075521,0.0005211906849253417,-0.001088361812716269,0.0,0.0,0.0,0.0,0.0,0.0,0.0,0.0,0.0,0.012610222038270797,-0.37860755610083535,9.809378138064702,0.0,0.0,0.0,0.0,0.0,0.0,0.0,0.0,0.0
2025/05/20 13:26:53.812960288,1747740413,812688197,mA1/imu,0.9867800873842925,-0.16206436869673688,-0.0001256227388403201,0.0004286720234431221,0.0,0.0,0.0,0.0,0.0,0.0,0.0,0.0,0.0,0.002224145777406462,-0.0003762511268869761,-0.0011516766825962338,0.0,0.0,0.0,0.0,0.0,0.0,0.0,0.0,0.0,0.012958445627259809,0.47742799737635266,9.810052100566487,0.0,0.0,0.0,0.0,0.0,0.0,0.0,0.0,0.0
2025/05/20 13:26:53.863490547,1747740413,863327180,mA1/imu,0.986784929408472,-0.16203504462638435,-0.0001367094258849136,0.0003587698084550448,0.0,0.0,0.0,0.0,0.0,0.0,0.0,0.0,0.0,0.002198842253631129,-0.0012295678765415815,-0.001214484321507544,0.0,0.0,0.0,0.0,0.0,0.0,0.0,0.0,0.0,0.012309537562817073,-0.16923663240724438,9.808771507234122,0.0,0.0,0.0,0.0,0.0,0.0,0.0,0.0,0.0
2025/05/20 13:26:53.916061799,1747740413,915750707,mA1/imu,0.9867900093734367,-0.16200419949161374,-0.00016952966920968918,0.00029666065672687093,0.0,0.0,0.0,0.0,0.0,0.0,0.0,0.0,0.0,0.0013859352284798904,-0.0019908070727934976,-0.0012756477292308207,0.0,0.0,0.0,0.0,0.0,0.0,0.0,0.0,0.0,0.011510507519235677,-0.03283968010379683,9.807713565558847,0.0,0.0,0.0,0.0,0.0,0.0,0.0,0.0,0.0
2025/05/20 13:26:53.965778788,1747740413,965639763,mA1/imu,0.9867954383832179,-0.1619711392588795,-0.00022312810022685357,0.00025109182452198394,0.0,0.0,0.0,0.0,0.0,0.0,0.0,0.0,0.0,0.0008967060488640589,-0.002674963067945879,-0.0013816246043331481,0.0,0.0,0.0,0.0,0.0,0.0,0.0,0.0,0.0,0.01184640334410103,-0.2442771488701323,9.807376168115114,0.0,0.0,0.0,0.0,0.0,0.0,0.0,0.0,0.0
2025/05/20 13:26:54.17408088,1747740414,16683129,mA1/imu,0.9868011591446167,-0.16193621492629592,-0.00029327377203237486,0.0002204465458616673,0.0,0.0,0.0,0.0,0.0,0.0,0.0,0.0,0.0,0.0008671179643347105,-0.003139046223806525,-0.0014395839758276437,0.0,0.0,0.0,0.0,0.0,0.0,0.0,0.0,0.0,0.009450314614491112,-0.590483799235238,9.805857850559786,0.0,0.0,0.0,0.0,0.0,0.0,0.0,0.0,0.0
2025/05/20 13:26:54.67735298,1747740414,66658083,mA1/imu,0.9868066130345376,-0.1619028352025666,-0.0003703943299892311,0.00020792478177915453,0.0,0.0,0.0,0.0,0.0,0.0,0.0,0.0,0.0,0.00030514551953511826,-0.0031185838057845475,-0.0013062223692390138,0.0,0.0,0.0,0.0,0.0,0.0,0.0,0.0,0.0,0.006213838784627579,0.053852120353202484,9.806039867850867,0.0,0.0,0.0,0.0,0.0,0.0,0.0,0.0,0.0
2025/05/20 13:26:54.117996656,1747740414,117662151,mA1/imu,0.986811987537508,-0.16186984737256876,-0.0004530781261586442,0.00022019097598840787,0.0,0.0,0.0,0.0,0.0,0.0,0.0,0.0,0.0,-0.0020566692709177927,-0.0032035558883580146,-0.0013567022480611237,0.0,0.0,0.0,0.0,0.0,0.0,0.0,0.0,0.0,0.00817951791553589,0.5767673924075926,9.807729447068697,0.0,0.0,0.0,0.0,0.0,0.0,0.0,0.0,0.0
2025/05/20 13:26:54.169267637,1747740414,167528188,mA1/imu,0.9868166460889262,-0.16184115798013785,-0.0005316347785518367,0.0002528832012531862,0.0,0.0,0.0,0.0,0.0,0.0,0.0,0.0,0.0,-0.0015884079410458762,-0.0024903616092757683,-0.0009266152614120364,0.0,0.0,0.0,0.0,0.0,0.0,0.0,0.0,0.0,-0.023961593887628405,-0.5895318088137643,9.806689073074264,0.0,0.0,0.0,0.0,0.0,0.0,0.0,0.0,0.0
2025/05/20 13:26:54.218790159,1747740414,218542227,mA1/imu,0.9868178831563953,-0.16183338602688388,-0.0005754623540692465,0.0002991536122815021,0.0,0.0,0.0,0.0,0.0,0.0,0.0,0.0,0.0,-0.0010111330181508948,-0.0007533735552218,8.848953767825546e-05,0.0,0.0,0.0,0.0,0.0,0.0,0.0,0.0,0.0,-0.03832289654471779,-0.5166514428051951,9.805874723656125,0.0,0.0,0.0,0.0,0.0,0.0,0.0,0.0,0.0
2025/05/20 13:26:54.269479896,1747740414,269007716,mA1/imu,0.9868149713272198,-0.1618509852902904,-0.0005792046194900638,0.00036803128835893927,0.0,0.0,0.0,0.0,0.0,0.0,0.0,0.0,0.0,-0.002253721309704577,0.0009581087723693694,0.0011536494984761031,0.0,0.0,0.0,0.0,0.0,0.0,0.0,0.0,0.0,-0.03805733018129103,0.051856150810588336,9.805160026665023,0.0,0.0,0.0,0.0,0.0,0.0,0.0,0.0,0.0
2025/05/20 13:26:54.312410211,1747740414,312144044,mA1/imu,0.9868076685113522,-0.16189541470412394,-0.0005433068721177831,0.000452639604776978,0.0,0.0,0.0,0.0,0.0,0.0,0.0,0.0,0.0,-0.0039034061730698214,0.0025861361791261832,0.002238058386289251,0.0,0.0,0.0,0.0,0.0,0.0,0.0,0.0,0.0,-0.03920668532082557,0.577012452127329,9.812920894296619,0.0,0.0,0.0,0.0,0.0,0.0,0.0,0.0,0.0
2025/05/20 13:26:54.361796390,1747740414,361283812,mA1/imu,0.9867977181404651,-0.16195596264615245,-0.0004859855566195431,0.0005417141018995978,0.0,0.0,0.0,0.0,0.0,0.0,0.0,0.0,0.0,-0.0018448399651944613,0.0027577546110119735,0.0024867573267144845,0.0,0.0,0.0,0.0,0.0,0.0,0.0,0.0,0.0,0.010331271348888539,-0.5192801624386484,9.808615094382025,0.0,0.0,0.0,0.0,0.0,0.0,0.0,0.0,0.0
2025/05/20 13:26:54.414306481,1747740414,414110551,mA1/imu,0.9867877284221633,-0.16201655335675474,-0.0004416985464399451,0.0006483642639809135,0.0,0.0,0.0,0.0,0.0,0.0,0.0,0.0,0.0,-0.0038325529380581016,0.002192744499282036,0.0024416663269000486,0.0,0.0,0.0,0.0,0.0,0.0,0.0,0.0,0.0,0.02039975806077201,-0.018612480208417593,9.809368827135735,0.0,0.0,0.0,0.0,0.0,0.0,0.0,0.0,0.0
2025/05/20 13:26:54.464566627,1747740414,464360590,mA1/imu,0.9867778976920282,-0.16207609581485743,-0.0004115337575387541,0.0007419109653707209,0.0,0.0,0.0,0.0,0.0,0.0,0.0,0.0,0.0,-0.004122784340492678,0.0015217980638772667,0.002399490098888932,0.0,0.0,0.0,0.0,0.0,0.0,0.0,0.0,0.0,0.02010067302482806,0.15736882783530087,9.811681092056618,0.0,0.0,0.0,0.0,0.0,0.0,0.0,0.0,0.0
2025/05/20 13:26:54.517970962,1747740414,516544303,mA1/imu,0.9867682143764503,-0.16213463625140162,-0.0003989185264276912,0.0008316777902042295,0.0,0.0,0.0,0.0,0.0,0.0,0.0,0.0,0.0,-0.0033623126102968054,0.0007804729154608981,0.0023592275362770564,0.0,0.0,0.0,0.0,0.0,0.0,0.0,0.0,0.0,0.019602313548753802,-0.040287005564976414,9.812113400777552,0.0,0.0,0.0,0.0,0.0,0.0,0.0,0.0,0.0
2025/05/20 13:26:54.568599099,1747740414,566351768,mA1/imu,0.9867582614946905,-0.16219474216219648,-0.0004002051997024291,0.0009158726509362491,0.0,0.0,0.0,0.0,0.0,0.0,0.0,0.0,0.0,-0.004317658735630786,0.0002831473206245401,0.0024813937919525063,0.0,0.0,0.0,0.0,0.0,0.0,0.0,0.0,0.0,0.017056927571411855,0.5411530296421829,9.812660349654239,0.0,0.0,0.0,0.0,0.0,0.0,0.0,0.0,0.0
2025/05/20 13:26:54.618607758,1747740414,618224306,mA1/imu,0.9867482190091376,-0.16225542958204792,-0.00041501290004090815,0.0009775570228317879,0.0,0.0,0.0,0.0,0.0,0.0,0.0,0.0,0.0,-0.0037969573263936566,-0.0004786242770506227,0.002447077450751646,0.0,0.0,0.0,0.0,0.0,0.0,0.0,0.0,0.0,0.019365413134326482,0.5443854643537132,9.812766867318974,0.0,0.0,0.0,0.0,0.0,0.0,0.0,0.0,0.0
2025/05/20 13:26:54.661697401,1747740414,661537194,mA1/imu,0.9867388776772722,-0.1623118056944424,-0.0004505238191657447,0.0010305535868327664,0.0,0.0,0.0,0.0,0.0,0.0,0.0,0.0,0.0,-0.002299404388046858,-0.001384663340645862,0.002186925820580901,0.0,0.0,0.0,0.0,0.0,0.0,0.0,0.0,0.0,0.01908213351275148,0.05354173651048643,9.8128224361872,0.0,0.0,0.0,0.0,0.0,0.0,0.0,0.0,0.0
2025/05/20 13:26:54.712259506,1747740414,711978588,mA1/imu,0.9867300111941587,-0.16236532932708195,-0.0004999066201070407,0.0010653331191140987,0.0,0.0,0.0,0.0,0.0,0.0,0.0,0.0,0.0,-0.0013708552279402706,-0.0019309350764517418,0.0021570336293525896,0.0,0.0,0.0,0.0,0.0,0.0,0.0,0.0,0.0,0.016372747887143994,0.23064135737480776,9.814625745254494,0.0,0.0,0.0,0.0,0.0,0.0,0.0,0.0,0.0
2025/05/20 13:26:54.761959756,1747740414,761761123,mA1/imu,0.9867212661905164,-0.16241816994005942,-0.0005579134116856931,0.001081505123055187,0.0,0.0,0.0,0.0,0.0,0.0,0.0,0.0,0.0,1.4041056280493976e-05,-0.002340236938915528,0.0021292989753251223,0.0,0.0,0.0,0.0,0.0,0.0,0.0,0.0,0.0,0.015715377028051945,-0.16177419278817495,9.81195025978055,0.0,0.0,0.0,0.0,0.0,0.0,0.0,0.0,0.0
2025/05/20 13:26:54.812982316,1747740414,812679995,mA1/imu,0.9867126412370729,-0.16247037854981866,-0.0006199965808439334,0.00107485863144712,0.0,0.0,0.0,0.0,0.0,0.0,0.0,0.0,0.0,0.0010326727614257698,-0.0025873760471213612,0.0021036986776327166,0.0,0.0,0.0,0.0,0.0,0.0,0.0,0.0,0.0,0.01448245562945919,-0.5733961868011971,9.812271075071427,0.0,0.0,0.0,0.0,0.0,0.0,0.0,0.0,0.0
2025/05/20 13:26:54.862762137,1747740414,862505370,mA1/imu,0.9867041327496118,-0.16252199164792325,-0.0006822099544834352,0.0010446220402359394,0.0,0.0,0.0,0.0,0.0,0.0,0.0,0.0,0.0,0.001849324921827003,-0.0026805211506241875,0.0020794991365967338,0.0,0.0,0.0,0.0,0.0,0.0,0.0,0.0,0.0,0.014156063464120565,-0.34950634563946925,9.812274274856826,0.0,0.0,0.0,0.0,0.0,0.0,0.0,0.0,0.0
2025/05/20 13:26:54.913993617,1747740414,913633780,mA1/imu,0.9866957270907102,-0.1625730393921396,-0.0007415162026886222,0.0009995786401337512,0.0,0.0,0.0,0.0,0.0,0.0,0.0,0.0,0.0,0.0009305188219712774,-0.0025878526743077,0.0020568134183501893,0.0,0.0,0.0,0.0,0.0,0.0,0.0,0.0,0.0,0.013144250898114388,0.5749631177469908,9.81100447026631,0.0,0.0,0.0,0.0,0.0,0.0,0.0,0.0,0.0
2025/05/20 13:26:54.963656860,1747740414,963419985,mA1/imu,0.9866873735406407,-0.16262383655816615,-0.0007925130229720235,0.0009415952865127194,0.0,0.0,0.0,0.0,0.0,0.0,0.0,0.0,0.0,0.0020245712056841314,-0.0022242320474649413,0.002053302550101506,0.0,0.0,0.0,0.0,0.0,0.0,0.0,0.0,0.0,0.009610039392699549,0.45787993145440464,9.810509064737047,0.0,0.0,0.0,0.0,0.0,0.0,0.0,0.0,0.0
2025/05/20 13:26:55.14950777,1747740415,14733105,mA1/imu,0.9866790919893369,-0.16267429720104748,-0.0008313452780909431,0.0008667907888472136,0.0,0.0,0.0,0.0,0.0,0.0,0.0,0.0,0.0,0.003954622383584878,-0.001869546196299062,0.002034271425624346,0.0,0.0,0.0,0.0,0.0,0.0,0.0,0.0,0.0,0.011756700124856948,-0.45665056864229886,9.810076699768706,0.0,0.0,0.0,0.0,0.0,0.0,0.0,0.0,0.0
2025/05/20 13:26:55.64859731,1747740415,64592239,mA1/imu,0.9866702270364597,-0.16272833867670516,-0.0008541024740592357,0.0007882767941530732,0.0,0.0,0.0,0.0,0.0,0.0,0.0,0.0,0.0,0.004520480092752651,-0.0011608155101226415,0.0022785575170840952,0.0,0.0,0.0,0.0,0.0,0.0,0.0,0.0,0.0,0.011142057948818559,-0.5477842260040935,9.807805223113407,0.0,0.0,0.0,0.0,0.0,0.0,0.0,0.0,0.0
2025/05/20 13:26:55.120289251,1747740415,119887317,mA1/imu,0.9866610136055349,-0.16278453587727118,-0.0008619393003006162,0.0007043938973612971,0.0,0.0,0.0,0.0,0.0,0.0,0.0,0.0,0.0,0.0031445054138081996,-0.0006631303121913024,0.0022725357832592366,0.0,0.0,0.0,0.0,0.0,0.0,0.0,0.0,0.0,0.012936080215355581,-0.028490059634533577,9.807250354840571,0.0,0.0,0.0,0.0,0.0,0.0,0.0,0.0,0.0
2025/05/20 13:26:55.170009349,1747740415,169639478,mA1/imu,0.9866518229829636,-0.16284061155541496,-0.0008565564752946393,0.0006178540746768062,0.0,0.0,0.0,0.0,0.0,0.0,0.0,0.0,0.0,0.0016699693120210482,-0.00013146395370184033,0.002268215182788757,0.0,0.0,0.0,0.0,0.0,0.0,0.0,0.0,0.0,0.012739438929885709,0.46268263606676113,9.80773004314417,0.0,0.0,0.0,0.0,0.0,0.0,0.0,0.0,0.0
2025/05/20 13:26:55.221261751,1747740415,220988728,mA1/imu,0.9866426519905996,-0.16289659936608683,-0.0008369613659508466,0.0005241026549209273,0.0,0.0,0.0,0.0,0.0,0.0,0.0,0.0,0.0,0.0030670654597068554,0.0003744986978515648,0.0022653252110189453,0.0,0.0,0.0,0.0,0.0,0.0,0.0,0.0,0.0,0.013073020705577778,-0.03506579107549027,9.808067678522873,0.0,0.0,0.0,0.0,0.0,0.0,0.0,0.0,0.0
2025/05/20 13:26:55.261716133,1747740415,261524839,mA1/imu,0.9866334896607065,-0.16295249297227643,-0.0008058982304943277,0.00043891012641305655,0.0,0.0,0.0,0.0,0.0,0.0,0.0,0.0,0.0,0.003131904558010309,0.0008664977808789902,0.002262283062241935,0.0,0.0,0.0,0.0,0.0,0.0,0.0,0.0,0.0,0.013367016435721376,0.6132924458285721,9.80893885303807,0.0,0.0,0.0,0.0,0.0,0.0,0.0,0.0,0.0
2025/05/20 13:26:55.312886709,1747740415,312621768,mA1/imu,0.9866243292346749,-0.16300830953758177,-0.0007660976128857431,0.00037024096914330075,0.0,0.0,0.0,0.0,0.0,0.0,0.0,0.0,0.0,0.0034239290317171086,0.0012824534447913513,0.0022606671902431264,0.0,0.0,0.0,0.0,0.0,0.0,0.0,0.0,0.0,0.013076835557592877,0.0356124621195744,9.807055264445694,0.0,0.0,0.0,0.0,0.0,0.0,0.0,0.0,0.0
2025/05/20 13:26:55.362573190,1747740415,362391018,mA1/imu,0.9866151615526016,-0.1630641092255409,-0.000719313236877761,0.00031916372256517286,0.0,0.0,0.0,0.0,0.0,0.0,0.0,0.0,0.0,0.002973027998886754,0.0016354975849315638,0.002261563018573533,0.0,0.0,0.0,0.0,0.0,0.0,0.0,0.0,0.0,0.01362820451663893,-0.5908461845597811,9.80567446999085,0.0,0.0,0.0,0.0,0.0,0.0,0.0,0.0,0.0
2025/05/20 13:26:55.413664003,1747740415,413450195,mA1/imu,0.986605987061891,-0.1631199224460034,-0.0006656583187778283,0.0002722018449509042,0.0,0.0,0.0,0.0,0.0,0.0,0.0,0.0,0.0,0.002619231113303178,0.0019034973839948848,0.002262622020717964,0.0,0.0,0.0,0.0,0.0,0.0,0.0,0.0,0.0,0.013864198218799147,-0.5712933593410006,9.80630245795907,0.0,0.0,0.0,0.0,0.0,0.0,0.0,0.0,0.0
2025/05/20 13:26:55.463420001,1747740415,463240713,mA1/imu,0.9865967280038526,-0.16317618510687404,-0.0006077466719512012,0.00024402877298031436,0.0,0.0,0.0,0.0,0.0,0.0,0.0,0.0,0.0,0.0007058877285187494,0.002206450384370815,0.002291098826350787,0.0,0.0,0.0,0.0,0.0,0.0,0.0,0.0,0.0,0.013038829646705514,0.5994961870482352,9.809129986902162,0.0,0.0,0.0,0.0,0.0,0.0,0.0,0.0,0.0
2025/05/20 13:26:55.514431843,1747740415,514230843,mA1/imu,0.9865874051586202,-0.1632327593951155,-0.0005501342867097676,0.00023578571499704808,0.0,0.0,0.0,0.0,0.0,0.0,0.0,0.0,0.0,-0.00012911791637308125,0.002220545263906884,0.002296307105555598,0.0,0.0,0.0,0.0,0.0,0.0,0.0,0.0,0.0,0.014979732268494092,0.5961109289588882,9.810591317796185,0.0,0.0,0.0,0.0,0.0,0.0,0.0,0.0,0.0
2025/05/20 13:26:55.564379407,1747740415,564151077,mA1/imu,0.9865780388306272,-0.1632895038384076,-0.0004977733266450415,0.0002519028292462677,0.0,0.0,0.0,0.0,0.0,0.0,0.0,0.0,0.0,-0.0014020140626914057,0.002119827880113131,0.002304523515831508,0.0,0.0,0.0,0.0,0.0,0.0,0.0,0.0,0.0,0.015279801158086942,0.48031383072737766,9.80954678464558,0.0,0.0,0.0,0.0,0.0,0.0,0.0,0.0,0.0
2025/05/20 13:26:55.616176269,1747740415,615568091,mA1/imu,0.9865686275136275,-0.1633464486591906,-0.0004518893882001482,0.000276969833295622,0.0,0.0,0.0,0.0,0.0,0.0,0.0,0.0,0.0,-0.0007058821441478763,0.0018694217606693847,0.0023137148674491057,0.0,0.0,0.0,0.0,0.0,0.0,0.0,0.0,0.0,0.015370027824080179,-0.29899953934953744,9.810298789201761,0.0,0.0,0.0,0.0,0.0,0.0,0.0,0.0,0.0
2025/05/20 13:26:55.666243350,1747740415,665346203,mA1/imu,0.9865592257987961,-0.16340323766056342,-0.00041702915372590995,0.00031937440467063146,0.0,0.0,0.0,0.0,0.0,0.0,0.0,0.0,0.0,-0.0019195177763918336,0.0014960443344403907,0.002296972497307551,0.0,0.0,0.0,0.0,0.0,0.0,0.0,0.0,0.0,0.016543383624905504,0.34440344683441176,9.810980654143142,0.0,0.0,0.0,0.0,0.0,0.0,0.0,0.0,0.0
2025/05/20 13:26:55.716502673,1747740415,716320631,mA1/imu,0.9865498028512861,-0.1634600695853707,-0.000393533711237631,0.00037050837062538756,0.0,0.0,0.0,0.0,0.0,0.0,0.0,0.0,0.0,-0.0026980914021756015,0.001104955582656342,0.002311245759748465,0.0,0.0,0.0,0.0,0.0,0.0,0.0,0.0,0.0,0.015375479848426382,0.6061812268863551,9.811337307250266,0.0,0.0,0.0,0.0,0.0,0.0,0.0,0.0,0.0
2025/05/20 13:26:55.766583641,1747740415,766306515,mA1/imu,0.9865405419812172,-0.1635158117812549,-0.00038428594241464843,0.0004366339861704533,0.0,0.0,0.0,0.0,0.0,0.0,0.0,0.0,0.0,-0.0008495513150110336,0.0005943892621122833,0.0022339350971230434,0.0,0.0,0.0,0.0,0.0,0.0,0.0,0.0,0.0,0.01477666351411592,-0.12377711235641485,9.81301951358319,0.0,0.0,0.0,0.0,0.0,0.0,0.0,0.0,0.0
2025/05/20 13:26:55.818218329,1747740415,817719036,mA1/imu,0.9865313474384184,-0.16357100014464027,-0.0003903709971503995,0.0005253984251944726,0.0,0.0,0.0,0.0,0.0,0.0,0.0,0.0,0.0,-0.002484564381705148,0.00013940485146199226,0.0022433900940218277,0.0,0.0,0.0,0.0,0.0,0.0,0.0,0.0,0.0,0.014620166311407088,-0.5790071869585519,9.810862883029266,0.0,0.0,0.0,0.0,0.0,0.0,0.0,0.0,0.0
2025/05/20 13:26:55.867987182,1747740415,867629161,mA1/imu,0.9865216436719488,-0.16362924778793406,-0.000400882000679215,0.0005959268184281997,0.0,0.0,0.0,0.0,0.0,0.0,0.0,0.0,0.0,-0.0030278602988162476,-1.557688672951287e-05,0.00243964277323622,0.0,0.0,0.0,0.0,0.0,0.0,0.0,0.0,0.0,0.009770720168879221,0.02166574495020352,9.814986768053386,0.0,0.0,0.0,0.0,0.0,0.0,0.0,0.0,0.0
2025/05/20 13:26:55.920338867,1747740415,920028827,mA1/imu,0.98651155968138,-0.1636896392490749,-0.00042307938733223175,0.0006823645293427878,0.0,0.0,0.0,0.0,0.0,0.0,0.0,0.0,0.0,-0.0015735260850255,-0.0005123299975256571,0.0024573953358640816,0.0,0.0,0.0,0.0,0.0,0.0,0.0,0.0,0.0,0.014343016487576538,-0.5031614536398643,9.811286529800116,0.0,0.0,0.0,0.0,0.0,0.0,0.0,0.0,0.0
2025/05/20 13:26:55.970289347,1747740415,970085529,mA1/imu,0.986501388214328,-0.16375050271824335,-0.00045498168515422743,0.0007595409091244152,0.0,0.0,0.0,0.0,0.0,0.0,0.0,0.0,0.0,-0.004077444203236441,-0.0009182580799750974,0.002476271421025872,0.0,0.0,0.0,0.0,0.0,0.0,0.0,0.0,0.0,0.014942929040602815,0.2619509123556292,9.813271062892923,0.0,0.0,0.0,0.0,0.0,0.0,0.0,0.0,0.0
2025/05/20 13:26:56.11648621,1747740416,11058025,mA1/imu,0.9864911349196867,-0.16381183946222708,-0.0004945816628189673,0.0008230223865374192,0.0,0.0,0.0,0.0,0.0,0.0,0.0,0.0,0.0,-0.004118880906880783,-0.001279547530222275,0.0024921620152603694,0.0,0.0,0.0,0.0,0.0,0.0,0.0,0.0,0.0,0.014407737668533392,0.5445345673374548,9.812660233490615,0.0,0.0,0.0,0.0,0.0,0.0,0.0,0.0,0.0
2025/05/20 13:26:56.61368058,1747740416,61185380,mA1/imu,0.9864824787342885,-0.16386343873691672,-0.0005578328121319498,0.0008839785746511669,0.0,0.0,0.0,0.0,0.0,0.0,0.0,0.0,0.0,-0.0024906731691931366,-0.0025586659345919163,0.0018285516315734332,0.0,0.0,0.0,0.0,0.0,0.0,0.0,0.0,0.0,0.026179708214178612,0.0035766839346752614,9.812371663278325,0.0,0.0,0.0,0.0,0.0,0.0,0.0,0.0,0.0
2025/05/20 13:26:56.112630640,1747740416,112324858,mA1/imu,0.9864751062402005,-0.16390731112337287,-0.0006304278959029327,0.000927733452517224,0.0,0.0,0.0,0.0,0.0,0.0,0.0,0.0,0.0,-0.000902988541100079,-0.0025764704752453916,0.0017684496149551773,0.0,0.0,0.0,0.0,0.0,0.0,0.0,0.0,0.0,0.00985086463459852,-0.5441155404103905,9.809895317057057,0.0,0.0,0.0,0.0,0.0,0.0,0.0,0.0,0.0
2025/05/20 13:26:56.163819766,1747740416,163604692,mA1/imu,0.9864678919650761,-0.16395027712678026,-0.0006997746664263685,0.0009565915781332559,0.0,0.0,0.0,0.0,0.0,0.0,0.0,0.0,0.0,-0.0016900668632808002,-0.0025044998543046174,0.0017236430347551566,0.0,0.0,0.0,0.0,0.0,0.0,0.0,0.0,0.0,0.011077684300836681,0.6128304838893484,9.811385103944986,0.0,0.0,0.0,0.0,0.0,0.0,0.0,0.0,0.0
2025/05/20 13:26:56.217121267,1747740416,216621005,mA1/imu,0.986460780146546,-0.16399266607559077,-0.0007626371609071936,0.0009762636161599348,0.0,0.0,0.0,0.0,0.0,0.0,0.0,0.0,0.0,3.610504199369202e-05,-0.0022324724437014706,0.0017134097422114667,0.0,0.0,0.0,0.0,0.0,0.0,0.0,0.0,0.0,0.008657437828612087,-0.09492904846651118,9.809207040688198,0.0,0.0,0.0,0.0,0.0,0.0,0.0,0.0,0.0
2025/05/20 13:26:56.267277141,1747740416,266971622,mA1/imu,0.9864537330662333,-0.16403482797163735,-0.0008124270766165612,0.0009734958926225963,0.0,0.0,0.0,0.0,0.0,0.0,0.0,0.0,0.0,0.0011690116709042878,-0.0018169934998410197,0.0017043314926614608,0.0,0.0,0.0,0.0,0.0,0.0,0.0,0.0,0.0,0.008792156612773692,-0.5471521478024975,9.809439389384174,0.0,0.0,0.0,0.0,0.0,0.0,0.0,0.0,0.0
2025/05/20 13:26:56.318900786,1747740416,318345350,mA1/imu,0.9864467476636622,-0.16407677475066745,-0.0008470667104236786,0.0009531469926411058,0.0,0.0,0.0,0.0,0.0,0.0,0.0,0.0,0.0,0.0018896182143294431,-0.0012966335600376826,0.0016956920365511715,0.0,0.0,0.0,0.0,0.0,0.0,0.0,0.0,0.0,0.008192747242928603,-0.5474565276809414,9.809573732138025,0.0,0.0,0.0,0.0,0.0,0.0,0.0,0.0,0.0
2025/05/20 13:26:56.368656296,1747740416,368271362,mA1/imu,0.9864398206096222,-0.1641185141325592,-0.0008653621835535508,0.0009191207041656262,0.0,0.0,0.0,0.0,0.0,0.0,0.0,0.0,0.0,0.002361560617761043,-0.0007125947728333413,0.001687151148240157,0.0,0.0,0.0,0.0,0.0,0.0,0.0,0.0,0.0,0.008272020843833949,-0.4753912561229682,9.80647779683145,0.0,0.0,0.0,0.0,0.0,0.0,0.0,0.0,0.0
2025/05/20 13:26:56.419982818,1747740416,419405818,mA1/imu,0.9864329746165165,-0.16415989510067178,-0.0008663037901612446,0.0008746127661067233,0.0,0.0,0.0,0.0,0.0,0.0,0.0,0.0,0.0,0.001023677859960391,-8.254468420384484e-05,0.0016494388465441827,0.0,0.0,0.0,0.0,0.0,0.0,0.0,0.0,0.0,0.008943537973111527,0.47485125139627876,9.809299231949176,0.0,0.0,0.0,0.0,0.0,0.0,0.0,0.0,0.0
2025/05/20 13:26:56.470038376,1747740416,469456520,mA1/imu,0.9864265877836677,-0.1641986891658554,-0.0008483774591571169,0.0008109533723170039,0.0,0.0,0.0,0.0,0.0,0.0,0.0,0.0,0.0,0.0012140371028342973,0.000554664440069453,0.0015466202020060775,0.0,0.0,0.0,0.0,0.0,0.0,0.0,0.0,0.0,0.00750098056513248,0.5352117714479111,9.807454628928546,0.0,0.0,0.0,0.0,0.0,0.0,0.0,0.0,0.0
2025/05/20 13:26:56.511343810,1747740416,511054425,mA1/imu,0.9864203597986324,-0.16423662423898272,-0.0008134255446199852,0.0007371378454766619,0.0,0.0,0.0,0.0,0.0,0.0,0.0,0.0,0.0,0.0034915888247781233,0.0011295224602331018,0.0015295664180224712,0.0,0.0,0.0,0.0,0.0,0.0,0.0,0.0,0.0,0.008194509942754035,0.030521542782790137,9.809270116234497,0.0,0.0,0.0,0.0,0.0,0.0,0.0,0.0,0.0
2025/05/20 13:26:56.561228866,1747740416,560973792,mA1/imu,0.9864143164089748,-0.16427349594466936,-0.0007642097605997675,0.0006564274321815297,0.0,0.0,0.0,0.0,0.0,0.0,0.0,0.0,0.0,0.005592902000658723,0.0015633572493923187,0.0014617832255225628,0.0,0.0,0.0,0.0,0.0,0.0,0.0,0.0,0.0,0.0114150003028639,-0.4754263016966932,9.807188964111798,0.0,0.0,0.0,0.0,0.0,0.0,0.0,0.0,0.0
2025/05/20 13:26:56.612193333,1747740416,611975853,mA1/imu,0.986408431899589,-0.1643093293775671,-0.0007065967921920146,0.0005920117070789693,0.0,0.0,0.0,0.0,0.0,0.0,0.0,0.0,0.0,0.004513081972057129,0.0019943734236232196,0.0014459610191474032,0.0,0.0,0.0,0.0,0.0,0.0,0.0,0.0,0.0,0.009149438811474165,-0.5579990157607264,9.806447479136082,0.0,0.0,0.0,0.0,0.0,0.0,0.0,0.0,0.0
2025/05/20 13:26:56.664142997,1747740416,663776335,mA1/imu,0.9864026173629381,-0.16434478260372257,-0.0006373969939256533,0.0005124602936835656,0.0,0.0,0.0,0.0,0.0,0.0,0.0,0.0,0.0,0.0026797530320915373,0.0023224268418366822,0.0014301181441354364,0.0,0.0,0.0,0.0,0.0,0.0,0.0,0.0,0.0,0.009470274073916643,-0.37508117678324604,9.80810580206717,0.0,0.0,0.0,0.0,0.0,0.0,0.0,0.0,0.0
2025/05/20 13:26:56.716149969,1747740416,715809147,mA1/imu,0.9863968564700865,-0.16437984810977088,-0.0005630698852440565,0.0004359284856498319,0.0,0.0,0.0,0.0,0.0,0.0,0.0,0.0,0.0,0.001805491203882245,0.0024877075233101014,0.0014147507523906578,0.0,0.0,0.0,0.0,0.0,0.0,0.0,0.0,0.0,0.011197386468218832,0.10302424415738956,9.8099668179117,0.0,0.0,0.0,0.0,0.0,0.0,0.0,0.0,0.0
2025/05/20 13:26:56.766428239,1747740416,766207699,mA1/imu,0.9863911456368205,-0.1644145334515914,-0.00048742819995914916,0.00036250920840700905,0.0,0.0,0.0,0.0,0.0,0.0,0.0,0.0,0.0,0.0024601345161574593,0.0025074180924362847,0.0013997985165740165,0.0,0.0,0.0,0.0,0.0,0.0,0.0,0.0,0.0,0.01008347771086126,-0.029165450432195657,9.809905069399385,0.0,0.0,0.0,0.0,0.0,0.0,0.0,0.0,0.0
2025/05/20 13:26:56.818081915,1747740416,817636230,mA1/imu,0.9863854790602801,-0.16444884444397312,-0.0004157885321849195,0.0003022911844142894,0.0,0.0,0.0,0.0,0.0,0.0,0.0,0.0,0.0,0.0029703161997053284,0.0023678516479319193,0.0013849730577832492,0.0,0.0,0.0,0.0,0.0,0.0,0.0,0.0,0.0,0.011197411616284361,0.037526107553139176,9.810202611705362,0.0,0.0,0.0,0.0,0.0,0.0,0.0,0.0,0.0
2025/05/20 13:26:56.868796806,1747740416,868387266,mA1/imu,0.9863798579457556,-0.16448278047312134,-0.000352309377724604,0.00025815662729285975,0.0,0.0,0.0,0.0,0.0,0.0,0.0,0.0,0.0,0.0013112803881394168,0.00210413903480604,0.0013700927838241213,0.0,0.0,0.0,0.0,0.0,0.0,0.0,0.0,0.0,0.011385835741336801,0.5532022928227132,9.811400475704605,0.0,0.0,0.0,0.0,0.0,0.0,0.0,0.0,0.0
2025/05/20 13:26:56.919685261,1747740416,919388450,mA1/imu,0.9863742856661835,-0.16451634170842222,-0.0002999541332089429,0.00022784846275078843,0.0,0.0,0.0,0.0,0.0,0.0,0.0,0.0,0.0,0.00045242899818699085,0.0017037159195554695,0.0013547969724876559,0.0,0.0,0.0,0.0,0.0,0.0,0.0,0.0,0.0,0.01204100227170265,0.5839596569227079,9.811616446097686,0.0,0.0,0.0,0.0,0.0,0.0,0.0,0.0,0.0
2025/05/20 13:26:56.969491191,1747740416,969271020,mA1/imu,0.9863687631846385,-0.16454952419962515,-0.00026245627613985257,0.00021958139001927246,0.0,0.0,0.0,0.0,0.0,0.0,0.0,0.0,0.0,-0.00013698698882048702,0.0012316391309140067,0.001339684386944011,0.0,0.0,0.0,0.0,0.0,0.0,0.0,0.0,0.0,0.011970300773474968,0.4093745090070425,9.81237237195763,0.0,0.0,0.0,0.0,0.0,0.0,0.0,0.0,0.0
2025/05/20 13:26:57.20751135,1747740417,20410436,mA1/imu,0.9863632927649255,-0.16458234004786473,-0.00024034385646061723,0.00022419887092643307,0.0,0.0,0.0,0.0,0.0,0.0,0.0,0.0,0.0,0.00018671686175962242,0.0006769991996770206,0.0013253094151038645,0.0,0.0,0.0,0.0,0.0,0.0,0.0,0.0,0.0,0.012169881806908306,-0.5863619030163074,9.811410471274028,0.0,0.0,0.0,0.0,0.0,0.0,0.0,0.0,0.0
2025/05/20 13:26:57.61498261,1747740417,61239339,mA1/imu,0.9863578713872436,-0.16461480143377658,-0.0002359461156074033,0.0002470440738898418,0.0,0.0,0.0,0.0,0.0,0.0,0.0,0.0,0.0,-0.0018239501667624005,9.196632974971196e-05,0.0013109105905174283,0.0,0.0,0.0,0.0,0.0,0.0,0.0,0.0,0.0,0.012492173720684969,0.5857982010174273,9.813652785620887,0.0,0.0,0.0,0.0,0.0,0.0,0.0,0.0,0.0
2025/05/20 13:26:57.112853386,1747740417,112627926,mA1/imu,0.986352499017674,-0.16464690765500514,-0.0002489207749202321,0.0002855165172002034,0.0,0.0,0.0,0.0,0.0,0.0,0.0,0.0,0.0,-0.0016975773120608585,-0.00048238014704585826,0.0012966966885043403,0.0,0.0,0.0,0.0,0.0,0.0,0.0,0.0,0.0,0.01151817963687229,0.01532614264701682,9.811966573537255,0.0,0.0,0.0,0.0,0.0,0.0,0.0,0.0,0.0
2025/05/20 13:26:57.162929567,1747740417,162628041,mA1/imu,0.9863432748862474,-0.16470204301957925,-0.0002457285460680239,0.00034746126563315076,0.0,0.0,0.0,0.0,0.0,0.0,0.0,0.0,0.0,-0.0017619021945341293,0.0016175312370500024,0.0031800740440835933,0.0,0.0,0.0,0.0,0.0,0.0,0.0,0.0,0.0,-0.0925485512191698,-0.5744565307669048,9.812188377719615,0.0,0.0,0.0,0.0,0.0,0.0,0.0,0.0,0.0
2025/05/20 13:26:57.214226418,1747740417,214048805,mA1/imu,0.9863244434796647,-0.1648146747461793,-0.00017759533727334641,0.0004285355723471465,0.0,0.0,0.0,0.0,0.0,0.0,0.0,0.0,0.0,-0.0026746674220207256,0.004171138717988146,0.005491023545215277,0.0,0.0,0.0,0.0,0.0,0.0,0.0,0.0,0.0,-0.08443851899180352,-0.5327483646608875,9.81312835855967,0.0,0.0,0.0,0.0,0.0,0.0,0.0,0.0,0.0
2025/05/20 13:26:57.264217132,1747740417,263920984,mA1/imu,0.9862961832124618,-0.16498348033892313,-5.8630894486042255e-05,0.0005354980900759184,0.0,0.0,0.0,0.0,0.0,0.0,0.0,0.0,0.0,-0.0041544392651362855,0.006144527453116072,0.0077371716544546625,0.0,0.0,0.0,0.0,0.0,0.0,0.0,0.0,0.0,-0.07902636741233117,0.5119014625866114,9.81306902936404,0.0,0.0,0.0,0.0,0.0,0.0,0.0,0.0,0.0
2025/05/20 13:26:57.316068463,1747740417,314886789,mA1/imu,0.9862617008095458,-0.1651890310436278,6.967095756893601e-05,0.0006608215243181397,0.0,0.0,0.0,0.0,0.0,0.0,0.0,0.0,0.0,-0.0047346659484953126,0.005646798071553379,0.008744965421572428,0.0,0.0,0.0,0.0,0.0,0.0,0.0,0.0,0.0,-0.011532282756715669,-0.12794621283679924,9.812346887259876,0.0,0.0,0.0,0.0,0.0,0.0,0.0,0.0,0.0
2025/05/20 13:26:57.364961455,1747740417,364812148,mA1/imu,0.9862235580798389,-0.1654159980900619,0.00017460792945460374,0.000781393807404852,0.0,0.0,0.0,0.0,0.0,0.0,0.0,0.0,0.0,-0.006131790299442924,0.0041226345722892134,0.009328163978041364,0.0,0.0,0.0,0.0,0.0,0.0,0.0,0.0,0.0,0.03727326347024861,0.26195022905164106,9.810243747057708,0.0,0.0,0.0,0.0,0.0,0.0,0.0,0.0,0.0
2025/05/20 13:26:57.417084904,1747740417,415967704,mA1/imu,0.9861846385119499,-0.16564726860513695,0.0002195628317971472,0.0008904823834426177,0.0,0.0,0.0,0.0,0.0,0.0,0.0,0.0,0.0,-0.005802703567709604,0.0014447272240104602,0.009408821844600618,0.0,0.0,0.0,0.0,0.0,0.0,0.0,0.0,0.0,0.036721243230256814,0.5161296526987518,9.809406469703028,0.0,0.0,0.0,0.0,0.0,0.0,0.0,0.0,0.0
2025/05/20 13:26:57.466271102,1747740417,465980976,mA1/imu,0.9861455058994796,-0.1658795854062726,0.00019873292768830543,0.0009822652015025882,0.0,0.0,0.0,0.0,0.0,0.0,0.0,0.0,0.0,-0.0043100810153265294,-0.0012928944699861264,0.009424673138384385,0.0,0.0,0.0,0.0,0.0,0.0,0.0,0.0,0.0,0.03855916560546614,0.613590112052993,9.809582686847145,0.0,0.0,0.0,0.0,0.0,0.0,0.0,0.0,0.0
2025/05/20 13:26:57.517379821,1747740417,516924574,mA1/imu,0.9861061129029142,-0.16611312002893355,0.00011093278686768277,0.0010738452751303607,0.0,0.0,0.0,0.0,0.0,0.0,0.0,0.0,0.0,-0.0014892869781642944,-0.0038962176150753405,0.009492009659390614,0.0,0.0,0.0,0.0,0.0,0.0,0.0,0.0,0.0,0.03294270755799977,-0.47404809071157705,9.806777618497254,0.0,0.0,0.0,0.0,0.0,0.0,0.0,0.0,0.0
2025/05/20 13:26:57.566973403,1747740417,566753713,mA1/imu,0.9860667054716181,-0.16634645382943042,-3.3449469206665936e-05,0.0011439142692135985,0.0,0.0,0.0,0.0,0.0,0.0,0.0,0.0,0.0,-0.002296724033643677,-0.006111593844743532,0.009435154312195842,0.0,0.0,0.0,0.0,0.0,0.0,0.0,0.0,0.0,0.032885379587563004,-0.3247432958545313,9.808257519103067,0.0,0.0,0.0,0.0,0.0,0.0,0.0,0.0,0.0
2025/05/20 13:26:57.620069956,1747740417,617755280,mA1/imu,0.9860274833508232,-0.16657833694147212,-0.00022289906738152254,0.0011874572250396421,0.0,0.0,0.0,0.0,0.0,0.0,0.0,0.0,0.0,-0.001696639820600989,-0.007867293149513954,0.009375052011724562,0.0,0.0,0.0,0.0,0.0,0.0,0.0,0.0,0.0,0.02827903409036655,-0.5653524248722037,9.808415678446107,0.0,0.0,0.0,0.0,0.0,0.0,0.0,0.0,0.0
2025/05/20 13:26:57.670035248,1747740417,669652596,mA1/imu,0.9859886337925061,-0.16680741895988296,-0.0004478173220937692,0.001224120735561917,0.0,0.0,0.0,0.0,0.0,0.0,0.0,0.0,0.0,-0.003773812743071669,-0.00909365225682675,0.009224724012936959,0.0,0.0,0.0,0.0,0.0,0.0,0.0,0.0,0.0,0.02727381404317784,-0.15594365110978356,9.807029836444782,0.0,0.0,0.0,0.0,0.0,0.0,0.0,0.0,0.0
2025/05/20 13:26:57.720999860,1747740417,720675067,mA1/imu,0.9859501811158693,-0.16703391165067735,-0.0006856288902510187,0.0012010950349129377,0.0,0.0,0.0,0.0,0.0,0.0,0.0,0.0,0.0,-0.0019799703007545,-0.009727361614690146,0.00912161512354935,0.0,0.0,0.0,0.0,0.0,0.0,0.0,0.0,0.0,0.021396652643740154,0.5625129565065926,9.807413700931912,0.0,0.0,0.0,0.0,0.0,0.0,0.0,0.0,0.0
2025/05/20 13:26:57.760730179,1747740417,760532939,mA1/imu,0.9859124404295165,-0.16725547065809054,-0.0009320782641089436,0.0011826120940536997,0.0,0.0,0.0,0.0,0.0,0.0,0.0,0.0,0.0,-0.0010514321257624843,-0.009841956575862057,0.008916408597145398,0.0,0.0,0.0,0.0,0.0,0.0,0.0,0.0,0.0,0.020894479067303542,0.57606892452099,9.808256404820959,0.0,0.0,0.0,0.0,0.0,0.0,0.0,0.0,0.0
2025/05/20 13:26:57.815056162,1747740417,814509925,mA1/imu,0.9858750831816663,-0.16747437127631068,-0.0011667837057558988,0.0011375161234494398,0.0,0.0,0.0,0.0,0.0,0.0,0.0,0.0,0.0,0.0008880750961976786,-0.009305361917571265,0.008837926248743562,0.0,0.0,0.0,0.0,0.0,0.0,0.0,0.0,0.0,0.017318574464394387,0.01899402810557593,9.807302504335071,0.0,0.0,0.0,0.0,0.0,0.0,0.0,0.0,0.0
2025/05/20 13:26:57.865402092,1747740417,865157158,mA1/imu,0.985838131379681,-0.16769055680859205,-0.0013782604821667543,0.00107530139329369,0.0,0.0,0.0,0.0,0.0,0.0,0.0,0.0,0.0,0.0033325228810265136,-0.008341382436475751,0.00871332144930607,0.0,0.0,0.0,0.0,0.0,0.0,0.0,0.0,0.0,0.017606186665794676,-0.41058272276036534,9.809412003301764,0.0,0.0,0.0,0.0,0.0,0.0,0.0,0.0,0.0
2025/05/20 13:26:57.917789701,1747740417,917349809,mA1/imu,0.9858015399644036,-0.16790432034153308,-0.0015564252509524454,0.0010200759268182086,0.0,0.0,0.0,0.0,0.0,0.0,0.0,0.0,0.0,0.001193808590316797,-0.006776373882286881,0.008632955250623284,0.0,0.0,0.0,0.0,0.0,0.0,0.0,0.0,0.0,0.015940721838110086,-0.7073372268260658,9.809609051517677,0.0,0.0,0.0,0.0,0.0,0.0,0.0,0.0,0.0
2025/05/20 13:26:57.969190745,1747740417,968551387,mA1/imu,0.9857655577874717,-0.16811486587973543,-0.0016806491567669473,0.0009123423728480632,0.0,0.0,0.0,0.0,0.0,0.0,0.0,0.0,0.0,0.0017375767442239694,-0.004772421820955184,0.008461085763167777,0.0,0.0,0.0,0.0,0.0,0.0,0.0,0.0,0.0,0.012249082197669466,0.543739624408163,9.809035040495852,0.0,0.0,0.0,0.0,0.0,0.0,0.0,0.0,0.0
2025/05/20 13:26:58.12070364,1747740418,11136356,mA1/imu,0.9857301155361625,-0.1683222571809364,-0.0017542153261130833,0.0008244944923597856,0.0,0.0,0.0,0.0,0.0,0.0,0.0,0.0,0.0,0.004914260247608428,-0.0026229204747962795,0.008371178597608575,0.0,0.0,0.0,0.0,0.0,0.0,0.0,0.0,0.0,0.012649376293199403,-0.5195803817146082,9.809250430290582,0.0,0.0,0.0,0.0,0.0,0.0,0.0,0.0,0.0
2025/05/20 13:26:58.62462566,1747740418,62118738,mA1/imu,0.9856959968130784,-0.1685222053113212,-0.0017710405927721894,0.0007291082905596252,0.0,0.0,0.0,0.0,0.0,0.0,0.0,0.0,0.0,0.0035458651730881467,-0.0005064499188829939,0.007873288562928554,0.0,0.0,0.0,0.0,0.0,0.0,0.0,0.0,0.0,0.022771660726106306,-0.04124008285818237,9.810880856604646,0.0,0.0,0.0,0.0,0.0,0.0,0.0,0.0,0.0
2025/05/20 13:26:58.113681041,1747740418,113287988,mA1/imu,0.9856645250323212,-0.1687069256722659,-0.0017373006503331758,0.0006317511150905047,0.0,0.0,0.0,0.0,0.0,0.0,0.0,0.0,0.0,0.004662050621523575,0.0014776184621612162,0.007240931546714021,0.0,0.0,0.0,0.0,0.0,0.0,0.0,0.0,0.0,0.025065202937075027,0.028151870675418224,9.815984777288874,0.0,0.0,0.0,0.0,0.0,0.0,0.0,0.0,0.0
2025/05/20 13:26:58.163466501,1747740418,163202977,mA1/imu,0.9856357347423896,-0.1688761245087124,-0.001656224484118417,0.0005566778296804107,0.0,0.0,0.0,0.0,0.0,0.0,0.0,0.0,0.0,0.004912423861723284,0.0033298445943002134,0.006582078472622782,0.0,0.0,0.0,0.0,0.0,0.0,0.0,0.0,0.0,0.03124577593441517,-0.5879489743748201,9.809129595573578,0.0,0.0,0.0,0.0,0.0,0.0,0.0,0.0,0.0
2025/05/20 13:26:58.214596447,1747740418,214323166,mA1/imu,0.9856097143746548,-0.1690293635792923,-0.0015277167689386507,0.00048089475439248353,0.0,0.0,0.0,0.0,0.0,0.0,0.0,0.0,0.0,0.0033629731302436267,0.0052766101907909865,0.005964236169912578,0.0,0.0,0.0,0.0,0.0,0.0,0.0,0.0,0.0,0.019666468854497413,-0.043503284412780216,9.811463608553266,0.0,0.0,0.0,0.0,0.0,0.0,0.0,0.0,0.0
2025/05/20 13:26:58.265740056,1747740418,265423186,mA1/imu,0.9855863482475281,-0.16916715272658028,-0.0013594472986904027,0.00042010656547290966,0.0,0.0,0.0,0.0,0.0,0.0,0.0,0.0,0.0,0.0046253612753570554,0.00681724272273481,0.005342862536239637,0.0,0.0,0.0,0.0,0.0,0.0,0.0,0.0,0.0,0.017598401057452286,-0.5580134833798782,9.813083656176275,0.0,0.0,0.0,0.0,0.0,0.0,0.0,0.0,0.0
2025/05/20 13:26:58.319075478,1747740418,317312178,mA1/imu,0.985565640764495,-0.16928930545516552,-0.0011610684379341762,0.0003882306793256978,0.0,0.0,0.0,0.0,0.0,0.0,0.0,0.0,0.0,0.0026080266920388913,0.007977113001111499,0.004695007817370131,0.0,0.0,0.0,0.0,0.0,0.0,0.0,0.0,0.0,0.02832825453598612,-0.6703826901175521,9.80999115828432,0.0,0.0,0.0,0.0,0.0,0.0,0.0,0.0,0.0
2025/05/20 13:26:58.368561944,1747740418,367397481,mA1/imu,0.9855476372986463,-0.1693955472805178,-0.0009394225971585681,0.00034736403659874407,0.0,0.0,0.0,0.0,0.0,0.0,0.0,0.0,0.0,0.0028778335877164616,0.008782713194484653,0.004056188802444345,0.0,0.0,0.0,0.0,0.0,0.0,0.0,0.0,0.0,0.020665476522483756,0.026458894027357488,9.815788817620108,0.0,0.0,0.0,0.0,0.0,0.0,0.0,0.0,0.0
2025/05/20 13:26:58.419411577,1747740418,419044842,mA1/imu,0.9855323203658671,-0.16948573132532316,-0.0007123327533425782,0.0003535158252485599,0.0,0.0,0.0,0.0,0.0,0.0,0.0,0.0,0.0,0.002021482435897365,0.009015452160070292,0.0033908097831466142,0.0,0.0,0.0,0.0,0.0,0.0,0.0,0.0,0.0,0.01608304745139379,0.021807696987027263,9.811231178709473,0.0,0.0,0.0,0.0,0.0,0.0,0.0,0.0,0.0
2025/05/20 13:26:58.469789725,1747740418,469557309,mA1/imu,0.9855197526176234,-0.16955957354389176,-0.00048480671370228245,0.0003649418619179206,0.0,0.0,0.0,0.0,0.0,0.0,0.0,0.0,0.0,-0.0006488975960360143,0.009010231921715118,0.0027436009433774037,0.0,0.0,0.0,0.0,0.0,0.0,0.0,0.0,0.0,0.015717450187130614,0.5113318857767033,9.811044965198999,0.0,0.0,0.0,0.0,0.0,0.0,0.0,0.0,0.0
2025/05/20 13:26:58.520877058,1747740418,520659863,mA1/imu,0.9855099560311826,-0.16961693676870357,-0.000270260547520655,0.0003850764267707193,0.0,0.0,0.0,0.0,0.0,0.0,0.0,0.0,0.0,0.000508136227087067,0.008377276120556734,0.002067740539933781,0.0,0.0,0.0,0.0,0.0,0.0,0.0,0.0,0.0,0.014859923863881217,0.6271708958857273,9.813688956579696,0.0,0.0,0.0,0.0,0.0,0.0,0.0,0.0,0.0
2025/05/20 13:26:58.561592775,1747740418,561247036,mA1/imu,0.9855022811408662,-0.16966158860192168,-7.582898265913122e-05,0.000439851323430015,0.0,0.0,0.0,0.0,0.0,0.0,0.0,0.0,0.0,-0.0009591703180031775,0.007733094302433292,0.0016858686186502847,0.0,0.0,0.0,0.0,0.0,0.0,0.0,0.0,0.0,0.009421552996540291,-0.035564168358506565,9.807132892433556,0.0,0.0,0.0,0.0,0.0,0.0,0.0,0.0,0.0
2025/05/20 13:26:58.618424414,1747740418,615926840,mA1/imu,0.9854956803008802,-0.16969979547982206,0.0001004337323527619,0.00048315160918864053,0.0,0.0,0.0,0.0,0.0,0.0,0.0,0.0,0.0,-0.001875119126020095,0.006936005523454955,0.0015047197456644677,0.0,0.0,0.0,0.0,0.0,0.0,0.0,0.0,0.0,0.0003165988868463008,0.5704288333053692,9.809191708543466,0.0,0.0,0.0,0.0,0.0,0.0,0.0,0.0,0.0
2025/05/20 13:26:58.666738815,1747740418,666455412,mA1/imu,0.9854878342949824,-0.1697449797923311,0.0002603802825971604,0.0005499945406506655,0.0,0.0,0.0,0.0,0.0,0.0,0.0,0.0,0.0,-0.0006051455229132835,0.006569929878919579,0.002027280111663382,0.0,0.0,0.0,0.0,0.0,0.0,0.0,0.0,0.0,-0.012583331963933509,-0.23207716658073732,9.809091863060182,0.0,0.0,0.0,0.0,0.0,0.0,0.0,0.0,0.0
2025/05/20 13:26:58.717909912,1747740418,717681460,mA1/imu,0.9854793733760472,-0.16979354825478013,0.00039049552463608385,0.0006349288545888724,0.0,0.0,0.0,0.0,0.0,0.0,0.0,0.0,0.0,-0.0031420419763368243,0.005046176096308852,0.001938985407061782,0.0,0.0,0.0,0.0,0.0,0.0,0.0,0.0,0.0,0.002773402216561794,-0.07506706821215599,9.807095641434127,0.0,0.0,0.0,0.0,0.0,0.0,0.0,0.0,0.0
2025/05/20 13:26:58.767954026,1747740418,767486518,mA1/imu,0.9854712908293212,-0.16983997797976358,0.0004810780890499171,0.0006967028758755042,0.0,0.0,0.0,0.0,0.0,0.0,0.0,0.0,0.0,-0.0030468139324333313,0.0032940370195552516,0.0018517699034998438,0.0,0.0,0.0,0.0,0.0,0.0,0.0,0.0,0.0,0.0008811608596322965,0.43632878663375785,9.81027921054877,0.0,0.0,0.0,0.0,0.0,0.0,0.0,0.0,0.0
2025/05/20 13:26:58.818949173,1747740418,818547608,mA1/imu,0.985463564675234,-0.16988433973060094,0.0005202339253779099,0.0007766392609073165,0.0,0.0,0.0,0.0,0.0,0.0,0.0,0.0,0.0,-0.0020673796963455015,0.0012725991092404254,0.0017694173362422716,0.0,0.0,0.0,0.0,0.0,0.0,0.0,0.0,0.0,0.0030071992136452026,0.03828041953923307,9.807513420543152,0.0,0.0,0.0,0.0,0.0,0.0,0.0,0.0,0.0
2025/05/20 13:26:58.868974023,1747740418,868372581,mA1/imu,0.985454652257488,-0.1699356743236759,0.0005267681020673114,0.0008470251459731423,0.0,0.0,0.0,0.0,0.0,0.0,0.0,0.0,0.0,-0.0040174549706060644,0.0002864951531906307,0.002272700259167384,0.0,0.0,0.0,0.0,0.0,0.0,0.0,0.0,0.0,-0.008939523020081467,0.26056027726375075,9.80873567270756,0.0,0.0,0.0,0.0,0.0,0.0,0.0,0.0,0.0
2025/05/20 13:26:58.920160664,1747740418,919436930,mA1/imu,0.9854451325673043,-0.16999069843736264,0.000492921938395512,0.0009000956330728363,0.0,0.0,0.0,0.0,0.0,0.0,0.0,0.0,0.0,-0.0028259837495653323,-0.001788029658411453,0.0021993857232635184,0.0,0.0,0.0,0.0,0.0,0.0,0.0,0.0,0.0,0.0032747861738281515,-0.016425715055810048,9.808392465162251,0.0,0.0,0.0,0.0,0.0,0.0,0.0,0.0,0.0
2025/05/20 13:26:58.960682963,1747740418,960396179,mA1/imu,0.9854359442802944,-0.17004387926817965,0.0004082960805974298,0.0009550592358918111,0.0,0.0,0.0,0.0,0.0,0.0,0.0,0.0,0.0,-0.0023790667673601667,-0.0037196710006363954,0.002125435675154549,0.0,0.0,0.0,0.0,0.0,0.0,0.0,0.0,0.0,0.002250617476024489,-0.2661077251412619,9.808514330527656,0.0,0.0,0.0,0.0,0.0,0.0,0.0,0.0,0.0
2025/05/20 13:26:59.13992839,1747740419,13697260,mA1/imu,0.9854271016629625,-0.17009517863497384,0.0002816568256891304,0.0009890311936172444,0.0,0.0,0.0,0.0,0.0,0.0,0.0,0.0,0.0,-0.0024793956397579308,-0.005437373170406883,0.0020511506634432373,0.0,0.0,0.0,0.0,0.0,0.0,0.0,0.0,0.0,0.005721843383973926,0.2848042896919634,9.808645571914932,0.0,0.0,0.0,0.0,0.0,0.0,0.0,0.0,0.0
2025/05/20 13:26:59.63811204,1747740419,63568635,mA1/imu,0.9854146193454594,-0.1701674829476379,0.00014876567391884074,0.0010166593741416617,0.0,0.0,0.0,0.0,0.0,0.0,0.0,0.0,0.0,-0.0022529587368946427,-0.0043245293566141815,0.003840642155866098,0.0,0.0,0.0,0.0,0.0,0.0,0.0,0.0,0.0,-0.10277722462505268,0.39784429787625214,9.80683031166902,0.0,0.0,0.0,0.0,0.0,0.0,0.0,0.0,0.0
2025/05/20 13:26:59.116046494,1747740419,115710244,mA1/imu,0.9853926819917587,-0.17029439107143723,6.477559430260476e-05,0.0010384848672785065,0.0,0.0,0.0,0.0,0.0,0.0,0.0,0.0,0.0,-0.00031104078548025577,-0.0023678672117049895,0.006020192300052384,0.0,0.0,0.0,0.0,0.0,0.0,0.0,0.0,0.0,-0.09808233349475307,-0.4633890385620875,9.810150119877322,0.0,0.0,0.0,0.0,0.0,0.0,0.0,0.0,0.0
2025/05/20 13:26:59.166276169,1747740419,166069164,mA1/imu,0.9853646989820998,-0.17045612482245745,-2.063057261758117e-07,0.001058069177269284,0.0,0.0,0.0,0.0,0.0,0.0,0.0,0.0,0.0,-0.001420148333127664,-0.0028941017292482547,0.006670822893156603,0.0,0.0,0.0,0.0,0.0,0.0,0.0,0.0,0.0,0.0030637708953083487,0.5951075549344147,9.810798517580743,0.0,0.0,0.0,0.0,0.0,0.0,0.0,0.0,0.0
2025/05/20 13:26:59.217548136,1747740419,217108189,mA1/imu,0.985335448583849,-0.1706250488568154,-9.066790916527165e-05,0.0010668861253623207,0.0,0.0,0.0,0.0,0.0,0.0,0.0,0.0,0.0,-0.0012933721890695576,-0.003906753629332932,0.006984453419044191,0.0,0.0,0.0,0.0,0.0,0.0,0.0,0.0,0.0,0.004408169890649439,-0.05914697450720163,9.81150694270127,0.0,0.0,0.0,0.0,0.0,0.0,0.0,0.0,0.0
2025/05/20 13:26:59.268867670,1747740419,266910800,mA1/imu,0.9853047763342645,-0.1708021060284467,-0.00019952681658238044,0.0010480926398295494,0.0,0.0,0.0,0.0,0.0,0.0,0.0,0.0,0.0,0.00019629387889194387,-0.004738319713749478,0.007307665269580818,0.0,0.0,0.0,0.0,0.0,0.0,0.0,0.0,0.0,0.003620048459609112,-0.6200292623804337,9.80957293505095,0.0,0.0,0.0,0.0,0.0,0.0,0.0,0.0,0.0
2025/05/20 13:26:59.318565659,1747740419,318037315,mA1/imu,0.9852727579051827,-0.17098675554773063,-0.0003223832654255963,0.0010089728470059657,0.0,0.0,0.0,0.0,0.0,0.0,0.0,0.0,0.0,0.002192978857521219,-0.00534245072872106,0.0076151498354139705,0.0,0.0,0.0,0.0,0.0,0.0,0.0,0.0,0.0,0.003578933928168199,-0.518851268367506,9.809713665599748,0.0,0.0,0.0,0.0,0.0,0.0,0.0,0.0,0.0
2025/05/20 13:26:59.369740284,1747740419,369369314,mA1/imu,0.9852393284135705,-0.17117923087736028,-0.0004559996333714873,0.0009637052174029695,0.0,0.0,0.0,0.0,0.0,0.0,0.0,0.0,0.0,0.0009590993663070713,-0.005708262686741357,0.007939639347664154,0.0,0.0,0.0,0.0,0.0,0.0,0.0,0.0,0.0,0.00610885385911038,0.6169566079945047,9.812278843650397,0.0,0.0,0.0,0.0,0.0,0.0,0.0,0.0,0.0
2025/05/20 13:26:59.421093628,1747740419,420742071,mA1/imu,0.9852044005878515,-0.1713799933788523,-0.0005939068071304146,0.0009133490577948968,0.0,0.0,0.0,0.0,0.0,0.0,0.0,0.0,0.0,-6.535852497358439e-05,-0.005803652781078344,0.008283434709694708,0.0,0.0,0.0,0.0,0.0,0.0,0.0,0.0,0.0,0.006795912027704824,0.5180530645593884,9.812144670062583,0.0,0.0,0.0,0.0,0.0,0.0,0.0,0.0,0.0
2025/05/20 13:26:59.461610366,1747740419,460644706,mA1/imu,0.9851679095535083,-0.1715894806111531,-0.000727060223296906,0.0008435122979839121,0.0,0.0,0.0,0.0,0.0,0.0,0.0,0.0,0.0,0.0021613423344789395,-0.00565429086327073,0.008645978309912934,0.0,0.0,0.0,0.0,0.0,0.0,0.0,0.0,0.0,0.007400210149420208,-0.6097715840472628,9.810881734883392,0.0,0.0,0.0,0.0,0.0,0.0,0.0,0.0,0.0
2025/05/20 13:26:59.511909068,1747740419,511590621,mA1/imu,0.9851298179616225,-0.17180786012401725,-0.0008501607183908099,0.0007603875719484449,0.0,0.0,0.0,0.0,0.0,0.0,0.0,0.0,0.0,0.003662157958439203,-0.005332301529916407,0.008959788776677215,0.0,0.0,0.0,0.0,0.0,0.0,0.0,0.0,0.0,0.02526927644491545,-0.46821372728988414,9.810917727447787,0.0,0.0,0.0,0.0,0.0,0.0,0.0,0.0,0.0
2025/05/20 13:26:59.562302616,1747740419,562057868,mA1/imu,0.9850913286315627,-0.1720280866779411,-0.0009708193932369234,0.0006849514837803134,0.0,0.0,0.0,0.0,0.0,0.0,0.0,0.0,0.0,0.0020922271810691457,-0.005202317999426253,0.008907571591910421,0.0,0.0,0.0,0.0,0.0,0.0,0.0,0.0,0.0,0.025612955689316777,0.6069392723973314,9.813051706992162,0.0,0.0,0.0,0.0,0.0,0.0,0.0,0.0,0.0
2025/05/20 13:26:59.616193338,1747740419,613101950,mA1/imu,0.9850530684711923,-0.17224663444895585,-0.0010835548444400986,0.000612474812171854,0.0,0.0,0.0,0.0,0.0,0.0,0.0,0.0,0.0,0.001437254075196171,-0.0047379699775522465,0.008843378222207732,0.0,0.0,0.0,0.0,0.0,0.0,0.0,0.0,0.0,0.023677637861623507,0.23153423563556974,9.812073191399005,0.0,0.0,0.0,0.0,0.0,0.0,0.0,0.0,0.0
2025/05/20 13:26:59.663552750,1747740419,663223741,mA1/imu,0.9850150683859651,-0.17246343802737818,-0.001179589024046141,0.0005349449537102038,0.0,0.0,0.0,0.0,0.0,0.0,0.0,0.0,0.0,0.002650305983196862,-0.004026515692676078,0.008768029120029766,0.0,0.0,0.0,0.0,0.0,0.0,0.0,0.0,0.0,0.023634657394751384,-0.3430936965495648,9.810550455212303,0.0,0.0,0.0,0.0,0.0,0.0,0.0,0.0,0.0
2025/05/20 13:26:59.716717728,1747740419,714854921,mA1/imu,0.9849773655583959,-0.17267827913652725,-0.0012563079163134124,0.00047216788231013306,0.0,0.0,0.0,0.0,0.0,0.0,0.0,0.0,0.0,0.0015260670515219467,-0.0030700073737796344,0.008692556596141649,0.0,0.0,0.0,0.0,0.0,0.0,0.0,0.0,0.0,0.022080059321103233,-0.03785243277150961,9.812288566314223,0.0,0.0,0.0,0.0,0.0,0.0,0.0,0.0,0.0
2025/05/20 13:26:59.764919933,1747740419,764685142,mA1/imu,0.9849404217501498,-0.17288865694205272,-0.0013076263774092932,0.0004098983621532513,0.0,0.0,0.0,0.0,0.0,0.0,0.0,0.0,0.0,0.0030104531649260517,-0.0020397762548062495,0.008441014448562474,0.0,0.0,0.0,0.0,0.0,0.0,0.0,0.0,0.0,0.023512259057118488,-0.5479833729415146,9.811065300714365,0.0,0.0,0.0,0.0,0.0,0.0,0.0,0.0,0.0
2025/05/20 13:26:59.818886389,1747740419,818603836,mA1/imu,0.9849041039602268,-0.17309534788644892,-0.0013319611830505359,0.00036389803354539756,0.0,0.0,0.0,0.0,0.0,0.0,0.0,0.0,0.0,0.0016386917608875876,-0.0007788998031102533,0.008360383997905516,0.0,0.0,0.0,0.0,0.0,0.0,0.0,0.0,0.0,0.021454855937213142,0.18589955038320205,9.811629824918501,0.0,0.0,0.0,0.0,0.0,0.0,0.0,0.0,0.0
2025/05/20 13:26:59.870003227,1747740419,869412168,mA1/imu,0.984868111959591,-0.17330010125714496,-0.0013278540826365663,0.0003372728106337371,0.0,0.0,0.0,0.0,0.0,0.0,0.0,0.0,0.0,0.002561847507736361,0.0004649901952195405,0.008287669566599343,0.0,0.0,0.0,0.0,0.0,0.0,0.0,0.0,0.0,0.02105798878044879,-0.5258308535505996,9.808568261663215,0.0,0.0,0.0,0.0,0.0,0.0,0.0,0.0,0.0
2025/05/20 13:26:59.920667365,1747740419,920422488,mA1/imu,0.9848325081176333,-0.1735025945072211,-0.0012944191741751333,0.00032424218718498017,0.0,0.0,0.0,0.0,0.0,0.0,0.0,0.0,0.0,0.001295784963517463,0.0016662790005138005,0.008151215561782681,0.0,0.0,0.0,0.0,0.0,0.0,0.0,0.0,0.0,0.029248207933489374,-0.22146107251726965,9.808646627005867,0.0,0.0,0.0,0.0,0.0,0.0,0.0,0.0,0.0
2025/05/20 13:26:59.962029199,1747740419,961815120,mA1/imu,0.984797971471049,-0.17369892238394274,-0.0012378326371402038,0.000327901702326198,0.0,0.0,0.0,0.0,0.0,0.0,0.0,0.0,0.0,-0.000908790670191044,0.00267960903950199,0.007910668678916096,0.0,0.0,0.0,0.0,0.0,0.0,0.0,0.0,0.0,0.021561643094813433,0.5564001552790927,9.80920626716471,0.0,0.0,0.0,0.0,0.0,0.0,0.0,0.0,0.0
2025/05/20 13:27:00.13290094,1747740420,12877119,mA1/imu,0.9847638612414552,-0.17389273297485114,-0.0011570282891118413,0.00034102330622349484,0.0,0.0,0.0,0.0,0.0,0.0,0.0,0.0,0.0,-0.0015689176285626205,0.003650492584387133,0.007846101216857781,0.0,0.0,0.0,0.0,0.0,0.0,0.0,0.0,0.0,0.0229516143166308,0.5419423541895091,9.808125379881348,0.0,0.0,0.0,0.0,0.0,0.0,0.0,0.0,0.0
2025/05/20 13:27:00.63919157,1747740420,63714100,mA1/imu,0.9847299961940715,-0.17408495809639432,-0.0010586573473050575,0.0003757723003585068,0.0,0.0,0.0,0.0,0.0,0.0,0.0,0.0,0.0,-0.00017305889530426876,0.004393805471913087,0.007785407081854964,0.0,0.0,0.0,0.0,0.0,0.0,0.0,0.0,0.0,0.02206436943794771,-0.5871406771850135,9.806604511279486,0.0,0.0,0.0,0.0,0.0,0.0,0.0,0.0,0.0
2025/05/20 13:27:00.115240437,1747740420,114751838,mA1/imu,0.9846963858058533,-0.17427552731031365,-0.0009461998455139436,0.00041601376714103593,0.0,0.0,0.0,0.0,0.0,0.0,0.0,0.0,0.0,-0.0008277455877491649,0.004863418288136394,0.007705345920231351,0.0,0.0,0.0,0.0,0.0,0.0,0.0,0.0,0.0,0.02706958905538013,0.31979363967637786,9.808041297025383,0.0,0.0,0.0,0.0,0.0,0.0,0.0,0.0,0.0
2025/05/20 13:27:00.164931645,1747740420,164632156,mA1/imu,0.9846629669729038,-0.17446467823509312,-0.0008314321934455984,0.00047564792822283805,0.0,0.0,0.0,0.0,0.0,0.0,0.0,0.0,0.0,-0.001937922634800344,0.0049501205576524794,0.007700617464541804,0.0,0.0,0.0,0.0,0.0,0.0,0.0,0.0,0.0,0.02772652215334201,-0.02907831817005558,9.806122976318237,0.0,0.0,0.0,0.0,0.0,0.0,0.0,0.0,0.0
2025/05/20 13:27:00.216622652,1747740420,216353449,mA1/imu,0.9846292439060704,-0.1746551985418839,-0.0007200024415403947,0.0005433817622374257,0.0,0.0,0.0,0.0,0.0,0.0,0.0,0.0,0.0,-0.0020698048916600875,0.0047481981025096175,0.007785295443738826,0.0,0.0,0.0,0.0,0.0,0.0,0.0,0.0,0.0,0.030320569878291397,-0.6520364789796348,9.808459117657812,0.0,0.0,0.0,0.0,0.0,0.0,0.0,0.0,0.0
2025/05/20 13:27:00.267182756,1747740420,266809128,mA1/imu,0.9845958041671565,-0.17484382125817957,-0.0006172974270331615,0.0005996066668861309,0.0,0.0,0.0,0.0,0.0,0.0,0.0,0.0,0.0,-0.0009702690388845696,0.004225560436360989,0.0075892142770689,0.0,0.0,0.0,0.0,0.0,0.0,0.0,0.0,0.0,0.02744007593126642,-0.5615379010692891,9.808322948692819,0.0,0.0,0.0,0.0,0.0,0.0,0.0,0.0,0.0
2025/05/20 13:27:00.320877449,1747740420,319657725,mA1/imu,0.984562786670252,-0.1750296882074702,-0.0005307244080654451,0.0006675939683184594,0.0,0.0,0.0,0.0,0.0,0.0,0.0,0.0,0.0,-0.0018766085278587978,0.003608754852243068,0.007530323812719176,0.0,0.0,0.0,0.0,0.0,0.0,0.0,0.0,0.0,0.028393809600397363,0.06389700718834244,9.808113903400963,0.0,0.0,0.0,0.0,0.0,0.0,0.0,0.0,0.0
2025/05/20 13:27:00.370301423,1747740420,369483019,mA1/imu,0.9845302840340217,-0.17521231305914217,-0.00046438405871920656,0.0007412960270687872,0.0,0.0,0.0,0.0,0.0,0.0,0.0,0.0,0.0,-0.0027943549917708727,0.0028020858224787953,0.0073545599842173735,0.0,0.0,0.0,0.0,0.0,0.0,0.0,0.0,0.0,0.026200731531463777,-0.04171871371022305,9.807961281762761,0.0,0.0,0.0,0.0,0.0,0.0,0.0,0.0,0.0
2025/05/20 13:27:00.420745153,1747740420,420533832,mA1/imu,0.984498244978834,-0.17539210388723303,-0.00041774022026898154,0.0008006376922839926,0.0,0.0,0.0,0.0,0.0,0.0,0.0,0.0,0.0,-0.0014291135927110004,0.0018620225315704366,0.007274673640764087,0.0,0.0,0.0,0.0,0.0,0.0,0.0,0.0,0.0,0.028253889653663183,-0.5835443335085129,9.809096274729566,0.0,0.0,0.0,0.0,0.0,0.0,0.0,0.0,0.0
2025/05/20 13:27:00.461538066,1747740420,461059211,mA1/imu,0.9844666560854238,-0.175569105409054,-0.0003965505645984849,0.0008573386133537631,0.0,0.0,0.0,0.0,0.0,0.0,0.0,0.0,0.0,-0.0014028980360259828,0.0007809042121219191,0.0071432928299985255,0.0,0.0,0.0,0.0,0.0,0.0,0.0,0.0,0.0,0.02903107645014869,-0.5966205971935467,9.809687642202215,0.0,0.0,0.0,0.0,0.0,0.0,0.0,0.0,0.0
2025/05/20 13:27:00.514950551,1747740420,512895593,mA1/imu,0.984435468687833,-0.17574369642287954,-0.0003988578970269613,0.0008955832554658549,0.0,0.0,0.0,0.0,0.0,0.0,0.0,0.0,0.0,-0.001880178957159114,-0.00023548898544395065,0.007063157968034067,0.0,0.0,0.0,0.0,0.0,0.0,0.0,0.0,0.0,0.027428631412800993,0.19065050745660256,9.812125898738156,0.0,0.0,0.0,0.0,0.0,0.0,0.0,0.0,0.0
2025/05/20 13:27:00.563901981,1747740420,563709087,mA1/imu,0.9844048134295648,-0.1759151023390871,-0.00042534402187595127,0.0009269024734852993,0.0,0.0,0.0,0.0,0.0,0.0,0.0,0.0,0.0,-0.0016060645043944578,-0.001202778812052839,0.00689940476853377,0.0,0.0,0.0,0.0,0.0,0.0,0.0,0.0,0.0,0.02559198086107724,0.07842384816436253,9.811506973140032,0.0,0.0,0.0,0.0,0.0,0.0,0.0,0.0,0.0
2025/05/20 13:27:00.617070862,1747740420,616591487,mA1/imu,0.9843746417132971,-0.1760836463686961,-0.0004721438837357327,0.0009440939969041169,0.0,0.0,0.0,0.0,0.0,0.0,0.0,0.0,0.0,-0.0008672829987067481,-0.00205859265981328,0.006813848280765389,0.0,0.0,0.0,0.0,0.0,0.0,0.0,0.0,0.0,0.025007505777758995,-0.12008834485321354,9.810944224643062,0.0,0.0,0.0,0.0,0.0,0.0,0.0,0.0,0.0
2025/05/20 13:27:00.668825389,1747740420,666970684,mA1/imu,0.9843449190070657,-0.17624959559535058,-0.000534665749452864,0.0009352058517316038,0.0,0.0,0.0,0.0,0.0,0.0,0.0,0.0,0.0,0.000640278186060873,-0.0028276593028236973,0.006694239212607431,0.0,0.0,0.0,0.0,0.0,0.0,0.0,0.0,0.0,0.025433415731521216,0.062447321932116454,9.811507614681213,0.0,0.0,0.0,0.0,0.0,0.0,0.0,0.0,0.0
2025/05/20 13:27:00.718358077,1747740420,717958775,mA1/imu,0.984315558836428,-0.17641329303233308,-0.0006130132949864618,0.0009246019245394951,0.0,0.0,0.0,0.0,0.0,0.0,0.0,0.0,0.0,0.001266458762657591,-0.00337450841997078,0.006619807796090337,0.0,0.0,0.0,0.0,0.0,0.0,0.0,0.0,0.0,0.022156463465526244,0.07647852765093985,9.812212759832462,0.0,0.0,0.0,0.0,0.0,0.0,0.0,0.0,0.0
2025/05/20 13:27:00.768047372,1747740420,767793942,mA1/imu,0.9842864957119977,-0.17657520320174017,-0.0006985983481207722,0.0008966234481547351,0.0,0.0,0.0,0.0,0.0,0.0,0.0,0.0,0.0,0.0007033857402349272,-0.0036849043407986724,0.006548001690539212,0.0,0.0,0.0,0.0,0.0,0.0,0.0,0.0,0.0,0.022103402492724897,0.0006574698466036387,9.813353360523175,0.0,0.0,0.0,0.0,0.0,0.0,0.0,0.0,0.0
