time,header_stamp_secs,header_stamp_nsecs,header_frame_id,orientation_x,orientation_y,orientation_z,orientation_w,orientation_covariance_0,orientation_covariance_1,orientation_covariance_2,orientation_covariance_3,orientation_covariance_4,orientation_covariance_5,orientation_covariance_6,orientation_covariance_7,orientation_covariance_8,angular_velocity_x,angular_velocity_y,angular_velocity_z,angular_velocity_covariance_0,angular_velocity_covariance_1,angular_velocity_covariance_2,angular_velocity_covariance_3,angular_velocity_covariance_4,angular_velocity_covariance_5,angular_velocity_covariance_6,angular_velocity_covariance_7,angular_velocity_covariance_8,linear_acceleration_x,linear_acceleration_y,linear_acceleration_z,linear_acceleration_covariance_0,linear_acceleration_covariance_1,linear_acceleration_covariance_2,linear_acceleration_covariance_3,linear_acceleration_covariance_4,linear_acceleration_covariance_5,linear_acceleration_covariance_6,linear_acceleration_covariance_7,linear_acceleration_covariance_8
2025/05/07 10:56:40.752788639,1746608200,752343112,mti/imu_base_body,0.9082933767948184,-0.4182680886029292,0.007390774823985539,0.0005693633456931545,0.017453292519943295,0.0,0.0,0.0,0.017453292519943295,0.0,0.0,0.0,0.15707963267948966,0.005775297060608864,0.005617383401840925,0.0006530390819534659,0.0004363323129985824,0.0,0.0,0.0,0.0004363323129985824,0.0,0.0,0.0,0.0004363323129985824,-0.11529748886823654,0.02851913496851921,9.849925994873047,0.0004,0.0,0.0,0.0,0.0004,0.0,0.0,0.0,0.0004
2025/05/07 10:56:40.799017750,1746608200,798465831,mti/imu_base_body,0.9082918067748469,-0.41827116494635713,0.007408387621935011,0.0005849042182304027,0.017453292519943295,0.0,0.0,0.0,0.017453292519943295,0.0,0.0,0.0,0.15707963267948966,0.008589798584580421,0.006578768603503704,0.003721783170476556,0.0004363323129985824,0.0,0.0,0.0,0.0004363323129985824,0.0,0.0,0.0,0.0004363323129985824,-0.14810484647750854,0.03785616159439087,9.801706314086914,0.0004,0.0,0.0,0.0,0.0004,0.0,0.0,0.0,0.0004
2025/05/07 10:56:40.849376889,1746608200,848114679,mti/imu_base_body,0.9083133517822493,-0.41822432146179983,0.007407870916049117,0.0006287769113604096,0.017453292519943295,0.0,0.0,0.0,0.017453292519943295,0.0,0.0,0.0,0.15707963267948966,0.00054886844009161,0.009768824093043804,-0.009866748005151749,0.0004363323129985824,0.0,0.0,0.0,0.0004363323129985824,0.0,0.0,0.0,0.0004363323129985824,-0.14199139177799225,0.045487288385629654,9.802302360534668,0.0004,0.0,0.0,0.0,0.0004,0.0,0.0,0.0,0.0004
2025/05/07 10:56:40.900836210,1746608200,897986907,mti/imu_base_body,0.9083292269033494,-0.41818934609332525,0.007430436952049849,0.0006891835039431089,0.017453292519943295,0.0,0.0,0.0,0.017453292519943295,0.0,0.0,0.0,0.15707963267948966,0.0019363013561815023,0.013081376440823078,0.0013291313080117106,0.0004363323129985824,0.0,0.0,0.0,0.0004363323129985824,0.0,0.0,0.0,0.0004363323129985824,-0.13532811403274536,0.05418795719742775,9.807336807250977,0.0004,0.0,0.0,0.0,0.0004,0.0,0.0,0.0,0.0004
2025/05/07 10:56:40.949145199,1746608200,948745273,mti/imu_base_body,0.9083457780611859,-0.4181532778166109,0.007429905978554842,0.000761726192977943,0.017453292519943295,0.0,0.0,0.0,0.017453292519943295,0.0,0.0,0.0,0.15707963267948966,1.1689391612890176e-05,0.010567746125161648,-0.009699705988168716,0.0004363323129985824,0.0,0.0,0.0,0.0004363323129985824,0.0,0.0,0.0,0.0004363323129985824,-0.14421507716178894,0.02042667753994465,9.81370735168457,0.0004,0.0,0.0,0.0,0.0004,0.0,0.0,0.0,0.0004
2025/05/07 10:56:41.360613,1746608200,998017303,mti/imu_base_body,0.9083763681659398,-0.4180864767686563,0.00744707189683764,0.000782828839544432,0.017453292519943295,0.0,0.0,0.0,0.017453292519943295,0.0,0.0,0.0,0.15707963267948966,0.0022861631587147713,0.009726099669933319,-0.008032000623643398,0.0004363323129985824,0.0,0.0,0.0,0.0004363323129985824,0.0,0.0,0.0,0.0004363323129985824,-0.15727028250694275,0.014362561516463757,9.85189437866211,0.0004,0.0,0.0,0.0,0.0004,0.0,0.0,0.0,0.0004
2025/05/07 10:56:41.70717196,1746608201,48025010,mti/imu_base_body,0.908375214656569,-0.41808847242666614,0.007465064721039163,0.0008783110380590833,0.017453292519943295,0.0,0.0,0.0,0.017453292519943295,0.0,0.0,0.0,0.15707963267948966,-0.0039058709517121315,0.010429075919091702,0.005820196121931076,0.0004363323129985824,0.0,0.0,0.0,0.0004363323129985824,0.0,0.0,0.0,0.0004363323129985824,-0.14686906337738037,0.024740513414144516,9.74985122680664,0.0004,0.0,0.0,0.0,0.0004,0.0,0.0,0.0,0.0004
2025/05/07 10:56:41.98807853,1746608201,98101984,mti/imu_base_body,0.9087894750078603,-0.4171898935621957,0.007132880749175694,0.0018452199650866542,0.017453292519943295,0.0,0.0,0.0,0.017453292519943295,0.0,0.0,0.0,0.15707963267948966,0.005417346954345703,-6.776444934075698e-05,0.0021853286307305098,0.0004363323129985824,0.0,0.0,0.0,0.0004363323129985824,0.0,0.0,0.0,0.0004363323129985824,-0.14092281460762024,0.0460275374352932,9.821873664855957,0.0004,0.0,0.0,0.0,0.0004,0.0,0.0,0.0,0.0004
2025/05/07 10:56:41.148392141,1746608201,147997310,mti/imu_base_body,0.908790329145809,-0.417188753109786,0.00709447370709831,0.0018304022982264133,0.017453292519943295,0.0,0.0,0.0,0.017453292519943295,0.0,0.0,0.0,0.15707963267948966,0.008019871078431606,-0.002948408480733633,-8.045718277571723e-05,0.0004363323129985824,0.0,0.0,0.0,0.0004363323129985824,0.0,0.0,0.0,0.0004363323129985824,-0.13257065415382385,0.03811313956975937,9.852351188659668,0.0004,0.0,0.0,0.0,0.0004,0.0,0.0,0.0,0.0004
2025/05/07 10:56:41.238504526,1746608201,198024819,mti/imu_base_body,0.9087933468497211,-0.41718265803075294,0.007070849816897559,0.0018126342557351432,0.017453292519943295,0.0,0.0,0.0,0.017453292519943295,0.0,0.0,0.0,0.15707963267948966,0.011853892356157303,-0.0014707189984619617,0.003360903123393655,0.0004363323129985824,0.0,0.0,0.0,0.0004363323129985824,0.0,0.0,0.0,0.0004363323129985824,-0.1305290311574936,0.03717198595404625,9.844663619995117,0.0004,0.0,0.0,0.0,0.0004,0.0,0.0,0.0,0.0004
2025/05/07 10:56:41.251539342,1746608201,250846066,mti/imu_base_body,0.9088060570940037,-0.4171547785931078,0.007076087214051702,0.001835831126447517,0.017453292519943295,0.0,0.0,0.0,0.017453292519943295,0.0,0.0,0.0,0.15707963267948966,0.008478032425045967,0.006775554735213518,-0.002998482435941696,0.0004363323129985824,0.0,0.0,0.0,0.0004363323129985824,0.0,0.0,0.0,0.0004363323129985824,-0.15338736772537231,0.04674488678574562,9.783825874328613,0.0004,0.0,0.0,0.0,0.0004,0.0,0.0,0.0,0.0004
2025/05/07 10:56:41.298418168,1746608201,298133942,mti/imu_base_body,0.9088188085817809,-0.41712699766743333,0.0070740022182373425,0.0018437672200546525,0.017453292519943295,0.0,0.0,0.0,0.017453292519943295,0.0,0.0,0.0,0.15707963267948966,0.008732367306947708,0.006891819182783365,-0.0034341842401772738,0.0004363323129985824,0.0,0.0,0.0,0.0004363323129985824,0.0,0.0,0.0,0.0004363323129985824,-0.11132825165987015,0.05909193307161331,9.813196182250977,0.0004,0.0,0.0,0.0,0.0004,0.0,0.0,0.0,0.0004
2025/05/07 10:56:41.351781051,1746608201,349069287,mti/imu_base_body,0.90883741580965,-0.4170860703803284,0.007091484323733737,0.001863429424255104,0.017453292519943295,0.0,0.0,0.0,0.017453292519943295,0.0,0.0,0.0,0.15707963267948966,0.0062558213248848915,0.005611834581941366,-0.0023864400573074818,0.0004363323129985824,0.0,0.0,0.0,0.0004363323129985824,0.0,0.0,0.0,0.0004363323129985824,-0.13343411684036255,0.049043603241443634,9.837831497192383,0.0004,0.0,0.0,0.0,0.0004,0.0,0.0,0.0,0.0004
2025/05/07 10:56:41.400283019,1746608201,398317662,mti/imu_base_body,0.9088584040283473,-0.4170405340482609,0.007069495231866882,0.0019017426096502414,0.017453292519943295,0.0,0.0,0.0,0.017453292519943295,0.0,0.0,0.0,0.15707963267948966,0.001009807107038796,0.004393481183797121,-0.008133111521601677,0.0004363323129985824,0.0,0.0,0.0,0.0004363323129985824,0.0,0.0,0.0,0.0004363323129985824,-0.16090825200080872,0.03806976228952408,9.812052726745605,0.0004,0.0,0.0,0.0,0.0004,0.0,0.0,0.0,0.0004
2025/05/07 10:56:41.468914628,1746608201,448046579,mti/imu_base_body,0.9088635268151473,-0.41702979095137954,0.007040302080428831,0.0019176107000218956,0.017453292519943295,0.0,0.0,0.0,0.017453292519943295,0.0,0.0,0.0,0.15707963267948966,0.004513569641858339,-0.003315333742648363,0.0037216402124613523,0.0004363323129985824,0.0,0.0,0.0,0.0004363323129985824,0.0,0.0,0.0,0.0004363323129985824,-0.13249251246452332,0.04933857545256615,9.83326244354248,0.0004,0.0,0.0,0.0,0.0004,0.0,0.0,0.0,0.0004
2025/05/07 10:56:41.517475700,1746608201,498274074,mti/imu_base_body,0.9091618888730795,-0.416389067434739,0.0063400605062718576,0.0021466192813716888,0.017453292519943295,0.0,0.0,0.0,0.017453292519943295,0.0,0.0,0.0,0.15707963267948966,0.01305483840405941,0.008811906911432743,0.0022822576574981213,0.0004363323129985824,0.0,0.0,0.0,0.0004363323129985824,0.0,0.0,0.0,0.0004363323129985824,-0.14900754392147064,0.042528484016656876,9.871932029724121,0.0004,0.0,0.0,0.0,0.0004,0.0,0.0,0.0,0.0004
2025/05/07 10:56:41.564114198,1746608201,548072378,mti/imu_base_body,0.9091554912684424,-0.41640290208190434,0.006357265076368132,0.0021215595570136794,0.017453292519943295,0.0,0.0,0.0,0.017453292519943295,0.0,0.0,0.0,0.15707963267948966,0.0180186964571476,-0.0004742970340885222,0.004798389505594969,0.0004363323129985824,0.0,0.0,0.0,0.0004363323129985824,0.0,0.0,0.0,0.0004363323129985824,-0.1523376852273941,0.03646295517683029,9.78250789642334,0.0004,0.0,0.0,0.0,0.0004,0.0,0.0,0.0,0.0004
2025/05/07 10:56:41.600458387,1746608201,600046170,mti/imu_base_body,0.9091666702225363,-0.41637921573441145,0.006315720176109818,0.002103839233258577,0.017453292519943295,0.0,0.0,0.0,0.017453292519943295,0.0,0.0,0.0,0.15707963267948966,0.00824704859405756,-0.0008351943688467145,-0.0018402839777991176,0.0004363323129985824,0.0,0.0,0.0,0.0004363323129985824,0.0,0.0,0.0,0.0004363323129985824,-0.1741580069065094,0.05054241046309471,9.82094669342041,0.0004,0.0,0.0,0.0,0.0004,0.0,0.0,0.0,0.0004
2025/05/07 10:56:41.649783579,1746608201,647961309,mti/imu_base_body,0.9091742674103281,-0.4163635150100887,0.006253358310506526,0.002114321919022266,0.017453292519943295,0.0,0.0,0.0,0.017453292519943295,0.0,0.0,0.0,0.15707963267948966,0.004911034367978573,-0.008024671114981174,-0.00042898833635263145,0.0004363323129985824,0.0,0.0,0.0,0.0004363323129985824,0.0,0.0,0.0,0.0004363323129985824,-0.1462482362985611,0.003391881939023733,9.863170623779297,0.0004,0.0,0.0,0.0,0.0004,0.0,0.0,0.0,0.0004
2025/05/07 10:56:41.722970133,1746608201,697990519,mti/imu_base_body,0.9091931058157754,-0.41632236137436474,0.006253703962250854,0.002116351456976701,0.017453292519943295,0.0,0.0,0.0,0.017453292519943295,0.0,0.0,0.0,0.15707963267948966,0.010697118937969208,0.005048056598752737,-0.004697713069617748,0.0004363323129985824,0.0,0.0,0.0,0.0004363323129985824,0.0,0.0,0.0,0.0004363323129985824,-0.14329122006893158,0.024638211354613304,9.841198921203613,0.0004,0.0,0.0,0.0,0.0004,0.0,0.0,0.0,0.0004
2025/05/07 10:56:41.749435876,1746608201,748343210,mti/imu_base_body,0.9092083208429225,-0.416288992909597,0.006257665463687138,0.0021319744959330026,0.017453292519943295,0.0,0.0,0.0,0.017453292519943295,0.0,0.0,0.0,0.15707963267948966,0.006939338985830545,0.005681924056261778,-0.0035859611816704273,0.0004363323129985824,0.0,0.0,0.0,0.0004363323129985824,0.0,0.0,0.0,0.0004363323129985824,-0.15412630140781403,0.022778335958719254,9.84096622467041,0.0004,0.0,0.0,0.0,0.0004,0.0,0.0,0.0,0.0004
2025/05/07 10:56:41.798926858,1746608201,797971374,mti/imu_base_body,0.90923496460553,-0.4162311238503942,0.006242565581049124,0.00211212025811278,0.017453292519943295,0.0,0.0,0.0,0.017453292519943295,0.0,0.0,0.0,0.15707963267948966,0.009935605339705944,-0.00024237047182396054,-0.0067481412552297115,0.0004363323129985824,0.0,0.0,0.0,0.0004363323129985824,0.0,0.0,0.0,0.0004363323129985824,-0.1657397449016571,0.03901863098144531,9.791296005249023,0.0004,0.0,0.0,0.0,0.0004,0.0,0.0,0.0,0.0004
2025/05/07 10:56:41.851728774,1746608201,851088842,mti/imu_base_body,0.9092644611070166,-0.41616643527244856,0.006256102863986171,0.0021211075749601764,0.017453292519943295,0.0,0.0,0.0,0.017453292519943295,0.0,0.0,0.0,0.15707963267948966,0.013899538666009903,0.009498423896729946,-0.008455983363091946,0.0004363323129985824,0.0,0.0,0.0,0.0004363323129985824,0.0,0.0,0.0,0.0004363323129985824,-0.13708464801311493,0.0338173508644104,9.830865859985352,0.0004,0.0,0.0,0.0,0.0004,0.0,0.0,0.0,0.0004
2025/05/07 10:56:41.898544859,1746608201,898092237,mti/imu_base_body,0.9092624288659357,-0.4161716464391012,0.006307001485916265,0.0017938464938675532,0.017453292519943295,0.0,0.0,0.0,0.017453292519943295,0.0,0.0,0.0,0.15707963267948966,0.018177077174186707,0.008338182233273983,0.015595871023833752,0.0004363323129985824,0.0,0.0,0.0,0.0004363323129985824,0.0,0.0,0.0,0.0004363323129985824,-0.23551666736602783,-0.00500478083267808,9.674450874328613,0.0004,0.0,0.0,0.0,0.0004,0.0,0.0,0.0,0.0004
2025/05/07 10:56:41.949389023,1746608201,948296304,mti/imu_base_body,0.9092611050931501,-0.41617463216814765,0.006316030518041116,0.0017395582731083428,0.017453292519943295,0.0,0.0,0.0,0.017453292519943295,0.0,0.0,0.0,0.15707963267948966,0.01987367495894432,-0.005360712762922049,0.000264004513155669,0.0004363323129985824,0.0,0.0,0.0,0.0004363323129985824,0.0,0.0,0.0,0.0004363323129985824,-0.14887544512748718,0.06986776739358902,9.781436920166016,0.0004,0.0,0.0,0.0,0.0004,0.0,0.0,0.0,0.0004
2025/05/07 10:56:42.39928930,1746608201,998153478,mti/imu_base_body,0.9092557225583112,-0.4161862966758977,0.006324262454015,0.0017323852278726894,0.017453292519943295,0.0,0.0,0.0,0.017453292519943295,0.0,0.0,0.0,0.15707963267948966,0.011373266577720642,0.004832387901842594,0.006031737197190523,0.0004363323129985824,0.0,0.0,0.0,0.0004363323129985824,0.0,0.0,0.0,0.0004363323129985824,-0.061994519084692,0.09861520677804947,9.95009994506836,0.0004,0.0,0.0,0.0,0.0004,0.0,0.0,0.0,0.0004
2025/05/07 10:56:42.48975721,1746608202,48127446,mti/imu_base_body,0.9092685265263061,-0.41615818273812283,0.0063377091205160324,0.0017166979603437079,0.017453292519943295,0.0,0.0,0.0,0.017453292519943295,0.0,0.0,0.0,0.15707963267948966,0.016785694286227226,0.010556137189269066,-0.00011672620166791603,0.0004363323129985824,0.0,0.0,0.0,0.0004363323129985824,0.0,0.0,0.0,0.0004363323129985824,-0.16470927000045776,0.04153664782643318,9.752628326416016,0.0004,0.0,0.0,0.0,0.0004,0.0,0.0,0.0,0.0004
2025/05/07 10:56:42.100854318,1746608202,99410602,mti/imu_base_body,0.9092723141417611,-0.41615000324312423,0.006336256277823627,0.0016986442875966171,0.017453292519943295,0.0,0.0,0.0,0.017453292519943295,0.0,0.0,0.0,0.15707963267948966,0.01450736727565527,-0.0048109376803040504,-0.0017012995667755604,0.0004363323129985824,0.0,0.0,0.0,0.0004363323129985824,0.0,0.0,0.0,0.0004363323129985824,-0.1813652068376541,-0.02215390093624592,9.821320533752441,0.0004,0.0,0.0,0.0,0.0004,0.0,0.0,0.0,0.0004
2025/05/07 10:56:42.151144324,1746608202,148549798,mti/imu_base_body,0.9092971384100986,-0.41609614615463675,0.006305630477196885,0.001717631727093871,0.017453292519943295,0.0,0.0,0.0,0.017453292519943295,0.0,0.0,0.0,0.15707963267948966,0.004511791281402111,0.0011858815560117364,-0.004946401342749596,0.0004363323129985824,0.0,0.0,0.0,0.0004363323129985824,0.0,0.0,0.0,0.0004363323129985824,-0.15923123061656952,0.023190779611468315,9.781682968139648,0.0004,0.0,0.0,0.0,0.0004,0.0,0.0,0.0,0.0004
2025/05/07 10:56:42.198549755,1746608202,198193356,mti/imu_base_body,0.9092900609063489,-0.41611169941656956,0.006310104082910639,0.0016796821263717044,0.017453292519943295,0.0,0.0,0.0,0.017453292519943295,0.0,0.0,0.0,0.15707963267948966,0.017498377710580826,0.0024813911877572536,0.010900313965976238,0.0004363323129985824,0.0,0.0,0.0,0.0004363323129985824,0.0,0.0,0.0,0.0004363323129985824,-0.12194015830755234,0.06275792419910431,9.7432279586792,0.0004,0.0,0.0,0.0,0.0004,0.0,0.0,0.0,0.0004
2025/05/07 10:56:42.259278727,1746608202,248091126,mti/imu_base_body,0.9092876189290644,-0.4161170931417784,0.006320794615772644,0.0016243192340966994,0.017453292519943295,0.0,0.0,0.0,0.017453292519943295,0.0,0.0,0.0,0.15707963267948966,0.01933242194354534,0.0048515526577830315,0.0010824106866493821,0.0004363323129985824,0.0,0.0,0.0,0.0004363323129985824,0.0,0.0,0.0,0.0004363323129985824,-0.11952277272939682,0.03849155455827713,9.944284439086914,0.0004,0.0,0.0,0.0,0.0004,0.0,0.0,0.0,0.0004
2025/05/07 10:56:42.326147182,1746608202,297985804,mti/imu_base_body,0.909482655668229,-0.41568460537629576,0.006847605485874906,0.000847461461340673,0.017453292519943295,0.0,0.0,0.0,0.017453292519943295,0.0,0.0,0.0,0.15707963267948966,0.020264875143766403,0.0005201618769206107,0.0008509271428920329,0.0004363323129985824,0.0,0.0,0.0,0.0004363323129985824,0.0,0.0,0.0,0.0004363323129985824,-0.1451393961906433,0.06003408506512642,9.81779956817627,0.0004,0.0,0.0,0.0,0.0004,0.0,0.0,0.0,0.0004
2025/05/07 10:56:42.376625214,1746608202,347957101,mti/imu_base_body,0.9094875293028629,-0.41567345433847647,0.006880985915135267,0.0008157412138933449,0.017453292519943295,0.0,0.0,0.0,0.017453292519943295,0.0,0.0,0.0,0.15707963267948966,0.018035579472780228,0.00770215829834342,0.0027912878431379795,0.0004363323129985824,0.0,0.0,0.0,0.0004363323129985824,0.0,0.0,0.0,0.0004363323129985824,-0.14041019976139069,0.05560716986656189,9.848156929016113,0.0004,0.0,0.0,0.0,0.0004,0.0,0.0,0.0,0.0004
2025/05/07 10:56:42.399770369,1746608202,398047284,mti/imu_base_body,0.9094874332450054,-0.4156731755168715,0.006912021253347031,0.0008024259002251677,0.017453292519943295,0.0,0.0,0.0,0.017453292519943295,0.0,0.0,0.0,0.15707963267948966,0.015781914815306664,0.005939604248851538,-0.001063033239915967,0.0004363323129985824,0.0,0.0,0.0,0.0004363323129985824,0.0,0.0,0.0,0.0004363323129985824,-0.14355698227882385,0.030768971890211105,9.768218994140625,0.0004,0.0,0.0,0.0,0.0004,0.0,0.0,0.0,0.0004
2025/05/07 10:56:42.449569997,1746608202,447985487,mti/imu_base_body,0.9095146195270981,-0.4156129711760336,0.006959144813793257,0.0007650883399032446,0.017453292519943295,0.0,0.0,0.0,0.017453292519943295,0.0,0.0,0.0,0.15707963267948966,0.020632032305002213,0.009284949861466885,-0.006132465787231922,0.0004363323129985824,0.0,0.0,0.0,0.0004363323129985824,0.0,0.0,0.0,0.0004363323129985824,-0.14535798132419586,0.026594894006848335,9.805066108703613,0.0004,0.0,0.0,0.0,0.0004,0.0,0.0,0.0,0.0004
2025/05/07 10:56:42.548216200,1746608202,500050642,mti/imu_base_body,0.9095211996649806,-0.4155986176034836,0.006958131749321804,0.0007488715556204398,0.017453292519943295,0.0,0.0,0.0,0.017453292519943295,0.0,0.0,0.0,0.15707963267948966,0.011818531900644302,0.005150923039764166,0.003965884912759066,0.0004363323129985824,0.0,0.0,0.0,0.0004363323129985824,0.0,0.0,0.0,0.0004363323129985824,-0.1560966521501541,0.05011166259646416,9.786001205444336,0.0004,0.0,0.0,0.0,0.0004,0.0,0.0,0.0,0.0004
2025/05/07 10:56:42.557893675,1746608202,548057093,mti/imu_base_body,0.9095374447549951,-0.41556234283986404,0.006998408919801,0.0007733528230645373,0.017453292519943295,0.0,0.0,0.0,0.017453292519943295,0.0,0.0,0.0,0.15707963267948966,0.00931552518159151,0.012084709480404854,-0.0038041274528950453,0.0004363323129985824,0.0,0.0,0.0,0.0004363323129985824,0.0,0.0,0.0,0.0004363323129985824,-0.16134808957576752,0.02647452987730503,9.791760444641113,0.0004,0.0,0.0,0.0,0.0004,0.0,0.0,0.0,0.0004
2025/05/07 10:56:42.613429373,1746608202,600228504,mti/imu_base_body,0.9095245874467436,-0.415590215364248,0.007016537170280298,0.0007522828369530138,0.017453292519943295,0.0,0.0,0.0,0.017453292519943295,0.0,0.0,0.0,0.15707963267948966,0.016197562217712402,0.00768829882144928,0.006116895470768213,0.0004363323129985824,0.0,0.0,0.0,0.0004363323129985824,0.0,0.0,0.0,0.0004363323129985824,-0.1278173327445984,0.03315736725926399,9.801331520080566,0.0004,0.0,0.0,0.0,0.0004,0.0,0.0,0.0,0.0004
2025/05/07 10:56:42.648327526,1746608202,647990180,mti/imu_base_body,0.9095441808121801,-0.41554682074110494,0.007047990121390126,0.0007407819575934557,0.017453292519943295,0.0,0.0,0.0,0.017453292519943295,0.0,0.0,0.0,0.15707963267948966,0.015412569977343082,0.007302277721464634,-0.002636662917211652,0.0004363323129985824,0.0,0.0,0.0,0.0004363323129985824,0.0,0.0,0.0,0.0004363323129985824,-0.13813820481300354,0.055732693523168564,9.798704147338867,0.0004,0.0,0.0,0.0,0.0004,0.0,0.0,0.0,0.0004
2025/05/07 10:56:42.698446961,1746608202,698121423,mti/imu_base_body,0.9097163780177123,-0.41516251833907025,0.007493830541634045,-0.00019348516482205593,0.017453292519943295,0.0,0.0,0.0,0.017453292519943295,0.0,0.0,0.0,0.15707963267948966,0.019870692864060402,0.012217121198773384,0.006520995870232582,0.0004363323129985824,0.0,0.0,0.0,0.0004363323129985824,0.0,0.0,0.0,0.0004363323129985824,-0.16604721546173096,0.08492831140756607,9.8049898147583,0.0004,0.0,0.0,0.0,0.0004,0.0,0.0,0.0,0.0004
2025/05/07 10:56:42.754596684,1746608202,747954769,mti/imu_base_body,0.9097103286691339,-0.4151754263864124,0.007512961818191995,-0.00019657638456519822,0.017453292519943295,0.0,0.0,0.0,0.017453292519943295,0.0,0.0,0.0,0.15707963267948966,0.00830997433513403,0.0016587097197771072,0.0035437054466456175,0.0004363323129985824,0.0,0.0,0.0,0.0004363323129985824,0.0,0.0,0.0,0.0004363323129985824,-0.18699432909488678,0.07373568415641785,9.7925386428833,0.0004,0.0,0.0,0.0,0.0004,0.0,0.0,0.0,0.0004
2025/05/07 10:56:42.885409075,1746608202,799245998,mti/imu_base_body,0.9097260221907557,-0.4151411873729789,0.007504517451522366,-0.0002032568757316536,0.017453292519943295,0.0,0.0,0.0,0.017453292519943295,0.0,0.0,0.0,0.15707963267948966,0.011968955397605896,0.005990692414343357,-0.004420111421495676,0.0004363323129985824,0.0,0.0,0.0,0.0004363323129985824,0.0,0.0,0.0,0.0004363323129985824,-0.1569899320602417,0.06675976514816284,9.787222862243652,0.0004,0.0,0.0,0.0,0.0004,0.0,0.0,0.0,0.0004
2025/05/07 10:56:42.894457687,1746608202,848064289,mti/imu_base_body,0.909730607880294,-0.4151313787617578,0.007491999765844574,-0.00017144276337798404,0.017453292519943295,0.0,0.0,0.0,0.017453292519943295,0.0,0.0,0.0,0.15707963267948966,0.005276951938867569,0.0067365230061113834,0.001970617100596428,0.0004363323129985824,0.0,0.0,0.0,0.0004363323129985824,0.0,0.0,0.0,0.0004363323129985824,-0.14615830779075623,0.0759052187204361,9.839186668395996,0.0004,0.0,0.0,0.0,0.0004,0.0,0.0,0.0,0.0004
2025/05/07 10:56:42.921846502,1746608202,897947332,mti/imu_base_body,0.909746035966811,-0.41509696065975504,0.007524184031309515,-0.00022349132062452013,0.017453292519943295,0.0,0.0,0.0,0.017453292519943295,0.0,0.0,0.0,0.15707963267948966,0.024184560403227806,0.0025427467189729214,-0.002845711074769497,0.0004363323129985824,0.0,0.0,0.0,0.0004363323129985824,0.0,0.0,0.0,0.0004363323129985824,-0.17951160669326782,0.04311998933553696,9.832737922668457,0.0004,0.0,0.0,0.0,0.0004,0.0,0.0,0.0,0.0004
2025/05/07 10:56:42.957278897,1746608202,948351830,mti/imu_base_body,0.9097430086247231,-0.4151028573538719,0.007564364572643352,-0.00023762091617900724,0.017453292519943295,0.0,0.0,0.0,0.017453292519943295,0.0,0.0,0.0,0.15707963267948966,0.014902143739163876,0.006160596385598183,0.008901377208530903,0.0004363323129985824,0.0,0.0,0.0,0.0004363323129985824,0.0,0.0,0.0,0.0004363323129985824,-0.16573265194892883,0.04942217469215393,9.792263984680176,0.0004,0.0,0.0,0.0,0.0004,0.0,0.0,0.0,0.0004
2025/05/07 10:56:43.85464229,1746608202,998012337,mti/imu_base_body,0.909742105879627,-0.4151041835869781,0.0075995619131455725,-0.0002534107695821245,0.017453292519943295,0.0,0.0,0.0,0.017453292519943295,0.0,0.0,0.0,0.15707963267948966,0.01140472199767828,0.009988813661038876,0.0010999299120157957,0.0004363323129985824,0.0,0.0,0.0,0.0004363323129985824,0.0,0.0,0.0,0.0004363323129985824,-0.17371810972690582,0.08376649022102356,9.830567359924316,0.0004,0.0,0.0,0.0,0.0004,0.0,0.0,0.0,0.0004
2025/05/07 10:56:43.162972473,1746608203,47950591,mti/imu_base_body,0.9097549319447653,-0.41507596804324437,0.0076047639322849485,-0.00026855292490573796,0.017453292519943295,0.0,0.0,0.0,0.017453292519943295,0.0,0.0,0.0,0.15707963267948966,0.01562713459134102,0.005290051456540823,-0.0006303281988948584,0.0004363323129985824,0.0,0.0,0.0,0.0004363323129985824,0.0,0.0,0.0,0.0004363323129985824,-0.1454804241657257,0.08995140343904495,9.753837585449219,0.0004,0.0,0.0,0.0,0.0004,0.0,0.0,0.0,0.0004
2025/05/07 10:56:43.163410380,1746608203,98195939,mti/imu_base_body,0.9101232811097724,-0.4142617256294576,0.007918414656036939,-0.00036683759503976666,0.017453292519943295,0.0,0.0,0.0,0.017453292519943295,0.0,0.0,0.0,0.15707963267948966,0.00993390567600727,-0.004188284743577242,-0.00033523814636282623,0.0004363323129985824,0.0,0.0,0.0,0.0004363323129985824,0.0,0.0,0.0,0.0004363323129985824,-0.1716548502445221,0.05468229576945305,9.833460807800293,0.0004,0.0,0.0,0.0,0.0004,0.0,0.0,0.0,0.0004
2025/05/07 10:56:43.187696159,1746608203,148156258,mti/imu_base_body,0.910133427563004,-0.4142394154911439,0.007917919725708138,-0.0003965264060417843,0.017453292519943295,0.0,0.0,0.0,0.017453292519943295,0.0,0.0,0.0,0.15707963267948966,0.014909702353179455,0.0037627816200256348,0.0011017528595402837,0.0004363323129985824,0.0,0.0,0.0,0.0004363323129985824,0.0,0.0,0.0,0.0004363323129985824,-0.14590857923030853,0.05721288174390793,9.824899673461914,0.0004,0.0,0.0,0.0,0.0004,0.0,0.0,0.0,0.0004
2025/05/07 10:56:43.198462152,1746608203,198093007,mti/imu_base_body,0.9101423267314961,-0.4142196670588581,0.00792783642327886,-0.00040239666170165155,0.017453292519943295,0.0,0.0,0.0,0.017453292519943295,0.0,0.0,0.0,0.15707963267948966,0.011124848388135433,0.0030315315816551447,-0.0035842033103108406,0.0004363323129985824,0.0,0.0,0.0,0.0004363323129985824,0.0,0.0,0.0,0.0004363323129985824,-0.1552182286977768,0.06761825829744339,9.841835021972656,0.0004,0.0,0.0,0.0,0.0004,0.0,0.0,0.0,0.0004
2025/05/07 10:56:43.248885825,1746608203,248058094,mti/imu_base_body,0.9101502839091505,-0.41420235167932995,0.007919682488004816,-0.0003888350478676232,0.017453292519943295,0.0,0.0,0.0,0.017453292519943295,0.0,0.0,0.0,0.15707963267948966,0.011113419197499752,0.006377410143613815,-0.0034139303024858236,0.0004363323129985824,0.0,0.0,0.0,0.0004363323129985824,0.0,0.0,0.0,0.0004363323129985824,-0.17152917385101318,0.066789411008358,9.776076316833496,0.0004,0.0,0.0,0.0,0.0004,0.0,0.0,0.0,0.0004
2025/05/07 10:56:43.299432489,1746608203,298177043,mti/imu_base_body,0.9101939354071604,-0.41410640779934665,0.007919439260506509,-0.00040675465110790636,0.017453292519943295,0.0,0.0,0.0,0.017453292519943295,0.0,0.0,0.0,0.15707963267948966,0.013179338537156582,-0.0010802322067320347,-0.014465322718024254,0.0004363323129985824,0.0,0.0,0.0,0.0004363323129985824,0.0,0.0,0.0,0.0004363323129985824,-0.15160608291625977,0.07945312559604645,9.828634262084961,0.0004,0.0,0.0,0.0,0.0004,0.0,0.0,0.0,0.0004
2025/05/07 10:56:43.376320232,1746608203,348095627,mti/imu_base_body,0.9102083300473155,-0.41407488299438067,0.007914035399760294,-0.00039399157132884426,0.017453292519943295,0.0,0.0,0.0,0.017453292519943295,0.0,0.0,0.0,0.15707963267948966,0.00666006188839674,0.001094115781597793,-0.00051921047270298,0.0004363323129985824,0.0,0.0,0.0,0.0004363323129985824,0.0,0.0,0.0,0.0004363323129985824,-0.1472756266593933,0.07713577896356583,9.863195419311523,0.0004,0.0,0.0,0.0,0.0004,0.0,0.0,0.0,0.0004
2025/05/07 10:56:43.443372779,1746608203,398132498,mti/imu_base_body,0.9102134814318729,-0.41406408637173897,0.007886230812147836,-0.00039744230297453437,0.017453292519943295,0.0,0.0,0.0,0.017453292519943295,0.0,0.0,0.0,0.15707963267948966,0.005530192982405424,-0.0006620493368245661,0.0028506708331406116,0.0004363323129985824,0.0,0.0,0.0,0.0004363323129985824,0.0,0.0,0.0,0.0004363323129985824,-0.15295672416687012,0.06331285834312439,9.807744979858398,0.0004,0.0,0.0,0.0,0.0004,0.0,0.0,0.0,0.0004
2025/05/07 10:56:43.463582801,1746608203,448045447,mti/imu_base_body,0.9102239332340682,-0.4140419201609164,0.007843549947044354,-0.0003980472232526875,0.017453292519943295,0.0,0.0,0.0,0.017453292519943295,0.0,0.0,0.0,0.15707963267948966,0.009598582051694393,0.0032679028809070587,0.001955475891008973,0.0004363323129985824,0.0,0.0,0.0,0.0004363323129985824,0.0,0.0,0.0,0.0004363323129985824,-0.15375946462154388,0.05196559801697731,9.811592102050781,0.0004,0.0,0.0,0.0,0.0004,0.0,0.0,0.0,0.0004
2025/05/07 10:56:43.498675536,1746608203,498117410,mti/imu_base_body,0.9107006628102133,-0.4130014227437401,0.007352879162215409,0.00025047297331608166,0.017453292519943295,0.0,0.0,0.0,0.017453292519943295,0.0,0.0,0.0,0.15707963267948966,0.0018166846130043268,0.005385079886764288,-0.007816911675035954,0.0004363323129985824,0.0,0.0,0.0,0.0004363323129985824,0.0,0.0,0.0,0.0004363323129985824,-0.1593921035528183,0.051441386342048645,9.833083152770996,0.0004,0.0,0.0,0.0,0.0004,0.0,0.0,0.0,0.0004
2025/05/07 10:56:43.550326040,1746608203,548066849,mti/imu_base_body,0.9107140035280246,-0.41297301303971273,0.007295054519232947,0.00027651115689200515,0.017453292519943295,0.0,0.0,0.0,0.017453292519943295,0.0,0.0,0.0,0.15707963267948966,0.00020833646703977138,-0.006004380062222481,0.0009910542285069823,0.0004363323129985824,0.0,0.0,0.0,0.0004363323129985824,0.0,0.0,0.0,0.0004363323129985824,-0.17382167279720306,0.048613421618938446,9.838150024414062,0.0004,0.0,0.0,0.0,0.0004,0.0,0.0,0.0,0.0004
2025/05/07 10:56:43.598694476,1746608203,597949512,mti/imu_base_body,0.9107400949334616,-0.41291611943023376,0.007255540541747067,0.0003390084262527922,0.017453292519943295,0.0,0.0,0.0,0.017453292519943295,0.0,0.0,0.0,0.15707963267948966,-0.0026133807841688395,0.0026410205755382776,-0.006758827716112137,0.0004363323129985824,0.0,0.0,0.0,0.0004363323129985824,0.0,0.0,0.0,0.0004363323129985824,-0.1530446857213974,0.06992681324481964,9.81471061706543,0.0004,0.0,0.0,0.0,0.0004,0.0,0.0,0.0,0.0004
2025/05/07 10:56:43.704692448,1746608203,648077200,mti/imu_base_body,0.9107428858939857,-0.4129100310125285,0.007249779952757968,0.0003778536275004063,0.017453292519943295,0.0,0.0,0.0,0.017453292519943295,0.0,0.0,0.0,0.15707963267948966,0.002186553319916129,0.004575272090733051,-0.004360003862529993,0.0004363323129985824,0.0,0.0,0.0,0.0004363323129985824,0.0,0.0,0.0,0.0004363323129985824,-0.1396661400794983,0.04858841001987457,9.852978706359863,0.0004,0.0,0.0,0.0,0.0004,0.0,0.0,0.0,0.0004
2025/05/07 10:56:43.733677042,1746608203,698224598,mti/imu_base_body,0.91077753128342,-0.4128342331220266,0.007211660088759623,0.0004200364166658233,0.017453292519943295,0.0,0.0,0.0,0.017453292519943295,0.0,0.0,0.0,0.15707963267948966,0.0009100775350816548,0.0020557870157063007,-0.010416241362690926,0.0004363323129985824,0.0,0.0,0.0,0.0004363323129985824,0.0,0.0,0.0,0.0004363323129985824,-0.18444529175758362,0.06466855853796005,9.805867195129395,0.0004,0.0,0.0,0.0,0.0004,0.0,0.0,0.0,0.0004
2025/05/07 10:56:43.751095396,1746608203,749864083,mti/imu_base_body,0.9108094066830321,-0.4127638219457537,0.007216763658314312,0.0004126896378160096,0.017453292519943295,0.0,0.0,0.0,0.017453292519943295,0.0,0.0,0.0,0.15707963267948966,0.011109115555882454,0.007468346040695906,-0.009013427421450615,0.0004363323129985824,0.0,0.0,0.0,0.0004363323129985824,0.0,0.0,0.0,0.0004363323129985824,-0.1594891995191574,0.04115155339241028,9.831629753112793,0.0004,0.0,0.0,0.0,0.0004,0.0,0.0,0.0,0.0004
2025/05/07 10:56:43.876847854,1746608203,798490428,mti/imu_base_body,0.9108205450351281,-0.41273943906780747,0.0072037188988913255,0.0004434116932477369,0.017453292519943295,0.0,0.0,0.0,0.017453292519943295,0.0,0.0,0.0,0.15707963267948966,0.0015012763906270266,0.0015746636781841516,-0.003922448027879,0.0004363323129985824,0.0,0.0,0.0,0.0004363323129985824,0.0,0.0,0.0,0.0004363323129985824,-0.1374799758195877,0.04662744328379631,9.868350982666016,0.0004,0.0,0.0,0.0,0.0004,0.0,0.0,0.0,0.0004
2025/05/07 10:56:43.906378245,1746608203,849418987,mti/imu_base_body,0.9108312099223916,-0.4127155096385378,0.0072228859079924435,0.0004950295690807319,0.017453292519943295,0.0,0.0,0.0,0.017453292519943295,0.0,0.0,0.0,0.15707963267948966,0.004324185661971569,0.007216898258775473,-0.0021262378431856632,0.0004363323129985824,0.0,0.0,0.0,0.0004363323129985824,0.0,0.0,0.0,0.0004363323129985824,-0.17507168650627136,0.06342833489179611,9.804402351379395,0.0004,0.0,0.0,0.0,0.0004,0.0,0.0,0.0,0.0004
2025/05/07 10:56:43.915318907,1746608203,899343630,mti/imu_base_body,0.9113659131339797,-0.4115384222812781,0.006853070067567736,0.0011553330049918356,0.017453292519943295,0.0,0.0,0.0,0.017453292519943295,0.0,0.0,0.0,0.15707963267948966,0.006146900821477175,0.009260011836886406,0.004311867989599705,0.0004363323129985824,0.0,0.0,0.0,0.0004363323129985824,0.0,0.0,0.0,0.0004363323129985824,-0.1448974311351776,0.07153342664241791,9.813956260681152,0.0004,0.0,0.0,0.0,0.0004,0.0,0.0,0.0,0.0004
2025/05/07 10:56:44.18621501,1746608203,949267563,mti/imu_base_body,0.9113697215819114,-0.4115297366070266,0.0068634800847439635,0.0011828410658418962,0.017453292519943295,0.0,0.0,0.0,0.017453292519943295,0.0,0.0,0.0,0.15707963267948966,0.005472756456583738,0.011593859642744064,-0.0003561865596566349,0.0004363323129985824,0.0,0.0,0.0,0.0004363323129985824,0.0,0.0,0.0,0.0004363323129985824,-0.16397081315517426,0.10768724977970123,9.84698486328125,0.0004,0.0,0.0,0.0,0.0004,0.0,0.0,0.0,0.0004
2025/05/07 10:56:44.34296785,1746608203,998317632,mti/imu_base_body,0.9113998113550008,-0.4114630250285052,0.006861966510165897,0.0012150358323318238,0.017453292519943295,0.0,0.0,0.0,0.017453292519943295,0.0,0.0,0.0,0.15707963267948966,0.007637927774339914,0.000591916439589113,-0.014077875763177872,0.0004363323129985824,0.0,0.0,0.0,0.0004363323129985824,0.0,0.0,0.0,0.0004363323129985824,-0.16317668557167053,0.09515772014856339,9.76620864868164,0.0004,0.0,0.0,0.0,0.0004,0.0,0.0,0.0,0.0004
2025/05/07 10:56:44.63821463,1746608204,48081209,mti/imu_base_body,0.9114236819021786,-0.41141086830707585,0.006823136945223385,0.0011892472076630066,0.017453292519943295,0.0,0.0,0.0,0.017453292519943295,0.0,0.0,0.0,0.15707963267948966,0.009298832155764103,-0.0009799241088330746,-0.006608833093196154,0.0004363323129985824,0.0,0.0,0.0,0.0004363323129985824,0.0,0.0,0.0,0.0004363323129985824,-0.14225426316261292,0.07453414052724838,9.820075035095215,0.0004,0.0,0.0,0.0,0.0004,0.0,0.0,0.0,0.0004
2025/05/07 10:56:44.135728007,1746608204,98084966,mti/imu_base_body,0.9114593236325358,-0.41133219630619655,0.006809907342675841,0.001162242326291339,0.017453292519943295,0.0,0.0,0.0,0.017453292519943295,0.0,0.0,0.0,0.15707963267948966,0.014138655737042427,-0.003481461899355054,-0.008192677982151508,0.0004363323129985824,0.0,0.0,0.0,0.0004363323129985824,0.0,0.0,0.0,0.0004363323129985824,-0.11327171325683594,0.060012225061655045,9.833369255065918,0.0004,0.0,0.0,0.0,0.0004,0.0,0.0,0.0,0.0004
2025/05/07 10:56:44.175481087,1746608204,148132284,mti/imu_base_body,0.9114541769613519,-0.41134326032774216,0.00682927929368249,0.0011689426746903653,0.017453292519943295,0.0,0.0,0.0,0.017453292519943295,0.0,0.0,0.0,0.15707963267948966,0.007531704846769571,0.008299259468913078,0.005215489771217108,0.0004363323129985824,0.0,0.0,0.0,0.0004363323129985824,0.0,0.0,0.0,0.0004363323129985824,-0.17521020770072937,0.09566687047481537,9.82778549194336,0.0004,0.0,0.0,0.0,0.0004,0.0,0.0,0.0,0.0004
2025/05/07 10:56:44.199272960,1746608204,198480597,mti/imu_base_body,0.9114686805697125,-0.4113112716061497,0.00682423905700312,0.0011454045277385244,0.017453292519943295,0.0,0.0,0.0,0.017453292519943295,0.0,0.0,0.0,0.15707963267948966,0.0197629164904356,0.002124481601640582,-0.008053826168179512,0.0004363323129985824,0.0,0.0,0.0,0.0004363323129985824,0.0,0.0,0.0,0.0004363323129985824,-0.17460203170776367,0.0909218117594719,9.73945140838623,0.0004,0.0,0.0,0.0,0.0004,0.0,0.0,0.0,0.0004
2025/05/07 10:56:44.300949043,1746608204,247983528,mti/imu_base_body,0.9114956372224872,-0.4112520139465188,0.006798262581712284,0.0011260440374636447,0.017453292519943295,0.0,0.0,0.0,0.017453292519943295,0.0,0.0,0.0,0.15707963267948966,0.013499549590051174,-0.0028875949792563915,-0.009391617961227894,0.0004363323129985824,0.0,0.0,0.0,0.0004363323129985824,0.0,0.0,0.0,0.0004363323129985824,-0.13986948132514954,0.04565175250172615,9.807713508605957,0.0004,0.0,0.0,0.0,0.0004,0.0,0.0,0.0,0.0004
2025/05/07 10:56:44.321812401,1746608204,298777829,mti/imu_base_body,0.9124500668627014,-0.40912417341418,0.007111993935301814,0.0013060446699792744,0.017453292519943295,0.0,0.0,0.0,0.017453292519943295,0.0,0.0,0.0,0.15707963267948966,0.019792858511209488,0.006347406189888716,-0.013845421373844147,0.0004363323129985824,0.0,0.0,0.0,0.0004363323129985824,0.0,0.0,0.0,0.0004363323129985824,-0.12261752039194107,0.08156856149435043,9.90947437286377,0.0004,0.0,0.0,0.0,0.0004,0.0,0.0,0.0,0.0004
2025/05/07 10:56:44.350331383,1746608204,348072901,mti/imu_base_body,0.9125058888882097,-0.4089995422627929,0.007116207167541376,0.001317865210356674,0.017453292519943295,0.0,0.0,0.0,0.017453292519943295,0.0,0.0,0.0,0.15707963267948966,0.012859770096838474,0.006312573794275522,-0.02011166140437126,0.0004363323129985824,0.0,0.0,0.0,0.0004363323129985824,0.0,0.0,0.0,0.0004363323129985824,-0.1663457751274109,0.06956526637077332,9.744475364685059,0.0004,0.0,0.0,0.0,0.0004,0.0,0.0,0.0,0.0004
2025/05/07 10:56:44.409974286,1746608204,398147918,mti/imu_base_body,0.9125541111260864,-0.40889139595591645,0.00715201388201126,0.0012920052366461473,0.017453292519943295,0.0,0.0,0.0,0.017453292519943295,0.0,0.0,0.0,0.15707963267948966,0.013342262245714664,0.006720846518874168,-0.018693355843424797,0.0004363323129985824,0.0,0.0,0.0,0.0004363323129985824,0.0,0.0,0.0,0.0004363323129985824,-0.18082156777381897,0.06736943125724792,9.69959831237793,0.0004,0.0,0.0,0.0,0.0004,0.0,0.0,0.0,0.0004
2025/05/07 10:56:44.448503852,1746608204,448183612,mti/imu_base_body,0.9125824748835265,-0.4088278480585517,0.0071664463807597795,0.0012881123953571764,0.017453292519943295,0.0,0.0,0.0,0.017453292519943295,0.0,0.0,0.0,0.15707963267948966,0.012470058165490627,0.008667590096592903,-0.008707500994205475,0.0004363323129985824,0.0,0.0,0.0,0.0004363323129985824,0.0,0.0,0.0,0.0004363323129985824,-0.14674028754234314,0.0788208395242691,9.867732048034668,0.0004,0.0,0.0,0.0,0.0004,0.0,0.0,0.0,0.0004
2025/05/07 10:56:44.498665379,1746608204,498202772,mti/imu_base_body,0.9126065738008853,-0.40877340518405036,0.007202829117938362,0.0012899311388885346,0.017453292519943295,0.0,0.0,0.0,0.017453292519943295,0.0,0.0,0.0,0.15707963267948966,0.017171872779726982,0.010329026728868484,-0.008405919186770916,0.0004363323129985824,0.0,0.0,0.0,0.0004363323129985824,0.0,0.0,0.0,0.0004363323129985824,-0.15823811292648315,0.09017033129930496,9.88730239868164,0.0004,0.0,0.0,0.0,0.0004,0.0,0.0,0.0,0.0004
2025/05/07 10:56:44.548573452,1746608204,548033543,mti/imu_base_body,0.9126446903800514,-0.40868785860241835,0.007229615231673657,0.001279068282631403,0.017453292519943295,0.0,0.0,0.0,0.017453292519943295,0.0,0.0,0.0,0.15707963267948966,0.013841773383319378,0.010561107657849789,-0.010855989530682564,0.0004363323129985824,0.0,0.0,0.0,0.0004363323129985824,0.0,0.0,0.0,0.0004363323129985824,-0.16319307684898376,0.059440433979034424,9.746512413024902,0.0004,0.0,0.0,0.0,0.0004,0.0,0.0,0.0,0.0004
2025/05/07 10:56:44.598207974,1746608204,597815347,mti/imu_base_body,0.9126761974640053,-0.4086169631143456,0.007258216570177382,0.0012862076324414353,0.017453292519943295,0.0,0.0,0.0,0.017453292519943295,0.0,0.0,0.0,0.15707963267948966,0.008971639908850193,0.005243449471890926,-0.014486863277852535,0.0004363323129985824,0.0,0.0,0.0,0.0004363323129985824,0.0,0.0,0.0,0.0004363323129985824,-0.16890844702720642,0.06076965481042862,9.726473808288574,0.0004,0.0,0.0,0.0,0.0004,0.0,0.0,0.0,0.0004
2025/05/07 10:56:44.648293435,1746608204,647911562,mti/imu_base_body,0.9127198723183875,-0.4085189054309214,0.007279620107803784,0.0013212538417130102,0.017453292519943295,0.0,0.0,0.0,0.017453292519943295,0.0,0.0,0.0,0.15707963267948966,0.00263174157589674,0.011824446730315685,-0.017522847279906273,0.0004363323129985824,0.0,0.0,0.0,0.0004363323129985824,0.0,0.0,0.0,0.0004363323129985824,-0.15934297442436218,0.087064228951931,9.866538047790527,0.0004,0.0,0.0,0.0,0.0004,0.0,0.0,0.0,0.0004
2025/05/07 10:56:44.698588317,1746608204,698071522,mti/imu_base_body,0.9141785750892144,-0.40523520832983895,0.007778541286428593,0.0012054348513972518,0.017453292519943295,0.0,0.0,0.0,0.017453292519943295,0.0,0.0,0.0,0.15707963267948966,0.009227557107806206,0.004434735979884863,-0.023087088018655777,0.0004363323129985824,0.0,0.0,0.0,0.0004363323129985824,0.0,0.0,0.0,0.0004363323129985824,-0.17435137927532196,0.011788790114223957,9.807859420776367,0.0004,0.0,0.0,0.0,0.0004,0.0,0.0,0.0,0.0004
2025/05/07 10:56:44.749190530,1746608204,748049459,mti/imu_base_body,0.9142188093571786,-0.40514377690779707,0.007812446183913458,0.0012059581466727764,0.017453292519943295,0.0,0.0,0.0,0.017453292519943295,0.0,0.0,0.0,0.15707963267948966,0.016421498730778694,0.010169976390898228,-0.01675114408135414,0.0004363323129985824,0.0,0.0,0.0,0.0004363323129985824,0.0,0.0,0.0,0.0004363323129985824,-0.18066930770874023,0.0389801450073719,9.722402572631836,0.0004,0.0,0.0,0.0,0.0004,0.0,0.0,0.0,0.0004
2025/05/07 10:56:44.798251254,1746608204,797826359,mti/imu_base_body,0.9142936560254902,-0.4049739689080349,0.007854695999959315,0.0012242586183465439,0.017453292519943295,0.0,0.0,0.0,0.017453292519943295,0.0,0.0,0.0,0.15707963267948966,0.008629403077065945,0.009773585945367813,-0.03435036167502403,0.0004363323129985824,0.0,0.0,0.0,0.0004363323129985824,0.0,0.0,0.0,0.0004363323129985824,-0.15717948973178864,0.08358790725469589,9.788634300231934,0.0004,0.0,0.0,0.0,0.0004,0.0,0.0,0.0,0.0004
2025/05/07 10:56:44.849054881,1746608204,848611855,mti/imu_base_body,0.9143490843446671,-0.40484857750283343,0.00787303506269535,0.0011817660101457192,0.017453292519943295,0.0,0.0,0.0,0.017453292519943295,0.0,0.0,0.0,0.15707963267948966,0.017893251031637192,0.005773378070443869,-0.021339794620871544,0.0004363323129985824,0.0,0.0,0.0,0.0004363323129985824,0.0,0.0,0.0,0.0004363323129985824,-0.13622765243053436,0.08138515055179596,9.885843276977539,0.0004,0.0,0.0,0.0,0.0004,0.0,0.0,0.0,0.0004
2025/05/07 10:56:44.900290589,1746608204,899438355,mti/imu_base_body,0.9144073263964813,-0.4047160554122152,0.007920149665091136,0.0011946352156069046,0.017453292519943295,0.0,0.0,0.0,0.017453292519943295,0.0,0.0,0.0,0.15707963267948966,0.016245616599917412,0.011324675753712654,-0.023977132514119148,0.0004363323129985824,0.0,0.0,0.0,0.0004363323129985824,0.0,0.0,0.0,0.0004363323129985824,-0.17756718397140503,0.04217823967337608,9.822019577026367,0.0004,0.0,0.0,0.0,0.0004,0.0,0.0,0.0,0.0004
2025/05/07 10:56:44.948532026,1746608204,948134302,mti/imu_base_body,0.9144659757940523,-0.4045831372529139,0.007934973191277686,0.001224894311842281,0.017453292519943295,0.0,0.0,0.0,0.017453292519943295,0.0,0.0,0.0,0.15707963267948966,0.0016644606366753578,0.015771400183439255,-0.02399981953203678,0.0004363323129985824,0.0,0.0,0.0,0.0004363323129985824,0.0,0.0,0.0,0.0004363323129985824,-0.18458841741085052,0.031337711960077286,9.71616268157959,0.0004,0.0,0.0,0.0,0.0004,0.0,0.0,0.0,0.0004
2025/05/07 10:56:44.998887495,1746608204,998091587,mti/imu_base_body,0.9145153120066365,-0.40447072654966104,0.007971701146917204,0.0012757157277618267,0.017453292519943295,0.0,0.0,0.0,0.017453292519943295,0.0,0.0,0.0,0.15707963267948966,0.005980793386697769,0.007606599945574999,-0.021394647657871246,0.0004363323129985824,0.0,0.0,0.0,0.0004363323129985824,0.0,0.0,0.0,0.0004363323129985824,-0.16006264090538025,0.05206960439682007,9.739665031433105,0.0004,0.0,0.0,0.0,0.0004,0.0,0.0,0.0,0.0004
2025/05/07 10:56:45.49414157,1746608205,48258297,mti/imu_base_body,0.9145685368794332,-0.4043499686228156,0.007989839466620869,0.0012871247952246949,0.017453292519943295,0.0,0.0,0.0,0.017453292519943295,0.0,0.0,0.0,0.15707963267948966,0.009869509376585484,0.0076023126021027565,-0.021501358598470688,0.0004363323129985824,0.0,0.0,0.0,0.0004363323129985824,0.0,0.0,0.0,0.0004363323129985824,-0.14910924434661865,0.08186358958482742,9.914427757263184,0.0004,0.0,0.0,0.0,0.0004,0.0,0.0,0.0,0.0004
2025/05/07 10:56:45.98824334,1746608205,98318644,mti/imu_base_body,0.9162646808406637,-0.40049139981997894,0.007941411906256007,0.001614710848856738,0.017453292519943295,0.0,0.0,0.0,0.017453292519943295,0.0,0.0,0.0,0.15707963267948966,-0.0015251139411702752,0.010135438293218613,-0.013236293569207191,0.0004363323129985824,0.0,0.0,0.0,0.0004363323129985824,0.0,0.0,0.0,0.0004363323129985824,-0.1662166565656662,0.05982472375035286,9.856590270996094,0.0004,0.0,0.0,0.0,0.0004,0.0,0.0,0.0,0.0004
2025/05/07 10:56:45.148520511,1746608205,148134911,mti/imu_base_body,0.9163023317890175,-0.4004053231788615,0.007943937771120442,0.0015835974012122947,0.017453292519943295,0.0,0.0,0.0,0.017453292519943295,0.0,0.0,0.0,0.15707963267948966,0.019135721027851105,0.002325124340131879,-0.0187189020216465,0.0004363323129985824,0.0,0.0,0.0,0.0004363323129985824,0.0,0.0,0.0,0.0004363323129985824,-0.16079065203666687,0.06517381966114044,9.8324613571167,0.0004,0.0,0.0,0.0,0.0004,0.0,0.0,0.0,0.0004
2025/05/07 10:56:45.198529669,1746608205,198195138,mti/imu_base_body,0.9163736636043275,-0.4002416424147123,0.007961649977992223,0.0015963894212133699,0.017453292519943295,0.0,0.0,0.0,0.017453292519943295,0.0,0.0,0.0,0.15707963267948966,0.01028409507125616,0.006181767676025629,-0.027414683252573013,0.0004363323129985824,0.0,0.0,0.0,0.0004363323129985824,0.0,0.0,0.0,0.0004363323129985824,-0.1580304354429245,0.07601852715015411,9.816967010498047,0.0004,0.0,0.0,0.0,0.0004,0.0,0.0,0.0,0.0004
2025/05/07 10:56:45.248420277,1746608205,248004389,mti/imu_base_body,0.9164266269707966,-0.4001195715414887,0.008004521451703791,0.0015790771713647383,0.017453292519943295,0.0,0.0,0.0,0.017453292519943295,0.0,0.0,0.0,0.15707963267948966,0.017971521243453026,0.007352642714977264,-0.02106846310198307,0.0004363323129985824,0.0,0.0,0.0,0.0004363323129985824,0.0,0.0,0.0,0.0004363323129985824,-0.16648142039775848,0.07451263070106506,9.771119117736816,0.0004,0.0,0.0,0.0,0.0004,0.0,0.0,0.0,0.0004
2025/05/07 10:56:45.298525769,1746608205,298137048,mti/imu_base_body,0.9164761821131814,-0.40000654021948556,0.00798980323945896,0.0015291975276958349,0.017453292519943295,0.0,0.0,0.0,0.017453292519943295,0.0,0.0,0.0,0.15707963267948966,0.014216461218893528,-0.004843860864639282,-0.020403090864419937,0.0004363323129985824,0.0,0.0,0.0,0.0004363323129985824,0.0,0.0,0.0,0.0004363323129985824,-0.15463672578334808,0.06645075231790543,9.8176908493042,0.0004,0.0,0.0,0.0,0.0004,0.0,0.0,0.0,0.0004
2025/05/07 10:56:45.359479152,1746608205,348187389,mti/imu_base_body,0.9165186115383612,-0.3999095365935314,0.007977278511986853,0.001536317962997709,0.017453292519943295,0.0,0.0,0.0,0.017453292519943295,0.0,0.0,0.0,0.15707963267948966,0.010282596573233604,0.003768962575122714,-0.01855914294719696,0.0004363323129985824,0.0,0.0,0.0,0.0004363323129985824,0.0,0.0,0.0,0.0004363323129985824,-0.15773515403270721,0.0467383936047554,9.845052719116211,0.0004,0.0,0.0,0.0,0.0004,0.0,0.0,0.0,0.0004
2025/05/07 10:56:45.398408575,1746608205,398082232,mti/imu_base_body,0.9165705230668293,-0.39979053427882105,0.007978086624294854,0.001534626947842207,0.017453292519943295,0.0,0.0,0.0,0.017453292519943295,0.0,0.0,0.0,0.15707963267948966,0.006072686053812504,0.0059172892943024635,-0.021827062591910362,0.0004363323129985824,0.0,0.0,0.0,0.0004363323129985824,0.0,0.0,0.0,0.0004363323129985824,-0.16846242547035217,0.06119135767221451,9.783846855163574,0.0004,0.0,0.0,0.0,0.0004,0.0,0.0,0.0,0.0004
2025/05/07 10:56:45.457927558,1746608205,448130451,mti/imu_base_body,0.9166121553902024,-0.3996949079442279,0.007986446217554826,0.0015342200613916684,0.017453292519943295,0.0,0.0,0.0,0.017453292519943295,0.0,0.0,0.0,0.15707963267948966,0.01012261863797903,0.008588394150137901,-0.013734661974012852,0.0004363323129985824,0.0,0.0,0.0,0.0004363323129985824,0.0,0.0,0.0,0.0004363323129985824,-0.17274567484855652,0.05395099148154259,9.783611297607422,0.0004,0.0,0.0,0.0,0.0004,0.0,0.0,0.0,0.0004
2025/05/07 10:56:45.498975734,1746608205,497898191,mti/imu_base_body,0.9184565534035153,-0.3954450622772462,0.007670841917403119,0.0013857903732650391,0.017453292519943295,0.0,0.0,0.0,0.017453292519943295,0.0,0.0,0.0,0.15707963267948966,0.022655554115772247,-0.0013613930204883218,-0.023411793634295464,0.0004363323129985824,0.0,0.0,0.0,0.0004363323129985824,0.0,0.0,0.0,0.0004363323129985824,-0.16464734077453613,0.07851303368806839,9.831259727478027,0.0004,0.0,0.0,0.0,0.0004,0.0,0.0,0.0,0.0004
2025/05/07 10:56:45.549025296,1746608205,548554661,mti/imu_base_body,0.9185289484801396,-0.39527698153571195,0.007667678541067036,0.0013730905929182648,0.017453292519943295,0.0,0.0,0.0,0.017453292519943295,0.0,0.0,0.0,0.15707963267948966,0.007840861566364765,0.0034794299863278866,-0.03481690213084221,0.0004363323129985824,0.0,0.0,0.0,0.0004363323129985824,0.0,0.0,0.0,0.0004363323129985824,-0.16448837518692017,0.06641172617673874,9.806655883789062,0.0004,0.0,0.0,0.0,0.0004,0.0,0.0,0.0,0.0004
2025/05/07 10:56:45.606132657,1746608205,599435768,mti/imu_base_body,0.9185795312568301,-0.39515952575835617,0.007664398690389318,0.0013604966475850157,0.017453292519943295,0.0,0.0,0.0,0.017453292519943295,0.0,0.0,0.0,0.15707963267948966,0.01147032156586647,0.004368978552520275,-0.024052346125245094,0.0004363323129985824,0.0,0.0,0.0,0.0004363323129985824,0.0,0.0,0.0,0.0004363323129985824,-0.1759423464536667,0.05957730859518051,9.80858039855957,0.0004,0.0,0.0,0.0,0.0004,0.0,0.0,0.0,0.0004
2025/05/07 10:56:45.650001291,1746608205,649696312,mti/imu_base_body,0.9186327791269122,-0.3950352454893078,0.007687735432786683,0.0013677202504333193,0.017453292519943295,0.0,0.0,0.0,0.017453292519943295,0.0,0.0,0.0,0.15707963267948966,0.012246516533195972,0.009843714535236359,-0.020200377330183983,0.0004363323129985824,0.0,0.0,0.0,0.0004363323129985824,0.0,0.0,0.0,0.0004363323129985824,-0.16186240315437317,0.04693509265780449,9.86618423461914,0.0004,0.0,0.0,0.0,0.0004,0.0,0.0,0.0,0.0004
2025/05/07 10:56:45.699303253,1746608205,698170803,mti/imu_base_body,0.9187127542321365,-0.3948489652905411,0.007697588457073181,0.0013845404061671278,0.017453292519943295,0.0,0.0,0.0,0.017453292519943295,0.0,0.0,0.0,0.15707963267948966,0.008466824889183044,0.0035149476025253534,-0.03218192234635353,0.0004363323129985824,0.0,0.0,0.0,0.0004363323129985824,0.0,0.0,0.0,0.0004363323129985824,-0.1662876158952713,0.056181568652391434,9.800054550170898,0.0004,0.0,0.0,0.0,0.0004,0.0,0.0,0.0,0.0004
2025/05/07 10:56:45.750295147,1746608205,748958447,mti/imu_base_body,0.9187605466412291,-0.39473794411807284,0.007687949783065791,0.0013816067024863465,0.017453292519943295,0.0,0.0,0.0,0.017453292519943295,0.0,0.0,0.0,0.15707963267948966,0.011781600303947926,0.004834026098251343,-0.023590771481394768,0.0004363323129985824,0.0,0.0,0.0,0.0004363323129985824,0.0,0.0,0.0,0.0004363323129985824,-0.1717040240764618,0.04474850744009018,9.809420585632324,0.0004,0.0,0.0,0.0,0.0004,0.0,0.0,0.0,0.0004
2025/05/07 10:56:45.799786850,1746608205,799086177,mti/imu_base_body,0.9188234655923057,-0.3945915064175133,0.00768630281560421,0.001379452474436616,0.017453292519943295,0.0,0.0,0.0,0.017453292519943295,0.0,0.0,0.0,0.15707963267948966,0.007635005284100771,-0.0005071617779321969,-0.022371787577867508,0.0004363323129985824,0.0,0.0,0.0,0.0004363323129985824,0.0,0.0,0.0,0.0004363323129985824,-0.1507035344839096,0.054836709052324295,9.862099647521973,0.0004,0.0,0.0,0.0,0.0004,0.0,0.0,0.0,0.0004
2025/05/07 10:56:45.849264432,1746608205,848828208,mti/imu_base_body,0.9188703279054649,-0.39448284586241567,0.007656985617990582,0.0014054844142767334,0.017453292519943295,0.0,0.0,0.0,0.017453292519943295,0.0,0.0,0.0,0.15707963267948966,0.004727128427475691,-0.001537207281216979,-0.021229976788163185,0.0004363323129985824,0.0,0.0,0.0,0.0004363323129985824,0.0,0.0,0.0,0.0004363323129985824,-0.18554642796516418,0.06118866801261902,9.795272827148438,0.0004,0.0,0.0,0.0,0.0004,0.0,0.0,0.0,0.0004
2025/05/07 10:56:45.898980324,1746608205,898585477,mti/imu_base_body,0.9207850986134603,-0.39000333253261893,0.007135823461860426,0.0011326113070845058,0.017453292519943295,0.0,0.0,0.0,0.017453292519943295,0.0,0.0,0.0,0.15707963267948966,0.007194532081484795,-0.0015253081219270825,-0.027618998661637306,0.0004363323129985824,0.0,0.0,0.0,0.0004363323129985824,0.0,0.0,0.0,0.0004363323129985824,-0.19547131657600403,0.06241739168763161,9.771048545837402,0.0004,0.0,0.0,0.0,0.0004,0.0,0.0,0.0,0.0004
2025/05/07 10:56:45.948456149,1746608205,948040474,mti/imu_base_body,0.9208388156392826,-0.3898764015660176,0.007143602080331326,0.0011117838343214581,0.017453292519943295,0.0,0.0,0.0,0.017453292519943295,0.0,0.0,0.0,0.15707963267948966,0.015177326276898384,0.0036615270655602217,-0.023484788835048676,0.0004363323129985824,0.0,0.0,0.0,0.0004363323129985824,0.0,0.0,0.0,0.0004363323129985824,-0.19408421218395233,0.06743664294481277,9.775959014892578,0.0004,0.0,0.0,0.0,0.0004,0.0,0.0,0.0,0.0004
2025/05/07 10:56:45.998667896,1746608205,998113774,mti/imu_base_body,0.9208907409708644,-0.389753794300308,0.007144049780958199,0.0010888412980546713,0.017453292519943295,0.0,0.0,0.0,0.017453292519943295,0.0,0.0,0.0,0.15707963267948966,0.018628980964422226,0.0011867883149534464,-0.02383418194949627,0.0004363323129985824,0.0,0.0,0.0,0.0004363323129985824,0.0,0.0,0.0,0.0004363323129985824,-0.15466932952404022,0.024212926626205444,9.897506713867188,0.0004,0.0,0.0,0.0,0.0004,0.0,0.0,0.0,0.0004
2025/05/07 10:56:46.49296466,1746608206,48623294,mti/imu_base_body,0.9209558703589619,-0.38959963448519364,0.007158552089244782,0.00107925546378714,0.017453292519943295,0.0,0.0,0.0,0.017453292519943295,0.0,0.0,0.0,0.15707963267948966,0.007621589116752148,0.005732708144932985,-0.026593100279569626,0.0004363323129985824,0.0,0.0,0.0,0.0004363323129985824,0.0,0.0,0.0,0.0004363323129985824,-0.15004198253154755,0.023662589490413666,9.881779670715332,0.0004,0.0,0.0,0.0,0.0004,0.0,0.0,0.0,0.0004
2025/05/07 10:56:46.98865282,1746608206,98246767,mti/imu_base_body,0.9210100167372155,-0.3894716265414821,0.007157592260805158,0.0010816939836128213,0.017453292519943295,0.0,0.0,0.0,0.017453292519943295,0.0,0.0,0.0,0.15707963267948966,0.010805991478264332,0.003709167707711458,-0.02627149224281311,0.0004363323129985824,0.0,0.0,0.0,0.0004363323129985824,0.0,0.0,0.0,0.0004363323129985824,-0.1760682612657547,0.048461005091667175,9.801148414611816,0.0004,0.0,0.0,0.0,0.0004,0.0,0.0,0.0,0.0004
2025/05/07 10:56:46.150415478,1746608206,148068807,mti/imu_base_body,0.9210708599053661,-0.3893279668130973,0.007141272201246015,0.001098872930283316,0.017453292519943295,0.0,0.0,0.0,0.017453292519943295,0.0,0.0,0.0,0.15707963267948966,0.0059023830108344555,0.001120834145694971,-0.025882134214043617,0.0004363323129985824,0.0,0.0,0.0,0.0004363323129985824,0.0,0.0,0.0,0.0004363323129985824,-0.1828020066022873,0.06265367567539215,9.753503799438477,0.0004,0.0,0.0,0.0,0.0004,0.0,0.0,0.0,0.0004
2025/05/07 10:56:46.199298130,1746608206,198890808,mti/imu_base_body,0.9211505519058638,-0.3891401333194658,0.00710244067124952,0.001082912804582263,0.017453292519943295,0.0,0.0,0.0,0.017453292519943295,0.0,0.0,0.0,0.15707963267948966,0.008531147614121437,-0.0048598553985357285,-0.03695398196578026,0.0004363323129985824,0.0,0.0,0.0,0.0004363323129985824,0.0,0.0,0.0,0.0004363323129985824,-0.17567135393619537,0.04976998269557953,9.855765342712402,0.0004,0.0,0.0,0.0,0.0004,0.0,0.0,0.0,0.0004
2025/05/07 10:56:46.248937397,1746608206,248416928,mti/imu_base_body,0.9212204774203371,-0.38897447373162486,0.0071085550020353735,0.0010766672813335666,0.017453292519943295,0.0,0.0,0.0,0.017453292519943295,0.0,0.0,0.0,0.15707963267948966,0.018073638901114464,0.003955567255616188,-0.02635643444955349,0.0004363323129985824,0.0,0.0,0.0,0.0004363323129985824,0.0,0.0,0.0,0.0004363323129985824,-0.1498968005180359,0.04164493456482887,9.870849609375,0.0004,0.0,0.0,0.0,0.0004,0.0,0.0,0.0,0.0004
2025/05/07 10:56:46.299915614,1746608206,299162576,mti/imu_base_body,0.9232657557060293,-0.38409279207168096,0.007247914810949574,0.0007342683759877094,0.017453292519943295,0.0,0.0,0.0,0.017453292519943295,0.0,0.0,0.0,0.15707963267948966,0.010790109634399414,0.0048279487527906895,-0.027022363618016243,0.0004363323129985824,0.0,0.0,0.0,0.0004363323129985824,0.0,0.0,0.0,0.0004363323129985824,-0.17755067348480225,0.0469614639878273,9.771260261535645,0.0004,0.0,0.0,0.0,0.0004,0.0,0.0,0.0,0.0004
2025/05/07 10:56:46.348547260,1746608206,348157376,mti/imu_base_body,0.9233303061480487,-0.3839372185131033,0.007268353797921413,0.000727339013258966,0.017453292519943295,0.0,0.0,0.0,0.017453292519943295,0.0,0.0,0.0,0.15707963267948966,0.011461857706308365,0.007809818256646395,-0.02727530524134636,0.0004363323129985824,0.0,0.0,0.0,0.0004363323129985824,0.0,0.0,0.0,0.0004363323129985824,-0.1738499104976654,0.049413397908210754,9.759486198425293,0.0004,0.0,0.0,0.0,0.0004,0.0,0.0,0.0,0.0004
2025/05/07 10:56:46.398781664,1746608206,398184614,mti/imu_base_body,0.9234012973187784,-0.38376576444389454,0.007307395381273601,0.0006957898621186725,0.017453292519943295,0.0,0.0,0.0,0.017453292519943295,0.0,0.0,0.0,0.15707963267948966,0.019772855564951897,0.009946039877831936,-0.028248056769371033,0.0004363323129985824,0.0,0.0,0.0,0.0004363323129985824,0.0,0.0,0.0,0.0004363323129985824,-0.15749120712280273,0.04035460203886032,9.896068572998047,0.0004,0.0,0.0,0.0,0.0004,0.0,0.0,0.0,0.0004
2025/05/07 10:56:46.448803676,1746608206,448397298,mti/imu_base_body,0.9234600708606866,-0.38362443281519815,0.007298687230795202,0.0007219680742860872,0.017453292519943295,0.0,0.0,0.0,0.017453292519943295,0.0,0.0,0.0,0.15707963267948966,0.0018382115522399545,0.0035735764540731907,-0.030145740136504173,0.0004363323129985824,0.0,0.0,0.0,0.0004363323129985824,0.0,0.0,0.0,0.0004363323129985824,-0.15525272488594055,0.0332699678838253,9.813726425170898,0.0004,0.0,0.0,0.0,0.0004,0.0,0.0,0.0,0.0004
2025/05/07 10:56:46.539017576,1746608206,500821832,mti/imu_base_body,0.9235329422300426,-0.38344945066461567,0.007274413356504547,0.0007115555101244856,0.017453292519943295,0.0,0.0,0.0,0.017453292519943295,0.0,0.0,0.0,0.15707963267948966,0.01127356756478548,-0.002441961783915758,-0.02998831495642662,0.0004363323129985824,0.0,0.0,0.0,0.0004363323129985824,0.0,0.0,0.0,0.0004363323129985824,-0.17868345975875854,0.029668914154171944,9.78699016571045,0.0004,0.0,0.0,0.0,0.0004,0.0,0.0,0.0,0.0004
2025/05/07 10:56:46.549977658,1746608206,548785124,mti/imu_base_body,0.9235886922515473,-0.38331496938693554,0.007281816174874287,0.0007327633755772407,0.017453292519943295,0.0,0.0,0.0,0.017453292519943295,0.0,0.0,0.0,0.15707963267948966,0.00945904292166233,0.00659260293468833,-0.02478386089205742,0.0004363323129985824,0.0,0.0,0.0,0.0004363323129985824,0.0,0.0,0.0,0.0004363323129985824,-0.17164753377437592,0.043586160987615585,9.752280235290527,0.0004,0.0,0.0,0.0,0.0004,0.0,0.0,0.0,0.0004
2025/05/07 10:56:46.599806294,1746608206,599074574,mti/imu_base_body,0.9236597070413275,-0.38314362469054436,0.0072933173140448445,0.0007183104321025016,0.017453292519943295,0.0,0.0,0.0,0.017453292519943295,0.0,0.0,0.0,0.15707963267948966,0.010046171024441719,0.0011255454737693071,-0.032016243785619736,0.0004363323129985824,0.0,0.0,0.0,0.0004363323129985824,0.0,0.0,0.0,0.0004363323129985824,-0.17381903529167175,0.060943812131881714,9.839675903320312,0.0004,0.0,0.0,0.0,0.0004,0.0,0.0,0.0,0.0004
2025/05/07 10:56:46.649351132,1746608206,648403188,mti/imu_base_body,0.9237177142925652,-0.3830036478064533,0.007302636058612608,0.0006793936004904641,0.017453292519943295,0.0,0.0,0.0,0.017453292519943295,0.0,0.0,0.0,0.15707963267948966,0.018556181341409683,0.0034890773240476847,-0.02501603215932846,0.0004363323129985824,0.0,0.0,0.0,0.0004363323129985824,0.0,0.0,0.0,0.0004363323129985824,-0.15741541981697083,0.02860528975725174,9.867981910705566,0.0004,0.0,0.0,0.0,0.0004,0.0,0.0,0.0,0.0004
2025/05/07 10:56:46.698649457,1746608206,698087573,mti/imu_base_body,0.9258912408240767,-0.3777134742603198,0.007610683483221659,0.0001379288529795397,0.017453292519943295,0.0,0.0,0.0,0.017453292519943295,0.0,0.0,0.0,0.15707963267948966,0.019654197618365288,0.0001637560490053147,-0.032247088849544525,0.0004363323129985824,0.0,0.0,0.0,0.0004363323129985824,0.0,0.0,0.0,0.0004363323129985824,-0.17155605554580688,0.04365431144833565,9.729121208190918,0.0004,0.0,0.0,0.0,0.0004,0.0,0.0,0.0,0.0004
2025/05/07 10:56:46.748566067,1746608206,748142205,mti/imu_base_body,0.9259388214029791,-0.37759608566043745,0.007646444989601903,0.00016429180827332024,0.017453292519943295,0.0,0.0,0.0,0.017453292519943295,0.0,0.0,0.0,0.15707963267948966,0.005074846092611551,0.013517173007130623,-0.020285630598664284,0.0004363323129985824,0.0,0.0,0.0,0.0004363323129985824,0.0,0.0,0.0,0.0004363323129985824,-0.11186343431472778,0.04193371534347534,9.81042766571045,0.0004,0.0,0.0,0.0,0.0004,0.0,0.0,0.0,0.0004
2025/05/07 10:56:46.799700685,1746608206,799249726,mti/imu_base_body,0.9260105514240389,-0.37741957929985254,0.0076740798561983434,0.00016825822516027336,0.017453292519943295,0.0,0.0,0.0,0.017453292519943295,0.0,0.0,0.0,0.15707963267948966,0.00924455001950264,0.007075900211930275,-0.027190035209059715,0.0004363323129985824,0.0,0.0,0.0,0.0004363323129985824,0.0,0.0,0.0,0.0004363323129985824,-0.18340817093849182,-0.016554055735468864,9.846640586853027,0.0004,0.0,0.0,0.0,0.0004,0.0,0.0,0.0,0.0004
2025/05/07 10:56:46.848633741,1746608206,848221481,mti/imu_base_body,0.9260688426933148,-0.3772761863142584,0.007690251965931307,0.000194570125605459,0.017453292519943295,0.0,0.0,0.0,0.017453292519943295,0.0,0.0,0.0,0.15707963267948966,0.006699786987155676,0.008481981232762337,-0.03285190835595131,0.0004363323129985824,0.0,0.0,0.0,0.0004363323129985824,0.0,0.0,0.0,0.0004363323129985824,-0.20416639745235443,0.012572593986988068,9.771284103393555,0.0004,0.0,0.0,0.0,0.0004,0.0,0.0,0.0,0.0004
2025/05/07 10:56:46.898396984,1746608206,897978016,mti/imu_base_body,0.9261314909580964,-0.3771217769218727,0.00771899758990615,0.00020953097545699283,0.017453292519943295,0.0,0.0,0.0,0.017453292519943295,0.0,0.0,0.0,0.15707963267948966,0.012087694369256496,0.009654346853494644,-0.02581116184592247,0.0004363323129985824,0.0,0.0,0.0,0.0004363323129985824,0.0,0.0,0.0,0.0004363323129985824,-0.17886005342006683,0.03242826089262962,9.753241539001465,0.0004,0.0,0.0,0.0,0.0004,0.0,0.0,0.0,0.0004
2025/05/07 10:56:46.948713096,1746608206,948187331,mti/imu_base_body,0.9261961654168125,-0.3769625660173322,0.0077369252121696165,0.0001642470164935324,0.017453292519943295,0.0,0.0,0.0,0.017453292519943295,0.0,0.0,0.0,0.15707963267948966,0.022840062156319618,0.0003310746396891773,-0.032151054590940475,0.0004363323129985824,0.0,0.0,0.0,0.0004363323129985824,0.0,0.0,0.0,0.0004363323129985824,-0.10156375169754028,0.06768287718296051,9.813417434692383,0.0004,0.0,0.0,0.0,0.0004,0.0,0.0,0.0,0.0004
2025/05/07 10:56:46.998499772,1746608206,998015640,mti/imu_base_body,0.9262572034502412,-0.3768123171705806,0.007749034715112114,0.0001521382927539565,0.017453292519943295,0.0,0.0,0.0,0.017453292519943295,0.0,0.0,0.0,0.15707963267948966,0.015883293002843857,0.012570012360811234,-0.0232387725263834,0.0004363323129985824,0.0,0.0,0.0,0.0004363323129985824,0.0,0.0,0.0,0.0004363323129985824,-0.12516750395298004,0.03356441110372543,9.934319496154785,0.0004,0.0,0.0,0.0,0.0004,0.0,0.0,0.0,0.0004
2025/05/07 10:56:47.48470292,1746608207,48002148,mti/imu_base_body,0.9262960296137279,-0.3767162621138966,0.0077781696355872934,0.0001531597123138875,0.017453292519943295,0.0,0.0,0.0,0.017453292519943295,0.0,0.0,0.0,0.15707963267948966,0.008219756186008453,0.008780253119766712,-0.021057337522506714,0.0004363323129985824,0.0,0.0,0.0,0.0004363323129985824,0.0,0.0,0.0,0.0004363323129985824,-0.22798511385917664,-0.006339031271636486,9.738541603088379,0.0004,0.0,0.0,0.0,0.0004,0.0,0.0,0.0,0.0004
2025/05/07 10:56:47.99863841,1746608207,98231829,mti/imu_base_body,0.9284365068286067,-0.3714057886212985,0.007954066690755619,0.0003546682462525455,0.017453292519943295,0.0,0.0,0.0,0.017453292519943295,0.0,0.0,0.0,0.15707963267948966,0.007290369365364313,-0.0014761933125555515,-0.028911910951137543,0.0004363323129985824,0.0,0.0,0.0,0.0004363323129985824,0.0,0.0,0.0,0.0004363323129985824,-0.1903139352798462,0.038326162844896317,9.764312744140625,0.0004,0.0,0.0,0.0,0.0004,0.0,0.0,0.0,0.0004
2025/05/07 10:56:47.148384545,1746608207,148024160,mti/imu_base_body,0.9284830354116587,-0.3712896149747851,0.007946812796224115,0.00035061518833991124,0.017453292519943295,0.0,0.0,0.0,0.017453292519943295,0.0,0.0,0.0,0.15707963267948966,0.018488747999072075,0.004952817223966122,-0.02544083632528782,0.0004363323129985824,0.0,0.0,0.0,0.0004363323129985824,0.0,0.0,0.0,0.0004363323129985824,-0.16338466107845306,0.0510743223130703,9.784452438354492,0.0004,0.0,0.0,0.0,0.0004,0.0,0.0,0.0,0.0004
2025/05/07 10:56:47.199413384,1746608207,198270128,mti/imu_base_body,0.9285335225324061,-0.37116335232656567,0.00794544658649874,0.0003651052019114252,0.017453292519943295,0.0,0.0,0.0,0.017453292519943295,0.0,0.0,0.0,0.15707963267948966,0.0030643120408058167,0.002818063832819462,-0.021061668172478676,0.0004363323129985824,0.0,0.0,0.0,0.0004363323129985824,0.0,0.0,0.0,0.0004363323129985824,-0.14308860898017883,0.0424872562289238,9.837118148803711,0.0004,0.0,0.0,0.0,0.0004,0.0,0.0,0.0,0.0004
2025/05/07 10:56:47.248491901,1746608207,248097421,mti/imu_base_body,0.9286037674946125,-0.3709873537673255,0.007955522617513205,0.00036878097980069455,0.017453292519943295,0.0,0.0,0.0,0.017453292519943295,0.0,0.0,0.0,0.15707963267948966,0.010290419682860374,0.006348168011754751,-0.030020255595445633,0.0004363323129985824,0.0,0.0,0.0,0.0004363323129985824,0.0,0.0,0.0,0.0004363323129985824,-0.15627004206180573,0.021287405863404274,9.80495834350586,0.0004,0.0,0.0,0.0,0.0004,0.0,0.0,0.0,0.0004
2025/05/07 10:56:47.298361484,1746608207,297984079,mti/imu_base_body,0.9286636481574289,-0.3708373239612642,0.007959659034815134,0.0003893279247742156,0.017453292519943295,0.0,0.0,0.0,0.017453292519943295,0.0,0.0,0.0,0.15707963267948966,0.004280760418623686,0.005778091959655285,-0.03144272416830063,0.0004363323129985824,0.0,0.0,0.0,0.0004363323129985824,0.0,0.0,0.0,0.0004363323129985824,-0.17626048624515533,0.035599999129772186,9.772939682006836,0.0004,0.0,0.0,0.0,0.0004,0.0,0.0,0.0,0.0004
2025/05/07 10:56:47.348345772,1746608207,348037908,mti/imu_base_body,0.9287268367048798,-0.3706792804283427,0.007946281804385287,0.0004364066437692266,0.017453292519943295,0.0,0.0,0.0,0.017453292519943295,0.0,0.0,0.0,0.15707963267948966,0.005091262515634298,0.001680134329944849,-0.029174929484725,0.0004363323129985824,0.0,0.0,0.0,0.0004363323129985824,0.0,0.0,0.0,0.0004363323129985824,-0.16054825484752655,0.03913673385977745,9.759714126586914,0.0004,0.0,0.0,0.0,0.0004,0.0,0.0,0.0,0.0004
2025/05/07 10:56:47.398498939,1746608207,397978949,mti/imu_base_body,0.9288026041475389,-0.3704885917775437,0.007983025063530925,0.0004440746308019901,0.017453292519943295,0.0,0.0,0.0,0.017453292519943295,0.0,0.0,0.0,0.15707963267948966,0.011079330928623676,0.011623860336840153,-0.03722604364156723,0.0004363323129985824,0.0,0.0,0.0,0.0004363323129985824,0.0,0.0,0.0,0.0004363323129985824,-0.15136423707008362,0.04572359472513199,9.846242904663086,0.0004,0.0,0.0,0.0,0.0004,0.0,0.0,0.0,0.0004
2025/05/07 10:56:47.449430697,1746608207,448199601,mti/imu_base_body,0.9288687323143877,-0.3703221829809741,0.008009897588340026,0.00044772926244173806,0.017453292519943295,0.0,0.0,0.0,0.017453292519943295,0.0,0.0,0.0,0.15707963267948966,0.010803666897118092,0.010785393416881561,-0.02818685583770275,0.0004363323129985824,0.0,0.0,0.0,0.0004363323129985824,0.0,0.0,0.0,0.0004363323129985824,-0.14604397118091583,0.0227406807243824,9.821514129638672,0.0004,0.0,0.0,0.0,0.0004,0.0,0.0,0.0,0.0004
2025/05/07 10:56:47.498859294,1746608207,498376428,mti/imu_base_body,0.9310065530559706,-0.36491850985925595,0.00770022556884333,0.001409203721739615,0.017453292519943295,0.0,0.0,0.0,0.017453292519943295,0.0,0.0,0.0,0.15707963267948966,0.0003078692825511098,0.00439377361908555,-0.02292286977171898,0.0004363323129985824,0.0,0.0,0.0,0.0004363323129985824,0.0,0.0,0.0,0.0004363323129985824,-0.16142277419567108,0.021578349173069,9.80964469909668,0.0004,0.0,0.0,0.0,0.0004,0.0,0.0,0.0,0.0004
2025/05/07 10:56:47.548810686,1746608207,548299293,mti/imu_base_body,0.9310596744529508,-0.36478271714759425,0.00770738284841104,0.0014311280905055374,0.017453292519943295,0.0,0.0,0.0,0.017453292519943295,0.0,0.0,0.0,0.15707963267948966,0.01399531215429306,0.0054153576493263245,-0.025117626413702965,0.0004363323129985824,0.0,0.0,0.0,0.0004363323129985824,0.0,0.0,0.0,0.0004363323129985824,-0.16622337698936462,0.030764736235141754,9.893075942993164,0.0004,0.0,0.0,0.0,0.0004,0.0,0.0,0.0,0.0004
2025/05/07 10:56:47.599547890,1746608207,598321003,mti/imu_base_body,0.9311135010702647,-0.3646454513275486,0.007695568271475306,0.0014564270601610703,0.017453292519943295,0.0,0.0,0.0,0.017453292519943295,0.0,0.0,0.0,0.15707963267948966,0.0068670958280563354,0.005671883467584848,-0.027365997433662415,0.0004363323129985824,0.0,0.0,0.0,0.0004363323129985824,0.0,0.0,0.0,0.0004363323129985824,-0.17610716819763184,0.03587973862886429,9.78493881225586,0.0004,0.0,0.0,0.0,0.0004,0.0,0.0,0.0,0.0004
2025/05/07 10:56:47.648464238,1746608207,647939889,mti/imu_base_body,0.9311879428204619,-0.3644561035567087,0.0076551992246200636,0.0014702553823692892,0.017453292519943295,0.0,0.0,0.0,0.017453292519943295,0.0,0.0,0.0,0.15707963267948966,-0.0025613154284656048,-0.005128833930939436,-0.03322315588593483,0.0004363323129985824,0.0,0.0,0.0,0.0004363323129985824,0.0,0.0,0.0,0.0004363323129985824,-0.15522198379039764,0.041776757687330246,9.784684181213379,0.0004,0.0,0.0,0.0,0.0004,0.0,0.0,0.0,0.0004
2025/05/07 10:56:47.699123523,1746608207,698182682,mti/imu_base_body,0.9312573699182665,-0.36427965677118207,0.007599315882332151,0.0015142766269547001,0.017453292519943295,0.0,0.0,0.0,0.017453292519943295,0.0,0.0,0.0,0.15707963267948966,0.009502504020929337,-0.0020566110033541918,-0.03226485103368759,0.0004363323129985824,0.0,0.0,0.0,0.0004363323129985824,0.0,0.0,0.0,0.0004363323129985824,-0.14242441952228546,0.028131535276770592,9.817794799804688,0.0004,0.0,0.0,0.0,0.0004,0.0,0.0,0.0,0.0004
2025/05/07 10:56:47.748670686,1746608207,748071371,mti/imu_base_body,0.9313064946659443,-0.3641540530295643,0.007591612925160791,0.0015511506590715949,0.017453292519943295,0.0,0.0,0.0,0.017453292519943295,0.0,0.0,0.0,0.15707963267948966,-0.007532154675573111,0.005230357404798269,-0.02546190842986107,0.0004363323129985824,0.0,0.0,0.0,0.0004363323129985824,0.0,0.0,0.0,0.0004363323129985824,-0.1495663970708847,0.014049743302166462,9.869294166564941,0.0004,0.0,0.0,0.0,0.0004,0.0,0.0,0.0,0.0004
2025/05/07 10:56:47.799394660,1746608207,798320260,mti/imu_base_body,0.9313577759820928,-0.36402268828890877,0.007596437137571078,0.0015715188260990312,0.017453292519943295,0.0,0.0,0.0,0.017453292519943295,0.0,0.0,0.0,0.15707963267948966,0.006835200358182192,0.003332240507006645,-0.022344475612044334,0.0004363323129985824,0.0,0.0,0.0,0.0004363323129985824,0.0,0.0,0.0,0.0004363323129985824,-0.18311531841754913,0.03831230476498604,9.797307968139648,0.0004,0.0,0.0,0.0,0.0004,0.0,0.0,0.0,0.0004
2025/05/07 10:56:47.848223269,1746608207,847909728,mti/imu_base_body,0.9314060776508282,-0.3638986268486957,0.007615480357556116,0.0015850399544044113,0.017453292519943295,0.0,0.0,0.0,0.017453292519943295,0.0,0.0,0.0,0.15707963267948966,0.01352282427251339,0.00680586090311408,-0.0249928031116724,0.0004363323129985824,0.0,0.0,0.0,0.0004363323129985824,0.0,0.0,0.0,0.0004363323129985824,-0.17068499326705933,0.03275751695036888,9.759119987487793,0.0004,0.0,0.0,0.0,0.0004,0.0,0.0,0.0,0.0004
2025/05/07 10:56:47.898648895,1746608207,898116295,mti/imu_base_body,0.93358547165012,-0.35826743606801376,0.007524277769141944,0.0024487999361791947,0.017453292519943295,0.0,0.0,0.0,0.017453292519943295,0.0,0.0,0.0,0.15707963267948966,0.002373801078647375,0.002266928320750594,-0.042202744632959366,0.0004363323129985824,0.0,0.0,0.0,0.0004363323129985824,0.0,0.0,0.0,0.0004363323129985824,-0.19377733767032623,0.10286477953195572,9.777283668518066,0.0004,0.0,0.0,0.0,0.0004,0.0,0.0,0.0,0.0004
2025/05/07 10:56:47.948515328,1746608207,948103846,mti/imu_base_body,0.9336619649615634,-0.358068167333154,0.0075196693345406275,0.0024448517107743643,0.017453292519943295,0.0,0.0,0.0,0.017453292519943295,0.0,0.0,0.0,0.15707963267948966,0.015698648989200592,0.002323232823982835,-0.03301839530467987,0.0004363323129985824,0.0,0.0,0.0,0.0004363323129985824,0.0,0.0,0.0,0.0004363323129985824,-0.1610470414161682,0.09182792901992798,9.916119575500488,0.0004,0.0,0.0,0.0,0.0004,0.0,0.0,0.0,0.0004
2025/05/07 10:56:47.998471827,1746608207,997949481,mti/imu_base_body,0.9337317721038696,-0.35788602679423714,0.007517190188655759,0.0024619993642204345,0.017453292519943295,0.0,0.0,0.0,0.017453292519943295,0.0,0.0,0.0,0.15707963267948966,0.002436222042888403,0.004105953499674797,-0.03832497075200081,0.0004363323129985824,0.0,0.0,0.0,0.0004363323129985824,0.0,0.0,0.0,0.0004363323129985824,-0.1416577398777008,0.048645056784152985,9.927616119384766,0.0004,0.0,0.0,0.0,0.0004,0.0,0.0,0.0,0.0004
2025/05/07 10:56:48.49713032,1746608208,48851576,mti/imu_base_body,0.933802541371525,-0.3577012228928284,0.007517966782557277,0.002475690714242348,0.017453292519943295,0.0,0.0,0.0,0.017453292519943295,0.0,0.0,0.0,0.15707963267948966,0.009466744028031826,0.005776965990662575,-0.02957582287490368,0.0004363323129985824,0.0,0.0,0.0,0.0004363323129985824,0.0,0.0,0.0,0.0004363323129985824,-0.1992403119802475,0.043259814381599426,9.716187477111816,0.0004,0.0,0.0,0.0,0.0004,0.0,0.0,0.0,0.0004
2025/05/07 10:56:48.98753260,1746608208,98169294,mti/imu_base_body,0.933862843631087,-0.35754441062811604,0.007484662522467724,0.0024826479367089345,0.017453292519943295,0.0,0.0,0.0,0.017453292519943295,0.0,0.0,0.0,0.15707963267948966,0.008621240966022015,-0.0026755621656775475,-0.035371407866477966,0.0004363323129985824,0.0,0.0,0.0,0.0004363323129985824,0.0,0.0,0.0,0.0004363323129985824,-0.19576126337051392,0.04237114265561104,9.74332046508789,0.0004,0.0,0.0,0.0,0.0004,0.0,0.0,0.0,0.0004
2025/05/07 10:56:48.148648084,1746608208,148141908,mti/imu_base_body,0.9339116617602263,-0.3574170622376518,0.0074679720051289596,0.0025062010672824747,0.017453292519943295,0.0,0.0,0.0,0.017453292519943295,0.0,0.0,0.0,0.15707963267948966,0.004676552955061197,0.002047734335064888,-0.014471291564404964,0.0004363323129985824,0.0,0.0,0.0,0.0004363323129985824,0.0,0.0,0.0,0.0004363323129985824,-0.12386435270309448,0.044261958450078964,9.909955024719238,0.0004,0.0,0.0,0.0,0.0004,0.0,0.0,0.0,0.0004
2025/05/07 10:56:48.199134504,1746608208,198153110,mti/imu_base_body,0.9339663177516042,-0.3572744569040576,0.007458007282351031,0.0025015748632762525,0.017453292519943295,0.0,0.0,0.0,0.017453292519943295,0.0,0.0,0.0,0.15707963267948966,0.010572375729680061,0.0011545713059604168,-0.026449179276823997,0.0004363323129985824,0.0,0.0,0.0,0.0004363323129985824,0.0,0.0,0.0,0.0004363323129985824,-0.14372731745243073,0.053721725940704346,9.970962524414062,0.0004,0.0,0.0,0.0,0.0004,0.0,0.0,0.0,0.0004
2025/05/07 10:56:48.248631540,1746608208,248135755,mti/imu_base_body,0.9340261214628756,-0.3571179916219913,0.007472831548630137,0.002470075613985658,0.017453292519943295,0.0,0.0,0.0,0.017453292519943295,0.0,0.0,0.0,0.15707963267948966,0.017410246655344963,0.008658871054649353,-0.029557256028056145,0.0004363323129985824,0.0,0.0,0.0,0.0004363323129985824,0.0,0.0,0.0,0.0004363323129985824,-0.2321147620677948,0.07604103535413742,9.650203704833984,0.0004,0.0,0.0,0.0,0.0004,0.0,0.0,0.0,0.0004
2025/05/07 10:56:48.299561958,1746608208,298232112,mti/imu_base_body,0.9361425036980184,-0.35153011951750596,0.007658015958663066,0.0022677375488236555,0.017453292519943295,0.0,0.0,0.0,0.017453292519943295,0.0,0.0,0.0,0.15707963267948966,0.01885458268225193,0.002343212254345417,-0.03388156741857529,0.0004363323129985824,0.0,0.0,0.0,0.0004363323129985824,0.0,0.0,0.0,0.0004363323129985824,-0.16512632369995117,0.03214234113693237,9.827901840209961,0.0004,0.0,0.0,0.0,0.0004,0.0,0.0,0.0,0.0004
2025/05/07 10:56:48.348639571,1746608208,348166799,mti/imu_base_body,0.9362054072531705,-0.35136277172228625,0.007662392410568856,0.002219418866341566,0.017453292519943295,0.0,0.0,0.0,0.017453292519943295,0.0,0.0,0.0,0.15707963267948966,0.01975880190730095,-0.0015120130265131593,-0.025360107421875,0.0004363323129985824,0.0,0.0,0.0,0.0004363323129985824,0.0,0.0,0.0,0.0004363323129985824,-0.18323774635791779,0.04487413540482521,9.854570388793945,0.0004,0.0,0.0,0.0,0.0004,0.0,0.0,0.0,0.0004
2025/05/07 10:56:48.398413073,1746608208,398025286,mti/imu_base_body,0.9362658530734356,-0.35120189280956654,0.007666346121366316,0.0021702517819250653,0.017453292519943295,0.0,0.0,0.0,0.017453292519943295,0.0,0.0,0.0,0.15707963267948966,0.021279288455843925,0.002590950345620513,-0.03560706228017807,0.0004363323129985824,0.0,0.0,0.0,0.0004363323129985824,0.0,0.0,0.0,0.0004363323129985824,-0.1539122611284256,0.054239388555288315,9.840972900390625,0.0004,0.0,0.0,0.0,0.0004,0.0,0.0,0.0,0.0004
2025/05/07 10:56:48.448607731,1746608208,448074807,mti/imu_base_body,0.9363416809934288,-0.35099942306410137,0.007684919329319416,0.0021455670508505717,0.017453292519943295,0.0,0.0,0.0,0.017453292519943295,0.0,0.0,0.0,0.15707963267948966,0.01741877570748329,0.008543266914784908,-0.0340491458773613,0.0004363323129985824,0.0,0.0,0.0,0.0004363323129985824,0.0,0.0,0.0,0.0004363323129985824,-0.1824517548084259,0.061579629778862,9.80211067199707,0.0004,0.0,0.0,0.0,0.0004,0.0,0.0,0.0,0.0004
2025/05/07 10:56:48.499206853,1746608208,498160066,mti/imu_base_body,0.9364003577816107,-0.35084298843581946,0.007692359406832657,0.0020964299775289266,0.017453292519943295,0.0,0.0,0.0,0.017453292519943295,0.0,0.0,0.0,0.15707963267948966,0.019851991906762123,-0.0015646079555153847,-0.030240394175052643,0.0004363323129985824,0.0,0.0,0.0,0.0004363323129985824,0.0,0.0,0.0,0.0004363323129985824,-0.1550016552209854,0.02410774677991867,9.789602279663086,0.0004,0.0,0.0,0.0,0.0004,0.0,0.0,0.0,0.0004
2025/05/07 10:56:48.548101005,1746608208,547818421,mti/imu_base_body,0.9364628521137154,-0.3506763727308523,0.007694331062779322,0.002050728864152786,0.017453292519943295,0.0,0.0,0.0,0.017453292519943295,0.0,0.0,0.0,0.15707963267948966,0.02003164030611515,-0.0006663459353148937,-0.029333433136343956,0.0004363323129985824,0.0,0.0,0.0,0.0004363323129985824,0.0,0.0,0.0,0.0004363323129985824,-0.16985245048999786,0.04374591261148453,9.88311767578125,0.0004,0.0,0.0,0.0,0.0004,0.0,0.0,0.0,0.0004
2025/05/07 10:56:48.598191650,1746608208,597789203,mti/imu_base_body,0.936526494726441,-0.3505068073860319,0.007673580094635141,0.0020539766278743227,0.017453292519943295,0.0,0.0,0.0,0.017453292519943295,0.0,0.0,0.0,0.15707963267948966,0.008674209006130695,0.00410953676328063,-0.03199804574251175,0.0004363323129985824,0.0,0.0,0.0,0.0004363323129985824,0.0,0.0,0.0,0.0004363323129985824,-0.17373579740524292,0.05108346790075302,9.809429168701172,0.0004,0.0,0.0,0.0,0.0004,0.0,0.0,0.0,0.0004
2025/05/07 10:56:48.648259865,1746608208,647912941,mti/imu_base_body,0.9365920708081621,-0.35033119262265183,0.007691783021407966,0.0020456903042401606,0.017453292519943295,0.0,0.0,0.0,0.017453292519943295,0.0,0.0,0.0,0.15707963267948966,0.01147421170026064,0.002701378893107176,-0.03468569740653038,0.0004363323129985824,0.0,0.0,0.0,0.0004363323129985824,0.0,0.0,0.0,0.0004363323129985824,-0.16648776829242706,0.05558033660054207,9.78804874420166,0.0004,0.0,0.0,0.0,0.0004,0.0,0.0,0.0,0.0004
2025/05/07 10:56:48.698369447,1746608208,697902095,mti/imu_base_body,0.9386967362631529,-0.34463395749411424,0.008696495752740105,0.0004935914024597849,0.017453292519943295,0.0,0.0,0.0,0.017453292519943295,0.0,0.0,0.0,0.15707963267948966,0.02327815443277359,0.0051047285087406635,-0.029832541942596436,0.0004363323129985824,0.0,0.0,0.0,0.0004363323129985824,0.0,0.0,0.0,0.0004363323129985824,-0.17895333468914032,0.07973342388868332,9.83415412902832,0.0004,0.0,0.0,0.0,0.0004,0.0,0.0,0.0,0.0004
2025/05/07 10:56:48.750396697,1746608208,748828049,mti/imu_base_body,0.9387466794445394,-0.3444973294438552,0.008720542932118738,0.00046256769470674666,0.017453292519943295,0.0,0.0,0.0,0.017453292519943295,0.0,0.0,0.0,0.15707963267948966,0.025293542072176933,0.003967373166233301,-0.024329442530870438,0.0004363323129985824,0.0,0.0,0.0,0.0004363323129985824,0.0,0.0,0.0,0.0004363323129985824,-0.22572270035743713,0.06908982247114182,9.7141752243042,0.0004,0.0,0.0,0.0,0.0004,0.0,0.0,0.0,0.0004
2025/05/07 10:56:48.798503654,1746608208,798030712,mti/imu_base_body,0.9388045089636219,-0.3443382445878101,0.008781594461561367,0.00038841018390633336,0.017453292519943295,0.0,0.0,0.0,0.017453292519943295,0.0,0.0,0.0,0.15707963267948966,0.023175258189439774,0.007175224367529154,-0.031159840524196625,0.0004363323129985824,0.0,0.0,0.0,0.0004363323129985824,0.0,0.0,0.0,0.0004363323129985824,-0.17500048875808716,0.026272693648934364,9.883959770202637,0.0004,0.0,0.0,0.0,0.0004,0.0,0.0,0.0,0.0004
2025/05/07 10:56:48.848359345,1746608208,847833252,mti/imu_base_body,0.9388661420287265,-0.344170431177314,0.008772684726118567,0.0003487950875941054,0.017453292519943295,0.0,0.0,0.0,0.017453292519943295,0.0,0.0,0.0,0.15707963267948966,0.015533316880464554,0.008197111077606678,-0.028218774124979973,0.0004363323129985824,0.0,0.0,0.0,0.0004363323129985824,0.0,0.0,0.0,0.0004363323129985824,-0.17575117945671082,0.052742891013622284,9.833434104919434,0.0004,0.0,0.0,0.0,0.0004,0.0,0.0,0.0,0.0004
2025/05/07 10:56:48.898252708,1746608208,897780222,mti/imu_base_body,0.9389188076051855,-0.3440240513920234,0.008877897484829006,0.0003282153617832984,0.017453292519943295,0.0,0.0,0.0,0.017453292519943295,0.0,0.0,0.0,0.15707963267948966,0.025895148515701294,0.01728258840739727,-0.02572411671280861,0.0004363323129985824,0.0,0.0,0.0,0.0004363323129985824,0.0,0.0,0.0,0.0004363323129985824,-0.18721544742584229,0.08425845205783844,9.836063385009766,0.0004,0.0,0.0,0.0,0.0004,0.0,0.0,0.0,0.0004
2025/05/07 10:56:48.948195072,1746608208,947830043,mti/imu_base_body,0.9389711909851524,-0.3438807497645249,0.00889054313303919,0.0003011380285380637,0.017453292519943295,0.0,0.0,0.0,0.017453292519943295,0.0,0.0,0.0,0.15707963267948966,0.014833854511380196,0.002058526501059532,-0.026452278718352318,0.0004363323129985824,0.0,0.0,0.0,0.0004363323129985824,0.0,0.0,0.0,0.0004363323129985824,-0.19394898414611816,0.05470755323767662,9.752914428710938,0.0004,0.0,0.0,0.0,0.0004,0.0,0.0,0.0,0.0004
2025/05/07 10:56:48.998460069,1746608208,997819578,mti/imu_base_body,0.9390222968417924,-0.3437407155260629,0.008910335919895616,0.00022899211722034532,0.017453292519943295,0.0,0.0,0.0,0.017453292519943295,0.0,0.0,0.0,0.15707963267948966,0.028667613863945007,2.9002997052884893e-06,-0.027112610638141632,0.0004363323129985824,0.0,0.0,0.0,0.0004363323129985824,0.0,0.0,0.0,0.0004363323129985824,-0.18589641153812408,0.0522647462785244,9.79262924194336,0.0004,0.0,0.0,0.0,0.0004,0.0,0.0,0.0,0.0004
2025/05/07 10:56:49.48328156,1746608209,47934922,mti/imu_base_body,0.9390819556548682,-0.34357595379861605,0.008978995012622023,0.0001489408019958796,0.017453292519943295,0.0,0.0,0.0,0.017453292519943295,0.0,0.0,0.0,0.15707963267948966,0.027123073115944862,0.013266241177916527,-0.03108808398246765,0.0004363323129985824,0.0,0.0,0.0,0.0004363323129985824,0.0,0.0,0.0,0.0004363323129985824,-0.1438576877117157,0.05289379134774208,9.944900512695312,0.0004,0.0,0.0,0.0,0.0004,0.0,0.0,0.0,0.0004
2025/05/07 10:56:49.99162723,1746608209,97999188,mti/imu_base_body,0.9409818645991705,-0.3383060566086638,0.009967944041844107,-0.0016681273759544413,0.017453292519943295,0.0,0.0,0.0,0.017453292519943295,0.0,0.0,0.0,0.15707963267948966,0.021027734503149986,0.003835023380815983,-0.027072874829173088,0.0004363323129985824,0.0,0.0,0.0,0.0004363323129985824,0.0,0.0,0.0,0.0004363323129985824,-0.1732722371816635,0.06101860851049423,9.83523178100586,0.0004,0.0,0.0,0.0,0.0004,0.0,0.0,0.0,0.0004
2025/05/07 10:56:49.148116169,1746608209,147768078,mti/imu_base_body,0.9410284826445212,-0.33817463722601526,0.010018151341232667,-0.001716459293783946,0.017453292519943295,0.0,0.0,0.0,0.017453292519943295,0.0,0.0,0.0,0.15707963267948966,0.022983022034168243,0.01041104644536972,-0.016653383150696754,0.0004363323129985824,0.0,0.0,0.0,0.0004363323129985824,0.0,0.0,0.0,0.0004363323129985824,-0.17642055451869965,0.0610211156308651,9.756486892700195,0.0004,0.0,0.0,0.0,0.0004,0.0,0.0,0.0,0.0004
2025/05/07 10:56:49.199106573,1746608209,197943225,mti/imu_base_body,0.9410805202441959,-0.33802899151700005,0.010040851659058232,-0.0017425868341139523,0.017453292519943295,0.0,0.0,0.0,0.017453292519943295,0.0,0.0,0.0,0.15707963267948966,0.016414258629083633,0.004756662528961897,-0.03025875613093376,0.0004363323129985824,0.0,0.0,0.0,0.0004363323129985824,0.0,0.0,0.0,0.0004363323129985824,-0.19976770877838135,0.07175968587398529,9.850505828857422,0.0004,0.0,0.0,0.0,0.0004,0.0,0.0,0.0,0.0004
2025/05/07 10:56:49.248415510,1746608209,247931868,mti/imu_base_body,0.9411369120203315,-0.33787120663736686,0.010061512969234604,-0.0017681954119351372,0.017453292519943295,0.0,0.0,0.0,0.017453292519943295,0.0,0.0,0.0,0.15707963267948966,0.018033286556601524,0.0033074715174734592,-0.029131192713975906,0.0004363323129985824,0.0,0.0,0.0,0.0004363323129985824,0.0,0.0,0.0,0.0004363323129985824,-0.20410695672035217,0.07773375511169434,9.771045684814453,0.0004,0.0,0.0,0.0,0.0004,0.0,0.0,0.0,0.0004
2025/05/07 10:56:49.300699616,1746608209,297813915,mti/imu_base_body,0.941180723751311,-0.33774963812658537,0.01003343089380242,-0.0018323342538938952,0.017453292519943295,0.0,0.0,0.0,0.017453292519943295,0.0,0.0,0.0,0.15707963267948966,0.025935180485248566,-0.00527162803336978,-0.019294023513793945,0.0004363323129985824,0.0,0.0,0.0,0.0004363323129985824,0.0,0.0,0.0,0.0004363323129985824,-0.1878940612077713,0.08778932690620422,9.82649040222168,0.0004,0.0,0.0,0.0,0.0004,0.0,0.0,0.0,0.0004
2025/05/07 10:56:49.348212788,1746608209,347922025,mti/imu_base_body,0.9412354445270044,-0.3375957641762421,0.010064560367397432,-0.0019085599080339395,0.017453292519943295,0.0,0.0,0.0,0.017453292519943295,0.0,0.0,0.0,0.15707963267948966,0.02263164333999157,0.010043629445135593,-0.02639332413673401,0.0004363323129985824,0.0,0.0,0.0,0.0004363323129985824,0.0,0.0,0.0,0.0004363323129985824,-0.16803736984729767,0.07312504202127457,9.8187837600708,0.0004,0.0,0.0,0.0,0.0004,0.0,0.0,0.0,0.0004
2025/05/07 10:56:49.398075343,1746608209,397729212,mti/imu_base_body,0.9412827509822433,-0.33746277701151894,0.010095118690597107,-0.001935307106497649,0.017453292519943295,0.0,0.0,0.0,0.017453292519943295,0.0,0.0,0.0,0.15707963267948966,0.0184488445520401,0.0006202738150022924,-0.023257285356521606,0.0004363323129985824,0.0,0.0,0.0,0.0004363323129985824,0.0,0.0,0.0,0.0004363323129985824,-0.2063891887664795,0.07148264348506927,9.78461742401123,0.0004,0.0,0.0,0.0,0.0004,0.0,0.0,0.0,0.0004
2025/05/07 10:56:49.448058642,1746608209,447748755,mti/imu_base_body,0.9413375927178433,-0.3373077584645243,0.010151850855802344,-0.001988099598893945,0.017453292519943295,0.0,0.0,0.0,0.017453292519943295,0.0,0.0,0.0,0.15707963267948966,0.024846525862812996,0.013568954542279243,-0.02966155856847763,0.0004363323129985824,0.0,0.0,0.0,0.0004363323129985824,0.0,0.0,0.0,0.0004363323129985824,-0.2041296362876892,0.06463270634412766,9.815929412841797,0.0004,0.0,0.0,0.0,0.0004,0.0,0.0,0.0,0.0004
2025/05/07 10:56:49.499363102,1746608209,497980394,mti/imu_base_body,0.9430556605527468,-0.33247252635871527,0.010095697938056595,-0.0024732972363474747,0.017453292519943295,0.0,0.0,0.0,0.017453292519943295,0.0,0.0,0.0,0.15707963267948966,0.002687134314328432,-0.0030016477685421705,-0.0307779423892498,0.0004363323129985824,0.0,0.0,0.0,0.0004363323129985824,0.0,0.0,0.0,0.0004363323129985824,-0.17959168553352356,0.09230336546897888,9.838726043701172,0.0004,0.0,0.0,0.0,0.0004,0.0,0.0,0.0,0.0004
2025/05/07 10:56:49.548246897,1746608209,547929204,mti/imu_base_body,0.9431139996444466,-0.33230811601630034,0.010054868297450276,-0.002489844949488604,0.017453292519943295,0.0,0.0,0.0,0.017453292519943295,0.0,0.0,0.0,0.15707963267948966,0.012599119916558266,-0.005755892023444176,-0.026540769264101982,0.0004363323129985824,0.0,0.0,0.0,0.0004363323129985824,0.0,0.0,0.0,0.0004363323129985824,-0.17677940428256989,0.06283003836870193,9.781705856323242,0.0004,0.0,0.0,0.0,0.0004,0.0,0.0,0.0,0.0004
2025/05/07 10:56:49.598449145,1746608209,597934421,mti/imu_base_body,0.9431626115031095,-0.3321702152555004,0.010056510636802754,-0.002470415665591297,0.017453292519943295,0.0,0.0,0.0,0.017453292519943295,0.0,0.0,0.0,0.15707963267948966,0.0017286965157836676,0.008257617242634296,-0.03352760523557663,0.0004363323129985824,0.0,0.0,0.0,0.0004363323129985824,0.0,0.0,0.0,0.0004363323129985824,-0.19955851137638092,0.06982211768627167,9.743193626403809,0.0004,0.0,0.0,0.0,0.0004,0.0,0.0,0.0,0.0004
2025/05/07 10:56:49.648243674,1746608209,647858019,mti/imu_base_body,0.9432271958539242,-0.331987870883153,0.010034637317640179,-0.0024117715308670505,0.017453292519943295,0.0,0.0,0.0,0.017453292519943295,0.0,0.0,0.0,0.15707963267948966,0.005620703101158142,0.0010353863472118974,-0.02904348261654377,0.0004363323129985824,0.0,0.0,0.0,0.0004363323129985824,0.0,0.0,0.0,0.0004363323129985824,-0.15906865894794464,0.05501190945506096,9.841697692871094,0.0004,0.0,0.0,0.0,0.0004,0.0,0.0,0.0,0.0004
2025/05/07 10:56:49.698445606,1746608209,698079396,mti/imu_base_body,0.943289508083119,-0.3318106590239936,0.010034126110375907,-0.0024303932956489926,0.017453292519943295,0.0,0.0,0.0,0.017453292519943295,0.0,0.0,0.0,0.15707963267948966,0.015771668404340744,0.0037631189916282892,-0.03340207785367966,0.0004363323129985824,0.0,0.0,0.0,0.0004363323129985824,0.0,0.0,0.0,0.0004363323129985824,-0.18366175889968872,0.10162822157144547,9.827200889587402,0.0004,0.0,0.0,0.0,0.0004,0.0,0.0,0.0,0.0004
2025/05/07 10:56:49.748084956,1746608209,747791545,mti/imu_base_body,0.9433352927674307,-0.33168004370006987,0.010043343858825802,-0.0024505661874335634,0.017453292519943295,0.0,0.0,0.0,0.017453292519943295,0.0,0.0,0.0,0.15707963267948966,0.009694038890302181,0.005047051701694727,-0.02357172966003418,0.0004363323129985824,0.0,0.0,0.0,0.0004363323129985824,0.0,0.0,0.0,0.0004363323129985824,-0.19700361788272858,0.10309414565563202,9.753870964050293,0.0004,0.0,0.0,0.0,0.0004,0.0,0.0,0.0,0.0004
2025/05/07 10:56:49.798286591,1746608209,797872106,mti/imu_base_body,0.9433791544248126,-0.3315555765942363,0.010042219436131946,-0.0024133907237427646,0.017453292519943295,0.0,0.0,0.0,0.017453292519943295,0.0,0.0,0.0,0.15707963267948966,0.004930151626467705,0.005293637048453093,-0.0220477432012558,0.0004363323129985824,0.0,0.0,0.0,0.0004363323129985824,0.0,0.0,0.0,0.0004363323129985824,-0.189224973320961,0.06866366416215897,9.839813232421875,0.0004,0.0,0.0,0.0,0.0004,0.0,0.0,0.0,0.0004
2025/05/07 10:56:49.849802718,1746608209,848149171,mti/imu_base_body,0.9434296384699202,-0.3314121656430712,0.010044704391380315,-0.0023659319463756995,0.017453292519943295,0.0,0.0,0.0,0.017453292519943295,0.0,0.0,0.0,0.15707963267948966,-0.00010333962563890964,0.0004992940812371671,-0.024113798514008522,0.0004363323129985824,0.0,0.0,0.0,0.0004363323129985824,0.0,0.0,0.0,0.0004363323129985824,-0.18424037098884583,0.02624231018126011,9.773183822631836,0.0004,0.0,0.0,0.0,0.0004,0.0,0.0,0.0,0.0004
2025/05/07 10:56:49.898607452,1746608209,898139337,mti/imu_base_body,0.9451437104391486,-0.3265213441483056,0.009240790024291377,-0.0013365001419327694,0.017453292519943295,0.0,0.0,0.0,0.017453292519943295,0.0,0.0,0.0,0.15707963267948966,-0.005908447317779064,0.003628426929935813,-0.029246386140584946,0.0004363323129985824,0.0,0.0,0.0,0.0004363323129985824,0.0,0.0,0.0,0.0004363323129985824,-0.1638839840888977,0.06832561641931534,9.770432472229004,0.0004,0.0,0.0,0.0,0.0004,0.0,0.0,0.0,0.0004
2025/05/07 10:56:49.948133118,1746608209,947723435,mti/imu_base_body,0.9451898739274875,-0.32638708823874,0.00926814139897968,-0.0012932173001098625,0.017453292519943295,0.0,0.0,0.0,0.017453292519943295,0.0,0.0,0.0,0.15707963267948966,0.005235984455794096,0.010358533822000027,-0.022428065538406372,0.0004363323129985824,0.0,0.0,0.0,0.0004363323129985824,0.0,0.0,0.0,0.0004363323129985824,-0.15511132776737213,0.05421097204089165,9.864398956298828,0.0004,0.0,0.0,0.0,0.0004,0.0,0.0,0.0,0.0004
2025/05/07 10:56:49.998217986,1746608209,997819252,mti/imu_base_body,0.9452496677561384,-0.32621479812297466,0.009241176455429493,-0.0012536946264680524,0.017453292519943295,0.0,0.0,0.0,0.017453292519943295,0.0,0.0,0.0,0.15707963267948966,0.003312846412882209,-0.0027526849880814552,-0.02684258483350277,0.0004363323129985824,0.0,0.0,0.0,0.0004363323129985824,0.0,0.0,0.0,0.0004363323129985824,-0.17636053264141083,0.0976753681898117,9.819424629211426,0.0004,0.0,0.0,0.0,0.0004,0.0,0.0,0.0,0.0004
2025/05/07 10:56:50.49844287,1746608210,48284985,mti/imu_base_body,0.9452835252662133,-0.3261169713616408,0.009230646032561553,-0.0012542025405420489,0.017453292519943295,0.0,0.0,0.0,0.017453292519943295,0.0,0.0,0.0,0.15707963267948966,0.009326113387942314,0.0032199143897742033,-0.016750020906329155,0.0004363323129985824,0.0,0.0,0.0,0.0004363323129985824,0.0,0.0,0.0,0.0004363323129985824,-0.19480274617671967,0.10380847752094269,9.774063110351562,0.0004,0.0,0.0,0.0,0.0004,0.0,0.0,0.0,0.0004
2025/05/07 10:56:50.98379032,1746608210,97916691,mti/imu_base_body,0.9453341938725095,-0.3259718398914829,0.009175206346621669,-0.0011987834128750052,0.017453292519943295,0.0,0.0,0.0,0.017453292519943295,0.0,0.0,0.0,0.15707963267948966,-0.004087694454938173,-0.0032266718335449696,-0.02954052947461605,0.0004363323129985824,0.0,0.0,0.0,0.0004363323129985824,0.0,0.0,0.0,0.0004363323129985824,-0.15969149768352509,0.03634300455451012,9.77714729309082,0.0004,0.0,0.0,0.0,0.0004,0.0,0.0,0.0,0.0004
2025/05/07 10:56:50.149227116,1746608210,148253978,mti/imu_base_body,0.9453870312821211,-0.3258192374680952,0.009154288685511876,-0.0011766809035214593,0.017453292519943295,0.0,0.0,0.0,0.017453292519943295,0.0,0.0,0.0,0.15707963267948966,0.006118204910308123,0.0024093061219900846,-0.030922945588827133,0.0004363323129985824,0.0,0.0,0.0,0.0004363323129985824,0.0,0.0,0.0,0.0004363323129985824,-0.18975192308425903,0.053130775690078735,9.837679862976074,0.0004,0.0,0.0,0.0,0.0004,0.0,0.0,0.0,0.0004
2025/05/07 10:56:50.201557227,1746608210,198115409,mti/imu_base_body,0.9454615958073693,-0.3256043463587012,0.00910207860249038,-0.001154404963369539,0.017453292519943295,0.0,0.0,0.0,0.017453292519943295,0.0,0.0,0.0,0.15707963267948966,0.002204225165769458,-0.007080404087901115,-0.035367224365472794,0.0004363323129985824,0.0,0.0,0.0,0.0004363323129985824,0.0,0.0,0.0,0.0004363323129985824,-0.16274774074554443,0.0992765873670578,9.856388092041016,0.0004,0.0,0.0,0.0,0.0004,0.0,0.0,0.0,0.0004
2025/05/07 10:56:50.251907021,1746608210,248337309,mti/imu_base_body,0.9455087760584131,-0.3254682540113869,0.009074503524952636,-0.0011060800497301633,0.017453292519943295,0.0,0.0,0.0,0.017453292519943295,0.0,0.0,0.0,0.15707963267948966,-0.0015248574782162905,0.0008310105768032372,-0.023437263444066048,0.0004363323129985824,0.0,0.0,0.0,0.0004363323129985824,0.0,0.0,0.0,0.0004363323129985824,-0.1969332993030548,0.11004648357629776,9.787636756896973,0.0004,0.0,0.0,0.0,0.0004,0.0,0.0,0.0,0.0004
2025/05/07 10:56:50.298646217,1746608210,298165050,mti/imu_base_body,0.9471822085996819,-0.3205740643575039,0.008836786869319083,0.00021016984989291262,0.017453292519943295,0.0,0.0,0.0,0.017453292519943295,0.0,0.0,0.0,0.15707963267948966,-0.00643825763836503,0.0021825269795954227,-0.021824678406119347,0.0004363323129985824,0.0,0.0,0.0,0.0004363323129985824,0.0,0.0,0.0,0.0004363323129985824,-0.2009485363960266,0.08115427196025848,9.761110305786133,0.0004,0.0,0.0,0.0,0.0004,0.0,0.0,0.0,0.0004
2025/05/07 10:56:50.348658477,1746608210,348330995,mti/imu_base_body,0.9472282283897325,-0.32043826781775675,0.008827608168177004,0.00027054321911191854,0.017453292519943295,0.0,0.0,0.0,0.017453292519943295,0.0,0.0,0.0,0.15707963267948966,-0.0003921668976545334,0.005950485356152058,-0.02758920006453991,0.0004363323129985824,0.0,0.0,0.0,0.0004363323129985824,0.0,0.0,0.0,0.0004363323129985824,-0.18883520364761353,0.06955864280462265,9.822186470031738,0.0004,0.0,0.0,0.0,0.0004,0.0,0.0,0.0,0.0004
2025/05/07 10:56:50.398258253,1746608210,397862363,mti/imu_base_body,0.9472788132976593,-0.3202890834521353,0.008812529418997895,0.0003036840607157096,0.017453292519943295,0.0,0.0,0.0,0.017453292519943295,0.0,0.0,0.0,0.15707963267948966,0.004935467150062323,0.0035206773318350315,-0.026191452518105507,0.0004363323129985824,0.0,0.0,0.0,0.0004363323129985824,0.0,0.0,0.0,0.0004363323129985824,-0.16492006182670593,0.05370437726378441,9.882428169250488,0.0004,0.0,0.0,0.0,0.0004,0.0,0.0,0.0,0.0004
2025/05/07 10:56:50.448923719,1746608210,448022283,mti/imu_base_body,0.9473218912374575,-0.32016162871878623,0.008812584716240891,0.00032284522587215213,0.017453292519943295,0.0,0.0,0.0,0.017453292519943295,0.0,0.0,0.0,0.15707963267948966,0.005708242766559124,0.005054251756519079,-0.02328362874686718,0.0004363323129985824,0.0,0.0,0.0,0.0004363323129985824,0.0,0.0,0.0,0.0004363323129985824,-0.17579685151576996,0.050385527312755585,9.779080390930176,0.0004,0.0,0.0,0.0,0.0004,0.0,0.0,0.0,0.0004
2025/05/07 10:56:50.498723014,1746608210,498130197,mti/imu_base_body,0.9473614266106527,-0.32004454757264106,0.008814000972002214,0.00035822635041479495,0.017453292519943295,0.0,0.0,0.0,0.017453292519943295,0.0,0.0,0.0,0.15707963267948966,0.005735128186643124,0.00362206413410604,-0.015495341271162033,0.0004363323129985824,0.0,0.0,0.0,0.0004363323129985824,0.0,0.0,0.0,0.0004363323129985824,-0.1775399148464203,0.0863136351108551,9.746797561645508,0.0004,0.0,0.0,0.0,0.0004,0.0,0.0,0.0,0.0004
2025/05/07 10:56:50.548284739,1746608210,547932995,mti/imu_base_body,0.9474119044456946,-0.3198960944633423,0.008776747844238195,0.0003751785722600253,0.017453292519943295,0.0,0.0,0.0,0.017453292519943295,0.0,0.0,0.0,0.15707963267948966,0.004466259852051735,-0.0025337166152894497,-0.02579726092517376,0.0004363323129985824,0.0,0.0,0.0,0.0004363323129985824,0.0,0.0,0.0,0.0004363323129985824,-0.1651492714881897,0.053407445549964905,9.865619659423828,0.0004,0.0,0.0,0.0,0.0004,0.0,0.0,0.0,0.0004
2025/05/07 10:56:50.598207124,1746608210,597779011,mti/imu_base_body,0.9474576372802739,-0.31976117085539624,0.008755221510725246,0.0004065326127832315,0.017453292519943295,0.0,0.0,0.0,0.017453292519943295,0.0,0.0,0.0,0.15707963267948966,0.004862089641392231,0.0036829288583248854,-0.028747715055942535,0.0004363323129985824,0.0,0.0,0.0,0.0004363323129985824,0.0,0.0,0.0,0.0004363323129985824,-0.17244964838027954,0.0457775741815567,9.84605884552002,0.0004,0.0,0.0,0.0,0.0004,0.0,0.0,0.0,0.0004
2025/05/07 10:56:50.648132758,1746608210,647823765,mti/imu_base_body,0.9475038928268738,-0.31962388894991944,0.00875987905866275,0.0004552025123266126,0.017453292519943295,0.0,0.0,0.0,0.017453292519943295,0.0,0.0,0.0,0.15707963267948966,0.0023737766314297915,-0.0004562478279694915,-0.025016330182552338,0.0004363323129985824,0.0,0.0,0.0,0.0004363323129985824,0.0,0.0,0.0,0.0004363323129985824,-0.16117976605892181,0.06535511463880539,9.78962516784668,0.0004,0.0,0.0,0.0,0.0004,0.0,0.0,0.0,0.0004
2025/05/07 10:56:50.698565728,1746608210,698128629,mti/imu_base_body,0.9491699433243674,-0.31463547678141207,0.008889294732284236,0.001384152922570978,0.017453292519943295,0.0,0.0,0.0,0.017453292519943295,0.0,0.0,0.0,0.15707963267948966,0.006709965877234936,0.00603067921474576,-0.03251970559358597,0.0004363323129985824,0.0,0.0,0.0,0.0004363323129985824,0.0,0.0,0.0,0.0004363323129985824,-0.18086646497249603,0.0389619879424572,9.781816482543945,0.0004,0.0,0.0,0.0,0.0004,0.0,0.0,0.0,0.0004
2025/05/07 10:56:50.748080884,1746608210,747774301,mti/imu_base_body,0.9492169066293352,-0.31449474278309175,0.008853215714429104,0.0013933780343390028,0.017453292519943295,0.0,0.0,0.0,0.017453292519943295,0.0,0.0,0.0,0.15707963267948966,0.008423980325460434,-0.00013366242637857795,-0.024093957617878914,0.0004363323129985824,0.0,0.0,0.0,0.0004363323129985824,0.0,0.0,0.0,0.0004363323129985824,-0.19764211773872375,0.07282442599534988,9.784727096557617,0.0004,0.0,0.0,0.0,0.0004,0.0,0.0,0.0,0.0004
2025/05/07 10:56:50.798622492,1746608210,798164318,mti/imu_base_body,0.9492716990087883,-0.31432906195613664,0.008868059912602687,0.0013563864236460547,0.017453292519943295,0.0,0.0,0.0,0.017453292519943295,0.0,0.0,0.0,0.15707963267948966,0.014283769764006138,0.004218415357172489,-0.025141986086964607,0.0004363323129985824,0.0,0.0,0.0,0.0004363323129985824,0.0,0.0,0.0,0.0004363323129985824,-0.1437569111585617,0.07403655350208282,9.868206024169922,0.0004,0.0,0.0,0.0,0.0004,0.0,0.0,0.0,0.0004
2025/05/07 10:56:50.848147676,1746608210,847726056,mti/imu_base_body,0.9493179277797079,-0.31419049820584877,0.008826811425316584,0.0013748575429996701,0.017453292519943295,0.0,0.0,0.0,0.017453292519943295,0.0,0.0,0.0,0.15707963267948966,0.0035291968379169703,0.00019016116857528687,-0.025603927671909332,0.0004363323129985824,0.0,0.0,0.0,0.0004363323129985824,0.0,0.0,0.0,0.0004363323129985824,-0.11980947107076645,0.02443382330238819,9.848614692687988,0.0004,0.0,0.0,0.0,0.0004,0.0,0.0,0.0,0.0004
2025/05/07 10:56:50.898985178,1746608210,898415102,mti/imu_base_body,0.9493683902868899,-0.3140360718585286,0.008887553881225783,0.0014200287858882874,0.017453292519943295,0.0,0.0,0.0,0.017453292519943295,0.0,0.0,0.0,0.15707963267948966,0.00932277087122202,0.01574895903468132,-0.027643615379929543,0.0004363323129985824,0.0,0.0,0.0,0.0004363323129985824,0.0,0.0,0.0,0.0004363323129985824,-0.14960524439811707,-0.028040682896971703,9.816941261291504,0.0004,0.0,0.0,0.0,0.0004,0.0,0.0,0.0,0.0004
2025/05/07 10:56:50.948197429,1746608210,947760590,mti/imu_base_body,0.9494257476008399,-0.31386275692777316,0.008882271440723632,0.00142297587362221,0.017453292519943295,0.0,0.0,0.0,0.017453292519943295,0.0,0.0,0.0,0.15707963267948966,0.011394866742193699,0.000854121579322964,-0.034231215715408325,0.0004363323129985824,0.0,0.0,0.0,0.0004363323129985824,0.0,0.0,0.0,0.0004363323129985824,-0.2128162831068039,0.026412829756736755,9.832276344299316,0.0004,0.0,0.0,0.0,0.0004,0.0,0.0,0.0,0.0004
2025/05/07 10:56:50.998186986,1746608210,997792105,mti/imu_base_body,0.949482624481929,-0.3136916649530806,0.008845950448444627,0.0014262911820966126,0.017453292519943295,0.0,0.0,0.0,0.017453292519943295,0.0,0.0,0.0,0.15707963267948966,0.0014911628095433116,0.0034415824338793755,-0.027145927771925926,0.0004363323129985824,0.0,0.0,0.0,0.0004363323129985824,0.0,0.0,0.0,0.0004363323129985824,-0.19197183847427368,0.1094246506690979,9.706345558166504,0.0004,0.0,0.0,0.0,0.0004,0.0,0.0,0.0,0.0004
2025/05/07 10:56:51.48558972,1746608211,48079482,mti/imu_base_body,0.9495345919243046,-0.3135340781139868,0.008840749899640945,0.001510543467981153,0.017453292519943295,0.0,0.0,0.0,0.017453292519943295,0.0,0.0,0.0,0.15707963267948966,-0.000875232566613704,0.004186686128377914,-0.03228814899921417,0.0004363323129985824,0.0,0.0,0.0,0.0004363323129985824,0.0,0.0,0.0,0.0004363323129985824,-0.11556324362754822,0.07383593916893005,9.863862037658691,0.0004,0.0,0.0,0.0,0.0004,0.0,0.0,0.0,0.0004
2025/05/07 10:56:51.98916164,1746608211,98572037,mti/imu_base_body,0.9511710500410351,-0.30852535603185954,0.00906701290292505,0.0018781709899179386,0.017453292519943295,0.0,0.0,0.0,0.017453292519943295,0.0,0.0,0.0,0.15707963267948966,0.009486976079642773,0.0031432206742465496,-0.030690675601363182,0.0004363323129985824,0.0,0.0,0.0,0.0004363323129985824,0.0,0.0,0.0,0.0004363323129985824,-0.12370207160711288,0.03211340308189392,9.939610481262207,0.0004,0.0,0.0,0.0,0.0004,0.0,0.0,0.0,0.0004
2025/05/07 10:56:51.148464754,1746608211,147924791,mti/imu_base_body,0.9512174746301048,-0.30838111959158837,0.009103549380611985,0.0018778781747490342,0.017453292519943295,0.0,0.0,0.0,0.017453292519943295,0.0,0.0,0.0,0.15707963267948966,0.015072346664965153,0.005440987180918455,-0.029008876532316208,0.0004363323129985824,0.0,0.0,0.0,0.0004363323129985824,0.0,0.0,0.0,0.0004363323129985824,-0.14527784287929535,0.04555419087409973,9.849004745483398,0.0004,0.0,0.0,0.0,0.0004,0.0,0.0,0.0,0.0004
2025/05/07 10:56:51.198157971,1746608211,197773436,mti/imu_base_body,0.951270617448337,-0.3082172770164269,0.00911045366481671,0.0018226799115871263,0.017453292519943295,0.0,0.0,0.0,0.017453292519943295,0.0,0.0,0.0,0.15707963267948966,0.01865948550403118,0.004494702443480492,-0.025719573721289635,0.0004363323129985824,0.0,0.0,0.0,0.0004363323129985824,0.0,0.0,0.0,0.0004363323129985824,-0.17513172328472137,0.015862809494137764,9.76452922821045,0.0004,0.0,0.0,0.0,0.0004,0.0,0.0,0.0,0.0004
2025/05/07 10:56:51.248181898,1746608211,247888863,mti/imu_base_body,0.9513077965989922,-0.3081018359111221,0.009135227047483825,0.0018117574223212233,0.017453292519943295,0.0,0.0,0.0,0.017453292519943295,0.0,0.0,0.0,0.15707963267948966,0.01003335788846016,0.009289351291954517,-0.0203437227755785,0.0004363323129985824,0.0,0.0,0.0,0.0004363323129985824,0.0,0.0,0.0,0.0004363323129985824,-0.15360604226589203,0.02075035497546196,9.781786918640137,0.0004,0.0,0.0,0.0,0.0004,0.0,0.0,0.0,0.0004
2025/05/07 10:56:51.298295679,1746608211,297932128,mti/imu_base_body,0.9513623918463296,-0.3079328624977437,0.00913809642636797,0.0018565473542927961,0.017453292519943295,0.0,0.0,0.0,0.017453292519943295,0.0,0.0,0.0,0.15707963267948966,0.008853615261614323,0.007188187912106514,-0.028713731095194817,0.0004363323129985824,0.0,0.0,0.0,0.0004363323129985824,0.0,0.0,0.0,0.0004363323129985824,-0.13386492431163788,0.010379353538155556,9.925564765930176,0.0004,0.0,0.0,0.0,0.0004,0.0,0.0,0.0,0.0004
2025/05/07 10:56:51.349132516,1746608211,348754372,mti/imu_base_body,0.9514098474913135,-0.3077851943045539,0.009172173812616253,0.0018567420430986841,0.017453292519943295,0.0,0.0,0.0,0.017453292519943295,0.0,0.0,0.0,0.15707963267948966,0.00958992913365364,0.009298672899603844,-0.030748499557375908,0.0004363323129985824,0.0,0.0,0.0,0.0004363323129985824,0.0,0.0,0.0,0.0004363323129985824,-0.15031495690345764,0.036504849791526794,9.884658813476562,0.0004,0.0,0.0,0.0,0.0004,0.0,0.0,0.0,0.0004
2025/05/07 10:56:51.398203432,1746608211,397746176,mti/imu_base_body,0.9514538177896602,-0.3076489907666541,0.009187049889788327,0.001824611756391965,0.017453292519943295,0.0,0.0,0.0,0.017453292519943295,0.0,0.0,0.0,0.15707963267948966,0.01654030941426754,-0.00020921655232086778,-0.022627828642725945,0.0004363323129985824,0.0,0.0,0.0,0.0004363323129985824,0.0,0.0,0.0,0.0004363323129985824,-0.18402697145938873,0.04214473441243172,9.720010757446289,0.0004,0.0,0.0,0.0,0.0004,0.0,0.0,0.0,0.0004
2025/05/07 10:56:51.448321213,1746608211,447961089,mti/imu_base_body,0.9515150000097004,-0.30746020867676066,0.009171806751695051,0.001817360143857514,0.017453292519943295,0.0,0.0,0.0,0.017453292519943295,0.0,0.0,0.0,0.15707963267948966,0.013937884010374546,0.0029549594037234783,-0.03523724526166916,0.0004363323129985824,0.0,0.0,0.0,0.0004363323129985824,0.0,0.0,0.0,0.0004363323129985824,-0.164533331990242,0.010984607972204685,9.770280838012695,0.0004,0.0,0.0,0.0,0.0004,0.0,0.0,0.0,0.0004
2025/05/07 10:56:51.498254985,1746608211,497886977,mti/imu_base_body,0.952935771795176,-0.3030318861957614,0.009090128156642402,0.001568550881288064,0.017453292519943295,0.0,0.0,0.0,0.017453292519943295,0.0,0.0,0.0,0.15707963267948966,0.009165816009044647,0.005112407263368368,-0.022268172353506088,0.0004363323129985824,0.0,0.0,0.0,0.0004363323129985824,0.0,0.0,0.0,0.0004363323129985824,-0.15293388068675995,0.03762428089976311,9.888021469116211,0.0004,0.0,0.0,0.0,0.0004,0.0,0.0,0.0,0.0004
2025/05/07 10:56:51.548177887,1746608211,547827036,mti/imu_base_body,0.9529798411127832,-0.30289447666610375,0.009053666229567598,0.0015458219901462677,0.017453292519943295,0.0,0.0,0.0,0.017453292519943295,0.0,0.0,0.0,0.15707963267948966,0.012168924324214458,-0.0019324341556057334,-0.023194830864667892,0.0004363323129985824,0.0,0.0,0.0,0.0004363323129985824,0.0,0.0,0.0,0.0004363323129985824,-0.13537383079528809,0.007726204115897417,9.903966903686523,0.0004,0.0,0.0,0.0,0.0004,0.0,0.0,0.0,0.0004
2025/05/07 10:56:51.598174264,1746608211,597773317,mti/imu_base_body,0.9530326014587485,-0.302728654846278,0.009049167247460507,0.001527960686896623,0.017453292519943295,0.0,0.0,0.0,0.017453292519943295,0.0,0.0,0.0,0.15707963267948966,0.015656491741538048,0.004825207404792309,-0.033311765640974045,0.0004363323129985824,0.0,0.0,0.0,0.0004363323129985824,0.0,0.0,0.0,0.0004363323129985824,-0.18503843247890472,0.019805893301963806,9.747499465942383,0.0004,0.0,0.0,0.0,0.0004,0.0,0.0,0.0,0.0004
2025/05/07 10:56:51.648277512,1746608211,647851986,mti/imu_base_body,0.9530796687631318,-0.30258007022966077,0.009070836142938191,0.0014717410915131542,0.017453292519943295,0.0,0.0,0.0,0.017453292519943295,0.0,0.0,0.0,0.15707963267948966,0.027128610759973526,0.0008181004668585956,-0.02246650494635105,0.0004363323129985824,0.0,0.0,0.0,0.0004363323129985824,0.0,0.0,0.0,0.0004363323129985824,-0.1940191686153412,0.03474831581115723,9.761910438537598,0.0004,0.0,0.0,0.0,0.0004,0.0,0.0,0.0,0.0004
2025/05/07 10:56:51.699264938,1746608211,698839310,mti/imu_base_body,0.9531164954202613,-0.302463914380196,0.009081462878122443,0.0014330692941171394,0.017453292519943295,0.0,0.0,0.0,0.017453292519943295,0.0,0.0,0.0,0.15707963267948966,0.013579077087342739,0.0034856395795941353,-0.019003773108124733,0.0004363323129985824,0.0,0.0,0.0,0.0004363323129985824,0.0,0.0,0.0,0.0004363323129985824,-0.13841617107391357,0.02433207258582115,9.911896705627441,0.0004,0.0,0.0,0.0,0.0004,0.0,0.0,0.0,0.0004
2025/05/07 10:56:51.748331078,1746608211,747903828,mti/imu_base_body,0.9531511617331674,-0.30235494102759847,0.009079301176201489,0.001385212280626403,0.017453292519943295,0.0,0.0,0.0,0.017453292519943295,0.0,0.0,0.0,0.15707963267948966,0.021414056420326233,0.0005549001507461071,-0.01809004135429859,0.0004363323129985824,0.0,0.0,0.0,0.0004363323129985824,0.0,0.0,0.0,0.0004363323129985824,-0.18696613609790802,-0.0035395226441323757,9.886383056640625,0.0004,0.0,0.0,0.0,0.0004,0.0,0.0,0.0,0.0004
2025/05/07 10:56:51.799129930,1746608211,798682412,mti/imu_base_body,0.9531870385205683,-0.302242321411127,0.009065444128284323,0.0013661870876741167,0.017453292519943295,0.0,0.0,0.0,0.017453292519943295,0.0,0.0,0.0,0.15707963267948966,0.008748634718358517,0.003011643886566162,-0.018577391281723976,0.0004363323129985824,0.0,0.0,0.0,0.0004363323129985824,0.0,0.0,0.0,0.0004363323129985824,-0.18383800983428955,-0.0029039420187473297,9.744734764099121,0.0004,0.0,0.0,0.0,0.0004,0.0,0.0,0.0,0.0004
2025/05/07 10:56:51.848227581,1746608211,847870674,mti/imu_base_body,0.9532293199838748,-0.30210761375105394,0.00911207495598167,0.0013503061579071356,0.017453292519943295,0.0,0.0,0.0,0.017453292519943295,0.0,0.0,0.0,0.15707963267948966,0.02023574896156788,0.00999259389936924,-0.028245069086551666,0.0004363323129985824,0.0,0.0,0.0,0.0004363323129985824,0.0,0.0,0.0,0.0004363323129985824,-0.1832917034626007,0.03893306851387024,9.749043464660645,0.0004,0.0,0.0,0.0,0.0004,0.0,0.0,0.0,0.0004
2025/05/07 10:56:51.898529709,1746608211,898054912,mti/imu_base_body,0.9546139549378105,-0.2976994081389069,0.009327006446772024,0.0005161225418856873,0.017453292519943295,0.0,0.0,0.0,0.017453292519943295,0.0,0.0,0.0,0.15707963267948966,0.017056051641702652,0.004283288028091192,-0.02610044553875923,0.0004363323129985824,0.0,0.0,0.0,0.0004363323129985824,0.0,0.0,0.0,0.0004363323129985824,-0.20411677658557892,0.1148841381072998,9.854351043701172,0.0004,0.0,0.0,0.0,0.0004,0.0,0.0,0.0,0.0004
2025/05/07 10:56:51.948138393,1746608211,947801788,mti/imu_base_body,0.954659973629405,-0.2975522012770355,0.00931591335527905,0.0004858224481819641,0.017453292519943295,0.0,0.0,0.0,0.017453292519943295,0.0,0.0,0.0,0.15707963267948966,0.017086798325181007,0.000605761946644634,-0.020909957587718964,0.0004363323129985824,0.0,0.0,0.0,0.0004363323129985824,0.0,0.0,0.0,0.0004363323129985824,-0.1802399754524231,0.02115803211927414,9.79958438873291,0.0004,0.0,0.0,0.0,0.0004,0.0,0.0,0.0,0.0004
2025/05/07 10:56:51.998134884,1746608211,997781650,mti/imu_base_body,0.9546921605321608,-0.2974487711295269,0.009321643163911056,0.0004627533835586577,0.017453292519943295,0.0,0.0,0.0,0.017453292519943295,0.0,0.0,0.0,0.15707963267948966,0.011340838856995106,0.008376266807317734,-0.015408228151500225,0.0004363323129985824,0.0,0.0,0.0,0.0004363323129985824,0.0,0.0,0.0,0.0004363323129985824,-0.1053137481212616,-0.04245864972472191,9.788211822509766,0.0004,0.0,0.0,0.0,0.0004,0.0,0.0,0.0,0.0004
2025/05/07 10:56:52.48238464,1746608212,47899774,mti/imu_base_body,0.9547170379926276,-0.29736834544844115,0.009340219470526847,0.00045253959206360394,0.017453292519943295,0.0,0.0,0.0,0.017453292519943295,0.0,0.0,0.0,0.15707963267948966,0.019571907818317413,0.004421400371938944,-0.012697202153503895,0.0004363323129985824,0.0,0.0,0.0,0.0004363323129985824,0.0,0.0,0.0,0.0004363323129985824,-0.1743437945842743,-0.018712593242526054,9.813385009765625,0.0004,0.0,0.0,0.0,0.0004,0.0,0.0,0.0,0.0004
2025/05/07 10:56:52.98123489,1746608212,97772120,mti/imu_base_body,0.9547542871372369,-0.2972492973741886,0.009324396807781,0.0004025267555662834,0.017453292519943295,0.0,0.0,0.0,0.017453292519943295,0.0,0.0,0.0,0.15707963267948966,0.012761562131345272,-0.005911313928663731,-0.02347872592508793,0.0004363323129985824,0.0,0.0,0.0,0.0004363323129985824,0.0,0.0,0.0,0.0004363323129985824,-0.1914556920528412,0.048549868166446686,9.876314163208008,0.0004,0.0,0.0,0.0,0.0004,0.0,0.0,0.0,0.0004
2025/05/07 10:56:52.148297398,1746608212,147812727,mti/imu_base_body,0.9547982715073324,-0.2971082361782749,0.00931642827587778,0.00040110575279509505,0.017453292519943295,0.0,0.0,0.0,0.017453292519943295,0.0,0.0,0.0,0.15707963267948966,0.011152489110827446,0.00491960346698761,-0.02474590577185154,0.0004363323129985824,0.0,0.0,0.0,0.0004363323129985824,0.0,0.0,0.0,0.0004363323129985824,-0.19971437752246857,0.06201424449682236,9.739952087402344,0.0004,0.0,0.0,0.0,0.0004,0.0,0.0,0.0,0.0004
2025/05/07 10:56:52.198178866,1746608212,197803753,mti/imu_base_body,0.9548337180114829,-0.29699554536313844,0.009277511748465615,0.00038047151921828497,0.017453292519943295,0.0,0.0,0.0,0.017453292519943295,0.0,0.0,0.0,0.15707963267948966,0.010254882276058197,-0.007848533801734447,-0.017543520778417587,0.0004363323129985824,0.0,0.0,0.0,0.0004363323129985824,0.0,0.0,0.0,0.0004363323129985824,-0.16736428439617157,0.040855832397937775,9.75840950012207,0.0004,0.0,0.0,0.0,0.0004,0.0,0.0,0.0,0.0004
2025/05/07 10:56:52.248192809,1746608212,247857992,mti/imu_base_body,0.9548754188631027,-0.2968610416834657,0.009290859904529818,0.00036919352124133685,0.017453292519943295,0.0,0.0,0.0,0.017453292519943295,0.0,0.0,0.0,0.15707963267948966,0.015631092712283134,0.012845931574702263,-0.02173500880599022,0.0004363323129985824,0.0,0.0,0.0,0.0004363323129985824,0.0,0.0,0.0,0.0004363323129985824,-0.14037327468395233,0.0010217481758445501,9.894482612609863,0.0004,0.0,0.0,0.0,0.0004,0.0,0.0,0.0,0.0004
2025/05/07 10:56:52.298383301,1746608212,297857826,mti/imu_base_body,0.9559993000050562,-0.2932154371735954,0.009471270426126907,-0.0005838060079539215,0.017453292519943295,0.0,0.0,0.0,0.017453292519943295,0.0,0.0,0.0,0.15707963267948966,0.018733905628323555,0.007444590330123901,-0.011824586428701878,0.0004363323129985824,0.0,0.0,0.0,0.0004363323129985824,0.0,0.0,0.0,0.0004363323129985824,-0.15887944400310516,0.03258645161986351,9.910116195678711,0.0004,0.0,0.0,0.0,0.0004,0.0,0.0,0.0,0.0004
2025/05/07 10:56:52.348114428,1746608212,347805125,mti/imu_base_body,0.9560177489571322,-0.2931546746264011,0.009489829028124402,-0.0005861472883733013,0.017453292519943295,0.0,0.0,0.0,0.017453292519943295,0.0,0.0,0.0,0.15707963267948966,0.012795855291187763,0.0022227924782782793,-0.01007075421512127,0.0004363323129985824,0.0,0.0,0.0,0.0004363323129985824,0.0,0.0,0.0,0.0004363323129985824,-0.18760161101818085,0.024701235815882683,9.730094909667969,0.0004,0.0,0.0,0.0,0.0004,0.0,0.0,0.0,0.0004
2025/05/07 10:56:52.399545146,1746608212,398849388,mti/imu_base_body,0.9560480878137905,-0.293054972386444,0.009506273890991538,-0.0006838887956926963,0.017453292519943295,0.0,0.0,0.0,0.017453292519943295,0.0,0.0,0.0,0.15707963267948966,0.02675679512321949,0.0017923512496054173,-0.012413677759468555,0.0004363323129985824,0.0,0.0,0.0,0.0004363323129985824,0.0,0.0,0.0,0.0004363323129985824,-0.19070465862751007,0.042659398168325424,9.65207576751709,0.0004,0.0,0.0,0.0,0.0004,0.0,0.0,0.0,0.0004
2025/05/07 10:56:52.448317996,1746608212,447939385,mti/imu_base_body,0.9560758697600514,-0.2929651926864004,0.00947581745450449,-0.0007321341067395492,0.017453292519943295,0.0,0.0,0.0,0.017453292519943295,0.0,0.0,0.0,0.15707963267948966,0.017710668966174126,-0.004526515491306782,-0.012154307216405869,0.0004363323129985824,0.0,0.0,0.0,0.0004363323129985824,0.0,0.0,0.0,0.0004363323129985824,-0.14864607155323029,0.041853804141283035,9.925590515136719,0.0004,0.0,0.0,0.0,0.0004,0.0,0.0,0.0,0.0004
2025/05/07 10:56:52.499406596,1746608212,498810837,mti/imu_base_body,0.9561012278577468,-0.29288282185570264,0.009463753274824384,-0.0007294687812847596,0.017453292519943295,0.0,0.0,0.0,0.017453292519943295,0.0,0.0,0.0,0.15707963267948966,0.010435833595693111,0.0025472831912338734,-0.01911587081849575,0.0004363323129985824,0.0,0.0,0.0,0.0004363323129985824,0.0,0.0,0.0,0.0004363323129985824,-0.17993025481700897,0.06130692735314369,9.899696350097656,0.0004,0.0,0.0,0.0,0.0004,0.0,0.0,0.0,0.0004
2025/05/07 10:56:52.548240452,1746608212,547916526,mti/imu_base_body,0.9561322988046226,-0.292779999912806,0.00950486329580796,-0.0007459271901010022,0.017453292519943295,0.0,0.0,0.0,0.017453292519943295,0.0,0.0,0.0,0.15707963267948966,0.01652626320719719,0.012549754232168198,-0.01457545068114996,0.0004363323129985824,0.0,0.0,0.0,0.0004363323129985824,0.0,0.0,0.0,0.0004363323129985824,-0.18562141060829163,0.021032441407442093,9.701395034790039,0.0004,0.0,0.0,0.0,0.0004,0.0,0.0,0.0,0.0004
2025/05/07 10:56:52.598139004,1746608212,597771143,mti/imu_base_body,0.9561695025212106,-0.29265812113904277,0.009517820106781063,-0.0007194999102079439,0.017453292519943295,0.0,0.0,0.0,0.017453292519943295,0.0,0.0,0.0,0.15707963267948966,0.0072807506658136845,0.006465594284236431,-0.02218424342572689,0.0004363323129985824,0.0,0.0,0.0,0.0004363323129985824,0.0,0.0,0.0,0.0004363323129985824,-0.17927753925323486,0.028387250378727913,9.716158866882324,0.0004,0.0,0.0,0.0,0.0004,0.0,0.0,0.0,0.0004
2025/05/07 10:56:52.648349102,1746608212,647887108,mti/imu_base_body,0.9561996347420583,-0.2925591967418349,0.00953180848685861,-0.0007207967095445387,0.017453292519943295,0.0,0.0,0.0,0.017453292519943295,0.0,0.0,0.0,0.15707963267948966,0.009744822978973389,0.007944910787045956,-0.015320750884711742,0.0004363323129985824,0.0,0.0,0.0,0.0004363323129985824,0.0,0.0,0.0,0.0004363323129985824,-0.19676396250724792,0.07882163673639297,9.862030029296875,0.0004,0.0,0.0,0.0,0.0004,0.0,0.0,0.0,0.0004
