time,header_stamp_secs,header_stamp_nsecs,header_frame_id,orientation_x,orientation_y,orientation_z,orientation_w,orientation_covariance_0,orientation_covariance_1,orientation_covariance_2,orientation_covariance_3,orientation_covariance_4,orientation_covariance_5,orientation_covariance_6,orientation_covariance_7,orientation_covariance_8,angular_velocity_x,angular_velocity_y,angular_velocity_z,angular_velocity_covariance_0,angular_velocity_covariance_1,angular_velocity_covariance_2,angular_velocity_covariance_3,angular_velocity_covariance_4,angular_velocity_covariance_5,angular_velocity_covariance_6,angular_velocity_covariance_7,angular_velocity_covariance_8,linear_acceleration_x,linear_acceleration_y,linear_acceleration_z,linear_acceleration_covariance_0,linear_acceleration_covariance_1,linear_acceleration_covariance_2,linear_acceleration_covariance_3,linear_acceleration_covariance_4,linear_acceleration_covariance_5,linear_acceleration_covariance_6,linear_acceleration_covariance_7,linear_acceleration_covariance_8
2025/05/07 10:40:41.653833559,1746607241,498403727,mti/imu_base_body,0.9839451115127924,-0.17797006683941835,0.012813352936058935,0.0038066817291846147,0.017453292519943295,0.0,0.0,0.0,0.017453292519943295,0.0,0.0,0.0,0.15707963267948966,0.023248795419931412,0.008409989066421986,-0.0099373459815979,0.0004363323129985824,0.0,0.0,0.0,0.0004363323129985824,0.0,0.0,0.0,0.0004363323129985824,-0.2860560715198517,-0.06801173090934753,9.798428535461426,0.0004,0.0,0.0,0.0,0.0004,0.0,0.0,0.0,0.0004
2025/05/07 10:40:41.655052049,1746607241,548527899,mti/imu_base_body,0.9839530514059789,-0.17792382130662654,0.012856575058743417,0.0037702676655251652,0.017453292519943295,0.0,0.0,0.0,0.017453292519943295,0.0,0.0,0.0,0.15707963267948966,0.016877811402082443,0.012189536355435848,-0.004478015471249819,0.0004363323129985824,0.0,0.0,0.0,0.0004363323129985824,0.0,0.0,0.0,0.0004363323129985824,-0.26861584186553955,-0.05968537926673889,9.817963600158691,0.0004,0.0,0.0,0.0,0.0004,0.0,0.0,0.0,0.0004
2025/05/07 10:40:41.655263369,1746607241,597991912,mti/imu_base_body,0.9839611099998145,-0.17787419441306324,0.012929437934344448,0.003759601646248222,0.017453292519943295,0.0,0.0,0.0,0.017453292519943295,0.0,0.0,0.0,0.15707963267948966,0.016501478850841522,0.016515405848622322,-0.007914340123534203,0.0004363323129985824,0.0,0.0,0.0,0.0004363323129985824,0.0,0.0,0.0,0.0004363323129985824,-0.26035183668136597,-0.055132947862148285,9.837274551391602,0.0004,0.0,0.0,0.0,0.0004,0.0,0.0,0.0,0.0004
2025/05/07 10:40:41.655463669,1746607241,648071654,mti/imu_base_body,0.9843723167847824,-0.1755311857636222,0.01380797668677972,0.0030470562834031224,0.017453292519943295,0.0,0.0,0.0,0.017453292519943295,0.0,0.0,0.0,0.15707963267948966,0.018577873706817627,0.010826967656612396,-0.013362199999392033,0.0004363323129985824,0.0,0.0,0.0,0.0004363323129985824,0.0,0.0,0.0,0.0004363323129985824,-0.2652561366558075,-0.073309525847435,9.821783065795898,0.0004,0.0,0.0,0.0,0.0004,0.0,0.0,0.0,0.0004
2025/05/07 10:40:41.699345042,1746607241,698081403,mti/imu_base_body,0.9843798947017334,-0.17548550441458854,0.01385785934847347,0.003003395018889762,0.017453292519943295,0.0,0.0,0.0,0.017453292519943295,0.0,0.0,0.0,0.15707963267948966,0.020591696724295616,0.014085009694099426,-0.004856945481151342,0.0004363323129985824,0.0,0.0,0.0,0.0004363323129985824,0.0,0.0,0.0,0.0004363323129985824,-0.26804766058921814,-0.06042584031820297,9.805217742919922,0.0004,0.0,0.0,0.0,0.0004,0.0,0.0,0.0,0.0004
2025/05/07 10:40:41.753569799,1746607241,747999142,mti/imu_base_body,0.9843852983555842,-0.17545374501251942,0.013884501824710412,0.0029645153986745908,0.017453292519943295,0.0,0.0,0.0,0.017453292519943295,0.0,0.0,0.0,0.15707963267948966,0.019044088199734688,0.0070657189935445786,-0.007922522723674774,0.0004363323129985824,0.0,0.0,0.0,0.0004363323129985824,0.0,0.0,0.0,0.0004363323129985824,-0.2775164842605591,-0.06027841567993164,9.800679206848145,0.0004,0.0,0.0,0.0,0.0004,0.0,0.0,0.0,0.0004
2025/05/07 10:40:41.799460290,1746607241,798000855,mti/imu_base_body,0.9844009385973911,-0.17536165769773843,0.013948227877676399,0.0029202803202865637,0.017453292519943295,0.0,0.0,0.0,0.017453292519943295,0.0,0.0,0.0,0.15707963267948966,0.016337381675839424,0.007582675665616989,-0.008827823214232922,0.0004363323129985824,0.0,0.0,0.0,0.0004363323129985824,0.0,0.0,0.0,0.0004363323129985824,-0.26778391003608704,-0.0681159570813179,9.805099487304688,0.0004,0.0,0.0,0.0,0.0004,0.0,0.0,0.0,0.0004
2025/05/07 10:40:41.848384315,1746607241,847759623,mti/imu_base_body,0.9844123001498413,-0.1752953386381702,0.01398178086208301,0.0029115922366840016,0.017453292519943295,0.0,0.0,0.0,0.017453292519943295,0.0,0.0,0.0,0.15707963267948966,0.017956186085939407,0.014744620770215988,-0.011518684215843678,0.0004363323129985824,0.0,0.0,0.0,0.0004363323129985824,0.0,0.0,0.0,0.0004363323129985824,-0.2775125801563263,-0.06292743980884552,9.800178527832031,0.0004,0.0,0.0,0.0,0.0004,0.0,0.0,0.0,0.0004
2025/05/07 10:40:41.902143243,1746607241,900236570,mti/imu_base_body,0.9844295594542113,-0.17519723935571052,0.014000942588129648,0.0028884946891147333,0.017453292519943295,0.0,0.0,0.0,0.017453292519943295,0.0,0.0,0.0,0.15707963267948966,0.015623664483428001,0.002929193200543523,-0.01603713631629944,0.0004363323129985824,0.0,0.0,0.0,0.0004363323129985824,0.0,0.0,0.0,0.0004363323129985824,-0.26023992896080017,-0.07525362074375153,9.802692413330078,0.0004,0.0,0.0,0.0,0.0004,0.0,0.0,0.0,0.0004
2025/05/07 10:40:41.950135827,1746607241,948060177,mti/imu_base_body,0.9844440075079659,-0.17511823329343396,0.013974912475144853,0.002881366195766454,0.017453292519943295,0.0,0.0,0.0,0.017453292519943295,0.0,0.0,0.0,0.15707963267948966,0.005735996179282665,0.004463991615921259,-0.017492571845650673,0.0004363323129985824,0.0,0.0,0.0,0.0004363323129985824,0.0,0.0,0.0,0.0004363323129985824,-0.2728365659713745,-0.04972514510154724,9.801873207092285,0.0004,0.0,0.0,0.0,0.0004,0.0,0.0,0.0,0.0004
2025/05/07 10:40:41.999110447,1746607241,998011801,mti/imu_base_body,0.9844554878595428,-0.17504821031425838,0.014044058609294956,0.002877656474185448,0.017453292519943295,0.0,0.0,0.0,0.017453292519943295,0.0,0.0,0.0,0.15707963267948966,0.011901183053851128,0.01395172905176878,-0.006664675660431385,0.0004363323129985824,0.0,0.0,0.0,0.0004363323129985824,0.0,0.0,0.0,0.0004363323129985824,-0.2724577784538269,-0.0684177353978157,9.807856559753418,0.0004,0.0,0.0,0.0,0.0004,0.0,0.0,0.0,0.0004
2025/05/07 10:40:42.52362317,1746607242,48708758,mti/imu_base_body,0.9848881447662242,-0.17257546025749682,0.014401417026114282,0.0023773942663883,0.017453292519943295,0.0,0.0,0.0,0.017453292519943295,0.0,0.0,0.0,0.15707963267948966,0.008990517817437649,-0.005416266154497862,-0.00831679068505764,0.0004363323129985824,0.0,0.0,0.0,0.0004363323129985824,0.0,0.0,0.0,0.0004363323129985824,-0.2519789934158325,-0.07614108175039291,9.789132118225098,0.0004,0.0,0.0,0.0,0.0004,0.0,0.0,0.0,0.0004
2025/05/07 10:40:42.100146461,1746607242,98880678,mti/imu_base_body,0.9849025942610273,-0.1724933151641287,0.014398329208936973,0.002371530640279759,0.017453292519943295,0.0,0.0,0.0,0.017453292519943295,0.0,0.0,0.0,0.15707963267948966,0.009326532483100891,0.00728043494746089,-0.010804340243339539,0.0004363323129985824,0.0,0.0,0.0,0.0004363323129985824,0.0,0.0,0.0,0.0004363323129985824,-0.2676278352737427,-0.0539969727396965,9.82239055633545,0.0004,0.0,0.0,0.0,0.0004,0.0,0.0,0.0,0.0004
2025/05/07 10:40:42.148582246,1746607242,148257762,mti/imu_base_body,0.9849121907956213,-0.1724374693838937,0.014409215931013068,0.0023811910678902875,0.017453292519943295,0.0,0.0,0.0,0.017453292519943295,0.0,0.0,0.0,0.15707963267948966,0.011100143194198608,0.003997721243649721,-0.002912156982347369,0.0004363323129985824,0.0,0.0,0.0,0.0004363323129985824,0.0,0.0,0.0,0.0004363323129985824,-0.2673948109149933,-0.06425238400697708,9.805109024047852,0.0004,0.0,0.0,0.0,0.0004,0.0,0.0,0.0,0.0004
2025/05/07 10:40:42.199276213,1746607242,198235956,mti/imu_base_body,0.9849225235547665,-0.1723790576213749,0.0143977498707131,0.0024058027220709016,0.017453292519943295,0.0,0.0,0.0,0.017453292519943295,0.0,0.0,0.0,0.15707963267948966,0.002639065496623516,0.002749040490016341,-0.015323946252465248,0.0004363323129985824,0.0,0.0,0.0,0.0004363323129985824,0.0,0.0,0.0,0.0004363323129985824,-0.2672729790210724,-0.06720907241106033,9.779054641723633,0.0004,0.0,0.0,0.0,0.0004,0.0,0.0,0.0,0.0004
2025/05/07 10:40:42.248405041,1746607242,247780741,mti/imu_base_body,0.9849390885119406,-0.17228250499158382,0.014422422855558118,0.0023925120831138347,0.017453292519943295,0.0,0.0,0.0,0.017453292519943295,0.0,0.0,0.0,0.15707963267948966,0.013655419461429119,0.006624295841902494,-0.019324060529470444,0.0004363323129985824,0.0,0.0,0.0,0.0004363323129985824,0.0,0.0,0.0,0.0004363323129985824,-0.25160592794418335,-0.07025689631700516,9.803641319274902,0.0004,0.0,0.0,0.0,0.0004,0.0,0.0,0.0,0.0004
2025/05/07 10:40:42.300426606,1746607242,299459696,mti/imu_base_body,0.984956962268675,-0.17217957574793108,0.014432627454538789,0.0023823178807358437,0.017453292519943295,0.0,0.0,0.0,0.017453292519943295,0.0,0.0,0.0,0.15707963267948966,0.012463423423469067,0.00876920111477375,-0.012735255993902683,0.0004363323129985824,0.0,0.0,0.0,0.0004363323129985824,0.0,0.0,0.0,0.0004363323129985824,-0.2698667347431183,-0.05903347581624985,9.794656753540039,0.0004,0.0,0.0,0.0,0.0004,0.0,0.0,0.0,0.0004
2025/05/07 10:40:42.353519756,1746607242,348642947,mti/imu_base_body,0.9849703474034177,-0.17210323216734086,0.014424225336663016,0.0024153544216296034,0.017453292519943295,0.0,0.0,0.0,0.017453292519943295,0.0,0.0,0.0,0.15707963267948966,0.0005188003415241838,0.004227810073643923,-0.01248608436435461,0.0004363323129985824,0.0,0.0,0.0,0.0004363323129985824,0.0,0.0,0.0,0.0004363323129985824,-0.2686524987220764,-0.07998285442590714,9.788178443908691,0.0004,0.0,0.0,0.0,0.0004,0.0,0.0,0.0,0.0004
2025/05/07 10:40:42.399481574,1746607242,398196534,mti/imu_base_body,0.9849905299858186,-0.1719844778538815,0.014464120296667441,0.002405086199573132,0.017453292519943295,0.0,0.0,0.0,0.017453292519943295,0.0,0.0,0.0,0.15707963267948966,0.014558522962033749,0.008140528574585915,-0.019333599135279655,0.0004363323129985824,0.0,0.0,0.0,0.0004363323129985824,0.0,0.0,0.0,0.0004363323129985824,-0.2725394368171692,-0.08318659663200378,9.822869300842285,0.0004,0.0,0.0,0.0,0.0004,0.0,0.0,0.0,0.0004
2025/05/07 10:40:42.448469297,1746607242,448061700,mti/imu_base_body,0.9854851540559563,-0.16916126093323125,0.01390742210077772,0.003172151525110285,0.017453292519943295,0.0,0.0,0.0,0.017453292519943295,0.0,0.0,0.0,0.15707963267948966,0.007805890869349241,0.00391489127650857,-0.022722981870174408,0.0004363323129985824,0.0,0.0,0.0,0.0004363323129985824,0.0,0.0,0.0,0.0004363323129985824,-0.2784237265586853,-0.05702580139040947,9.820476531982422,0.0004,0.0,0.0,0.0,0.0004,0.0,0.0,0.0,0.0004
2025/05/07 10:40:42.499109622,1746607242,498236552,mti/imu_base_body,0.985500646197685,-0.1690765172388809,0.013843025244715628,0.003158847003275408,0.017453292519943295,0.0,0.0,0.0,0.017453292519943295,0.0,0.0,0.0,0.15707963267948966,0.007861166261136532,-0.00462104007601738,-0.010158640332520008,0.0004363323129985824,0.0,0.0,0.0,0.0004363323129985824,0.0,0.0,0.0,0.0004363323129985824,-0.2847130298614502,-0.054828450083732605,9.823866844177246,0.0004,0.0,0.0,0.0,0.0004,0.0,0.0,0.0,0.0004
2025/05/07 10:40:42.552092812,1746607242,548136114,mti/imu_base_body,0.9855090426686237,-0.16902704193807305,0.013843990134523514,0.0031827424012592564,0.017453292519943295,0.0,0.0,0.0,0.017453292519943295,0.0,0.0,0.0,0.15707963267948966,0.003628483973443508,0.0032513306941837072,-0.011057422496378422,0.0004363323129985824,0.0,0.0,0.0,0.0004363323129985824,0.0,0.0,0.0,0.0004363323129985824,-0.26706525683403015,-0.06636098027229309,9.810867309570312,0.0004,0.0,0.0,0.0,0.0004,0.0,0.0,0.0,0.0004
2025/05/07 10:40:42.603894818,1746607242,598327484,mti/imu_base_body,0.9855274578698623,-0.16891877183289222,0.013855373387965886,0.0031791406565570947,0.017453292519943295,0.0,0.0,0.0,0.017453292519943295,0.0,0.0,0.0,0.15707963267948966,0.010810459963977337,0.003455056343227625,-0.011951751075685024,0.0004363323129985824,0.0,0.0,0.0,0.0004363323129985824,0.0,0.0,0.0,0.0004363323129985824,-0.27012187242507935,-0.06334373354911804,9.786499977111816,0.0004,0.0,0.0,0.0,0.0004,0.0,0.0,0.0,0.0004
2025/05/07 10:40:42.650949906,1746607242,648043449,mti/imu_base_body,0.9855398035741312,-0.16885085925413823,0.013806222632322038,0.0031735022969786413,0.017453292519943295,0.0,0.0,0.0,0.017453292519943295,0.0,0.0,0.0,0.15707963267948966,0.014697054401040077,-0.009089348837733269,-0.016288427636027336,0.0004363323129985824,0.0,0.0,0.0,0.0004363323129985824,0.0,0.0,0.0,0.0004363323129985824,-0.2844293415546417,-0.07327400892972946,9.82542896270752,0.0004,0.0,0.0,0.0,0.0004,0.0,0.0,0.0,0.0004
2025/05/07 10:40:42.701762295,1746607242,698650322,mti/imu_base_body,0.9855533171663432,-0.1687783053327142,0.013730154315852363,0.0031663123499008983,0.017453292519943295,0.0,0.0,0.0,0.017453292519943295,0.0,0.0,0.0,0.15707963267948966,0.005787861067801714,-0.006622239015996456,-0.009892440401017666,0.0004363323129985824,0.0,0.0,0.0,0.0004363323129985824,0.0,0.0,0.0,0.0004363323129985824,-0.2657821774482727,-0.08569210022687912,9.824199676513672,0.0004,0.0,0.0,0.0,0.0004,0.0,0.0,0.0,0.0004
2025/05/07 10:40:42.750431505,1746607242,748137495,mti/imu_base_body,0.9855689345616601,-0.1686870019156002,0.013721122418707835,0.0032095811706754655,0.017453292519943295,0.0,0.0,0.0,0.017453292519943295,0.0,0.0,0.0,0.15707963267948966,-0.004049573093652725,0.0037114073056727648,-0.012834387831389904,0.0004363323129985824,0.0,0.0,0.0,0.0004363323129985824,0.0,0.0,0.0,0.0004363323129985824,-0.27023234963417053,-0.09068802744150162,9.839425086975098,0.0004,0.0,0.0,0.0,0.0004,0.0,0.0,0.0,0.0004
2025/05/07 10:40:42.800751028,1746607242,798276195,mti/imu_base_body,0.9855854186330695,-0.1685943171577446,0.013663360360498696,0.0032636457605030597,0.017453292519943295,0.0,0.0,0.0,0.017453292519943295,0.0,0.0,0.0,0.15707963267948966,0.0049658725038170815,-0.005674975458532572,-0.01707475632429123,0.0004363323129985824,0.0,0.0,0.0,0.0004363323129985824,0.0,0.0,0.0,0.0004363323129985824,-0.2710857093334198,-0.07967212796211243,9.792037010192871,0.0004,0.0,0.0,0.0,0.0004,0.0,0.0,0.0,0.0004
2025/05/07 10:40:42.855079384,1746607242,848419878,mti/imu_base_body,0.9861391847988465,-0.16535908926329718,0.013009392829616356,0.004078664056276146,0.017453292519943295,0.0,0.0,0.0,0.017453292519943295,0.0,0.0,0.0,0.15707963267948966,0.004225937183946371,0.0033971869852393866,-0.021421588957309723,0.0004363323129985824,0.0,0.0,0.0,0.0004363323129985824,0.0,0.0,0.0,0.0004363323129985824,-0.28018835186958313,-0.07623417675495148,9.822760581970215,0.0004,0.0,0.0,0.0,0.0004,0.0,0.0,0.0,0.0004
2025/05/07 10:40:42.899488834,1746607242,898182370,mti/imu_base_body,0.986155327022445,-0.16526393208433338,0.01299055622853982,0.00409257695739284,0.017453292519943295,0.0,0.0,0.0,0.017453292519943295,0.0,0.0,0.0,0.15707963267948966,0.006363924592733383,-0.005880777258425951,-0.01428866758942604,0.0004363323129985824,0.0,0.0,0.0,0.0004363323129985824,0.0,0.0,0.0,0.0004363323129985824,-0.2636670768260956,-0.09081286936998367,9.802950859069824,0.0004,0.0,0.0,0.0,0.0004,0.0,0.0,0.0,0.0004
2025/05/07 10:40:42.964454341,1746607242,948468382,mti/imu_base_body,0.9861753802832434,-0.16514551785651638,0.012967141243578263,0.004114669254290768,0.017453292519943295,0.0,0.0,0.0,0.017453292519943295,0.0,0.0,0.0,0.15707963267948966,0.008054853416979313,0.004869675263762474,-0.022458292543888092,0.0004363323129985824,0.0,0.0,0.0,0.0004363323129985824,0.0,0.0,0.0,0.0004363323129985824,-0.2719680666923523,-0.07121963798999786,9.775341033935547,0.0004,0.0,0.0,0.0,0.0004,0.0,0.0,0.0,0.0004
2025/05/07 10:40:42.998865621,1746607242,998350438,mti/imu_base_body,0.9861988949537128,-0.16500330929177226,0.012985128127889805,0.0041272221095636314,0.017453292519943295,0.0,0.0,0.0,0.017453292519943295,0.0,0.0,0.0,0.15707963267948966,0.012191343121230602,0.009431719779968262,-0.020651137456297874,0.0004363323129985824,0.0,0.0,0.0,0.0004363323129985824,0.0,0.0,0.0,0.0004363323129985824,-0.26415371894836426,-0.06449472159147263,9.834020614624023,0.0004,0.0,0.0,0.0,0.0004,0.0,0.0,0.0,0.0004
2025/05/07 10:40:43.49955160,1746607243,48700610,mti/imu_base_body,0.9862107125643387,-0.1649324022596581,0.012988380445881145,0.004127357700800666,0.017453292519943295,0.0,0.0,0.0,0.017453292519943295,0.0,0.0,0.0,0.15707963267948966,0.005002718884497881,0.001639469643123448,-0.009607512503862381,0.0004363323129985824,0.0,0.0,0.0,0.0004363323129985824,0.0,0.0,0.0,0.0004363323129985824,-0.2990322411060333,-0.08732083439826965,9.81954574584961,0.0004,0.0,0.0,0.0,0.0004,0.0,0.0,0.0,0.0004
2025/05/07 10:40:43.100904154,1746607243,100454701,mti/imu_base_body,0.986229503322342,-0.16482478423997,0.012933057680024328,0.004110145479056063,0.017453292519943295,0.0,0.0,0.0,0.017453292519943295,0.0,0.0,0.0,0.15707963267948966,0.012335716746747494,-0.002959777135401964,-0.018594907596707344,0.0004363323129985824,0.0,0.0,0.0,0.0004363323129985824,0.0,0.0,0.0,0.0004363323129985824,-0.26789265871047974,-0.12532348930835724,9.796357154846191,0.0004,0.0,0.0,0.0,0.0004,0.0,0.0,0.0,0.0004
2025/05/07 10:40:43.156950290,1746607243,149174986,mti/imu_base_body,0.9862494494692398,-0.16470530968568847,0.012927583541838317,0.004130613360206498,0.017453292519943295,0.0,0.0,0.0,0.017453292519943295,0.0,0.0,0.0,0.15707963267948966,0.0022159654181450605,-0.004589973017573357,-0.023346256464719772,0.0004363323129985824,0.0,0.0,0.0,0.0004363323129985824,0.0,0.0,0.0,0.0004363323129985824,-0.2489537000656128,-0.09370481967926025,9.793442726135254,0.0004,0.0,0.0,0.0,0.0004,0.0,0.0,0.0,0.0004
2025/05/07 10:40:43.203524766,1746607243,202837677,mti/imu_base_body,0.9862736302759392,-0.16455960345276516,0.012924207592824678,0.004174684645124774,0.017453292519943295,0.0,0.0,0.0,0.017453292519943295,0.0,0.0,0.0,0.15707963267948966,0.008089341223239899,0.009123158641159534,-0.02160240337252617,0.0004363323129985824,0.0,0.0,0.0,0.0004363323129985824,0.0,0.0,0.0,0.0004363323129985824,-0.2639685273170471,-0.062210310250520706,9.80184555053711,0.0004,0.0,0.0,0.0,0.0004,0.0,0.0,0.0,0.0004
2025/05/07 10:40:43.280391062,1746607243,257597762,mti/imu_base_body,0.9868083578242735,-0.1613788513597325,0.012226809953516788,0.004078771915013746,0.017453292519943295,0.0,0.0,0.0,0.017453292519943295,0.0,0.0,0.0,0.15707963267948966,0.002912067109718919,0.0012192308204248548,-0.00995655544102192,0.0004363323129985824,0.0,0.0,0.0,0.0004363323129985824,0.0,0.0,0.0,0.0004363323129985824,-0.26355454325675964,-0.08409934490919113,9.793941497802734,0.0004,0.0,0.0,0.0,0.0004,0.0,0.0,0.0,0.0004
2025/05/07 10:40:43.299016122,1746607243,298336868,mti/imu_base_body,0.9868242870788764,-0.16128168348747707,0.012218578278691536,0.0040928410132774415,0.017453292519943295,0.0,0.0,0.0,0.017453292519943295,0.0,0.0,0.0,0.15707963267948966,0.012134182266891003,0.0010719606652855873,-0.02076761983335018,0.0004363323129985824,0.0,0.0,0.0,0.0004363323129985824,0.0,0.0,0.0,0.0004363323129985824,-0.2747023403644562,-0.06820353120565414,9.781468391418457,0.0004,0.0,0.0,0.0,0.0004,0.0,0.0,0.0,0.0004
2025/05/07 10:40:43.351278952,1746607243,347984913,mti/imu_base_body,0.9868381856599999,-0.16119495687463176,0.012251717971864546,0.004059138849882047,0.017453292519943295,0.0,0.0,0.0,0.017453292519943295,0.0,0.0,0.0,0.15707963267948966,0.011948373168706894,0.006930150557309389,-0.011612600646913052,0.0004363323129985824,0.0,0.0,0.0,0.0004363323129985824,0.0,0.0,0.0,0.0004363323129985824,-0.2756214737892151,-0.08899972587823868,9.808229446411133,0.0004,0.0,0.0,0.0,0.0004,0.0,0.0,0.0,0.0004
2025/05/07 10:40:43.410670631,1746607243,398191349,mti/imu_base_body,0.9868551858506458,-0.16109478857992215,0.01219007338814571,0.004088197997807312,0.017453292519943295,0.0,0.0,0.0,0.017453292519943295,0.0,0.0,0.0,0.15707963267948966,0.007476337254047394,-0.004854297731071711,-0.017172638326883316,0.0004363323129985824,0.0,0.0,0.0,0.0004363323129985824,0.0,0.0,0.0,0.0004363323129985824,-0.2484336793422699,-0.07907723635435104,9.834385871887207,0.0004,0.0,0.0,0.0,0.0004,0.0,0.0,0.0,0.0004
2025/05/07 10:40:43.451460551,1746607243,450875004,mti/imu_base_body,0.9868717880020241,-0.1609941886448089,0.012178156903437008,0.004078941372784342,0.017453292519943295,0.0,0.0,0.0,0.017453292519943295,0.0,0.0,0.0,0.15707963267948966,0.011228993535041809,-0.0002833763137459755,-0.01811595819890499,0.0004363323129985824,0.0,0.0,0.0,0.0004363323129985824,0.0,0.0,0.0,0.0004363323129985824,-0.2376418560743332,-0.06993196904659271,9.845285415649414,0.0004,0.0,0.0,0.0,0.0004,0.0,0.0,0.0,0.0004
2025/05/07 10:40:43.512549207,1746607243,509760304,mti/imu_base_body,0.986892993374706,-0.16086593473331534,0.012166593688717135,0.004042853979906041,0.017453292519943295,0.0,0.0,0.0,0.017453292519943295,0.0,0.0,0.0,0.15707963267948966,0.012029680423438549,0.005183451808989048,-0.020902937278151512,0.0004363323129985824,0.0,0.0,0.0,0.0004363323129985824,0.0,0.0,0.0,0.0004363323129985824,-0.2561628818511963,-0.06789347529411316,9.759008407592773,0.0004,0.0,0.0,0.0,0.0004,0.0,0.0,0.0,0.0004
2025/05/07 10:40:43.600843816,1746607243,559821497,mti/imu_base_body,0.9869159328663746,-0.16072557769938367,0.012158411765859608,0.0040500803726488625,0.017453292519943295,0.0,0.0,0.0,0.017453292519943295,0.0,0.0,0.0,0.15707963267948966,0.010365751571953297,-0.0004892784636467695,-0.02645953744649887,0.0004363323129985824,0.0,0.0,0.0,0.0004363323129985824,0.0,0.0,0.0,0.0004363323129985824,-0.2653493583202362,-0.07806825637817383,9.789022445678711,0.0004,0.0,0.0,0.0,0.0004,0.0,0.0,0.0,0.0004
2025/05/07 10:40:43.603739582,1746607243,597820786,mti/imu_base_body,0.9869314322298816,-0.16062904036491232,0.012174117344534966,0.004055901256604927,0.017453292519943295,0.0,0.0,0.0,0.017453292519943295,0.0,0.0,0.0,0.15707963267948966,0.012524991296231747,0.0066111646592617035,-0.014231259934604168,0.0004363323129985824,0.0,0.0,0.0,0.0004363323129985824,0.0,0.0,0.0,0.0004363323129985824,-0.273598313331604,-0.07326170802116394,9.836440086364746,0.0004,0.0,0.0,0.0,0.0004,0.0,0.0,0.0,0.0004
2025/05/07 10:40:43.665062530,1746607243,654831936,mti/imu_base_body,0.9875005056757815,-0.15712346937593846,0.011766964858630454,0.004062659148894103,0.017453292519943295,0.0,0.0,0.0,0.017453292519943295,0.0,0.0,0.0,0.15707963267948966,0.017252691090106964,0.009384514763951302,-0.0202117208391428,0.0004363323129985824,0.0,0.0,0.0,0.0004363323129985824,0.0,0.0,0.0,0.0004363323129985824,-0.26841670274734497,-0.07394000887870789,9.835594177246094,0.0004,0.0,0.0,0.0,0.0004,0.0,0.0,0.0,0.0004
2025/05/07 10:40:43.716889438,1746607243,708337673,mti/imu_base_body,0.987518239241922,-0.1570123386852686,0.011774383432212506,0.00402697900513988,0.017453292519943295,0.0,0.0,0.0,0.017453292519943295,0.0,0.0,0.0,0.15707963267948966,0.013815393671393394,0.0008995714015327394,-0.017171643674373627,0.0004363323129985824,0.0,0.0,0.0,0.0004363323129985824,0.0,0.0,0.0,0.0004363323129985824,-0.2824649214744568,-0.08700576424598694,9.810888290405273,0.0004,0.0,0.0,0.0,0.0004,0.0,0.0,0.0,0.0004
2025/05/07 10:40:43.834714089,1746607243,748188340,mti/imu_base_body,0.9875297202556894,-0.15694066081971675,0.011756956935808253,0.004056421674323213,0.017453292519943295,0.0,0.0,0.0,0.017453292519943295,0.0,0.0,0.0,0.15707963267948966,0.0029213193338364363,0.005558447912335396,-0.009227581322193146,0.0004363323129985824,0.0,0.0,0.0,0.0004363323129985824,0.0,0.0,0.0,0.0004363323129985824,-0.29348573088645935,-0.11206740885972977,9.78592300415039,0.0004,0.0,0.0,0.0,0.0004,0.0,0.0,0.0,0.0004
2025/05/07 10:40:43.835230461,1746607243,798150820,mti/imu_base_body,0.9875484385322771,-0.15682358788887385,0.011735853083282961,0.004088225352069218,0.017453292519943295,0.0,0.0,0.0,0.017453292519943295,0.0,0.0,0.0,0.15707963267948966,0.00417315773665905,-5.231425461715844e-07,-0.021309848874807358,0.0004363323129985824,0.0,0.0,0.0,0.0004363323129985824,0.0,0.0,0.0,0.0004363323129985824,-0.2717958390712738,-0.11491812765598297,9.827559471130371,0.0004,0.0,0.0,0.0,0.0004,0.0,0.0,0.0,0.0004
2025/05/07 10:40:43.849937845,1746607243,849319253,mti/imu_base_body,0.987562233828213,-0.15673664355630768,0.011735580045642525,0.004090848802530285,0.017453292519943295,0.0,0.0,0.0,0.017453292519943295,0.0,0.0,0.0,0.15707963267948966,0.013448905199766159,0.004103314131498337,-0.019473711028695107,0.0004363323129985824,0.0,0.0,0.0,0.0004363323129985824,0.0,0.0,0.0,0.0004363323129985824,-0.251743346452713,-0.09228530526161194,9.84410285949707,0.0004,0.0,0.0,0.0,0.0004,0.0,0.0,0.0,0.0004
2025/05/07 10:40:43.914539641,1746607243,913990423,mti/imu_base_body,0.987579907967786,-0.15662437918739314,0.01175153856852652,0.004078058824400971,0.017453292519943295,0.0,0.0,0.0,0.017453292519943295,0.0,0.0,0.0,0.15707963267948966,0.010791360400617123,-0.0010588569566607475,-0.01281293947249651,0.0004363323129985824,0.0,0.0,0.0,0.0004363323129985824,0.0,0.0,0.0,0.0004363323129985824,-0.2623756527900696,-0.09607137739658356,9.819863319396973,0.0004,0.0,0.0,0.0,0.0004,0.0,0.0,0.0,0.0004
2025/05/07 10:40:44.34789484,1746607243,948057931,mti/imu_base_body,0.987598833682104,-0.15650935485173395,0.011687696333767018,0.0040943019003618535,0.017453292519943295,0.0,0.0,0.0,0.017453292519943295,0.0,0.0,0.0,0.15707963267948966,0.0027611858677119017,0.00011097472452092916,-0.024926692247390747,0.0004363323129985824,0.0,0.0,0.0,0.0004363323129985824,0.0,0.0,0.0,0.0004363323129985824,-0.2876625955104828,-0.1041085422039032,9.81353759765625,0.0004,0.0,0.0,0.0,0.0004,0.0,0.0,0.0,0.0004
2025/05/07 10:40:44.35037606,1746607243,998671848,mti/imu_base_body,0.9876224172712713,-0.1563584271883392,0.0117130850191167,0.004099608490400926,0.017453292519943295,0.0,0.0,0.0,0.017453292519943295,0.0,0.0,0.0,0.15707963267948966,0.014790142886340618,0.005913611501455307,-0.021707503125071526,0.0004363323129985824,0.0,0.0,0.0,0.0004363323129985824,0.0,0.0,0.0,0.0004363323129985824,-0.2688103914260864,-0.09391636401414871,9.811945915222168,0.0004,0.0,0.0,0.0,0.0004,0.0,0.0,0.0,0.0004
2025/05/07 10:40:44.54641334,1746607244,48038603,mti/imu_base_body,0.9881654616025809,-0.15287903201218322,0.011801060799009638,0.00421390920572743,0.017453292519943295,0.0,0.0,0.0,0.017453292519943295,0.0,0.0,0.0,0.15707963267948966,0.01083123404532671,0.005849482957273722,-0.010945847257971764,0.0004363323129985824,0.0,0.0,0.0,0.0004363323129985824,0.0,0.0,0.0,0.0004363323129985824,-0.2850017845630646,-0.09268252551555634,9.832247734069824,0.0004,0.0,0.0,0.0,0.0004,0.0,0.0,0.0,0.0004
2025/05/07 10:40:44.103311076,1746607244,98110248,mti/imu_base_body,0.9881786723590148,-0.152793251049551,0.011807570036201306,0.004208945036942434,0.017453292519943295,0.0,0.0,0.0,0.017453292519943295,0.0,0.0,0.0,0.15707963267948966,0.002422427525743842,0.00273076631128788,-0.01972206123173237,0.0004363323129985824,0.0,0.0,0.0,0.0004363323129985824,0.0,0.0,0.0,0.0004363323129985824,-0.27533209323883057,-0.10704777389764786,9.824435234069824,0.0004,0.0,0.0,0.0,0.0004,0.0,0.0,0.0,0.0004
2025/05/07 10:40:44.148826309,1746607244,148347766,mti/imu_base_body,0.9881972173576851,-0.15267269038629439,0.011808360319287415,0.004227510296682014,0.017453292519943295,0.0,0.0,0.0,0.017453292519943295,0.0,0.0,0.0,0.15707963267948966,0.009411944076418877,0.009878973476588726,-0.01600789465010166,0.0004363323129985824,0.0,0.0,0.0,0.0004363323129985824,0.0,0.0,0.0,0.0004363323129985824,-0.27816280722618103,-0.10079697519540787,9.839921951293945,0.0004,0.0,0.0,0.0,0.0004,0.0,0.0,0.0,0.0004
2025/05/07 10:40:44.198930085,1746607244,198180174,mti/imu_base_body,0.9882085881774318,-0.1525948640076542,0.011864430382159306,0.004222442724244362,0.017453292519943295,0.0,0.0,0.0,0.017453292519943295,0.0,0.0,0.0,0.15707963267948966,0.01309139933437109,0.011261329054832458,-0.013579179532825947,0.0004363323129985824,0.0,0.0,0.0,0.0004363323129985824,0.0,0.0,0.0,0.0004363323129985824,-0.2717672884464264,-0.08285978436470032,9.81205940246582,0.0004,0.0,0.0,0.0,0.0004,0.0,0.0,0.0,0.0004
2025/05/07 10:40:44.248595881,1746607244,248006316,mti/imu_base_body,0.9882181553170453,-0.1525322188475267,0.01187709258533546,0.004211221550297507,0.017453292519943295,0.0,0.0,0.0,0.017453292519943295,0.0,0.0,0.0,0.15707963267948966,0.014813950285315514,0.007486329413950443,-0.007040147203952074,0.0004363323129985824,0.0,0.0,0.0,0.0004363323129985824,0.0,0.0,0.0,0.0004363323129985824,-0.26630353927612305,-0.07272974401712418,9.835234642028809,0.0004,0.0,0.0,0.0,0.0004,0.0,0.0,0.0,0.0004
2025/05/07 10:40:44.386976704,1746607244,298009927,mti/imu_base_body,0.9882317940123435,-0.15244310209230244,0.011883529737793427,0.0042194369993757835,0.017453292519943295,0.0,0.0,0.0,0.017453292519943295,0.0,0.0,0.0,0.15707963267948966,0.006690511014312506,0.008083492517471313,-0.01745900698006153,0.0004363323129985824,0.0,0.0,0.0,0.0004363323129985824,0.0,0.0,0.0,0.0004363323129985824,-0.28069695830345154,-0.08703190833330154,9.839686393737793,0.0004,0.0,0.0,0.0,0.0004,0.0,0.0,0.0,0.0004
2025/05/07 10:40:44.401481163,1746607244,348052687,mti/imu_base_body,0.9882431685298807,-0.15236692206174585,0.011907656162350965,0.0042389432846800905,0.017453292519943295,0.0,0.0,0.0,0.017453292519943295,0.0,0.0,0.0,0.15707963267948966,0.006397795397788286,0.008175786584615707,-0.010411573573946953,0.0004363323129985824,0.0,0.0,0.0,0.0004363323129985824,0.0,0.0,0.0,0.0004363323129985824,-0.2789260745048523,-0.10932517796754837,9.83260440826416,0.0004,0.0,0.0,0.0,0.0004,0.0,0.0,0.0,0.0004
2025/05/07 10:40:44.411818493,1746607244,398548619,mti/imu_base_body,0.988259255446015,-0.15225998586722517,0.011934313231355503,0.0042559248931656884,0.017453292519943295,0.0,0.0,0.0,0.017453292519943295,0.0,0.0,0.0,0.15707963267948966,0.008508059196174145,0.007393058389425278,-0.016642512753605843,0.0004363323129985824,0.0,0.0,0.0,0.0004363323129985824,0.0,0.0,0.0,0.0004363323129985824,-0.2565879225730896,-0.08653326332569122,9.851543426513672,0.0004,0.0,0.0,0.0,0.0004,0.0,0.0,0.0,0.0004
2025/05/07 10:40:44.448621794,1746607244,448172373,mti/imu_base_body,0.9888061730368523,-0.14859790410962764,0.012802358618715419,0.004136988305289548,0.017453292519943295,0.0,0.0,0.0,0.017453292519943295,0.0,0.0,0.0,0.15707963267948966,0.012607505545020103,0.0069892676547169685,-0.008698233403265476,0.0004363323129985824,0.0,0.0,0.0,0.0004363323129985824,0.0,0.0,0.0,0.0004363323129985824,-0.26837357878685,-0.10559459775686264,9.85659408569336,0.0004,0.0,0.0,0.0,0.0004,0.0,0.0,0.0,0.0004
2025/05/07 10:40:44.537174958,1746607244,499373185,mti/imu_base_body,0.9888226963808883,-0.14848697689020096,0.01281312614420347,0.004137223036180333,0.017453292519943295,0.0,0.0,0.0,0.017453292519943295,0.0,0.0,0.0,0.15707963267948966,0.01150492113083601,0.006527037359774113,-0.02150430716574192,0.0004363323129985824,0.0,0.0,0.0,0.0004363323129985824,0.0,0.0,0.0,0.0004363323129985824,-0.25294822454452515,-0.10274519771337509,9.80881118774414,0.0004,0.0,0.0,0.0,0.0004,0.0,0.0,0.0,0.0004
2025/05/07 10:40:44.548429333,1746607244,548032958,mti/imu_base_body,0.9888360991982851,-0.14839496415697406,0.012859048981379927,0.004092480233809238,0.017453292519943295,0.0,0.0,0.0,0.017453292519943295,0.0,0.0,0.0,0.15707963267948966,0.018364781513810158,0.012367848306894302,-0.01573628932237625,0.0004363323129985824,0.0,0.0,0.0,0.0004363323129985824,0.0,0.0,0.0,0.0004363323129985824,-0.2713348865509033,-0.07092656940221786,9.793939590454102,0.0004,0.0,0.0,0.0,0.0004,0.0,0.0,0.0,0.0004
2025/05/07 10:40:44.599841038,1746607244,599327846,mti/imu_base_body,0.9888539586554441,-0.14827249801326098,0.012887964798428546,0.0041249421473606215,0.017453292519943295,0.0,0.0,0.0,0.017453292519943295,0.0,0.0,0.0,0.15707963267948966,0.005962688475847244,0.005575180519372225,-0.020766887813806534,0.0004363323129985824,0.0,0.0,0.0,0.0004363323129985824,0.0,0.0,0.0,0.0004363323129985824,-0.2727305293083191,-0.10733635723590851,9.839795112609863,0.0004,0.0,0.0,0.0,0.0004,0.0,0.0,0.0,0.0004
2025/05/07 10:40:44.651632624,1746607244,650782183,mti/imu_base_body,0.9888720221094627,-0.1481483089227133,0.012935578065305584,0.004107708923358982,0.017453292519943295,0.0,0.0,0.0,0.017453292519943295,0.0,0.0,0.0,0.15707963267948966,0.013238990679383278,0.012092621996998787,-0.01795935444533825,0.0004363323129985824,0.0,0.0,0.0,0.0004363323129985824,0.0,0.0,0.0,0.0004363323129985824,-0.2602105140686035,-0.09650607407093048,9.846733093261719,0.0004,0.0,0.0,0.0,0.0004,0.0,0.0,0.0,0.0004
2025/05/07 10:40:44.698293007,1746607244,697759200,mti/imu_base_body,0.9888834830370088,-0.14806994404114082,0.012967358921696962,0.004073849634315273,0.017453292519943295,0.0,0.0,0.0,0.017453292519943295,0.0,0.0,0.0,0.15707963267948966,0.017021939158439636,0.011204422451555729,-0.013718601316213608,0.0004363323129985824,0.0,0.0,0.0,0.0004363323129985824,0.0,0.0,0.0,0.0004363323129985824,-0.25121936202049255,-0.09669933468103409,9.836045265197754,0.0004,0.0,0.0,0.0,0.0004,0.0,0.0,0.0,0.0004
2025/05/07 10:40:44.761052471,1746607244,748078721,mti/imu_base_body,0.9888969860204064,-0.14797865917066066,0.012983306848930763,0.004062168518918291,0.017453292519943295,0.0,0.0,0.0,0.017453292519943295,0.0,0.0,0.0,0.15707963267948966,0.012863637879490852,0.006118598859757185,-0.01064994651824236,0.0004363323129985824,0.0,0.0,0.0,0.0004363323129985824,0.0,0.0,0.0,0.0004363323129985824,-0.2465253472328186,-0.08964364230632782,9.78107738494873,0.0004,0.0,0.0,0.0,0.0004,0.0,0.0,0.0,0.0004
2025/05/07 10:40:44.839631369,1746607244,798026764,mti/imu_base_body,0.9889099296463095,-0.14788792022894093,0.01303437228662143,0.004052065693362777,0.017453292519943295,0.0,0.0,0.0,0.017453292519943295,0.0,0.0,0.0,0.15707963267948966,0.016675762832164764,0.01744123362004757,-0.01856274902820587,0.0004363323129985824,0.0,0.0,0.0,0.0004363323129985824,0.0,0.0,0.0,0.0004363323129985824,-0.27392175793647766,-0.08600185811519623,9.822858810424805,0.0004,0.0,0.0,0.0,0.0004,0.0,0.0,0.0,0.0004
2025/05/07 10:40:44.945292849,1746607244,898179124,mti/imu_base_body,0.989410355575187,-0.14439736132447867,0.014301716853113933,0.0034657204392966766,0.017453292519943295,0.0,0.0,0.0,0.017453292519943295,0.0,0.0,0.0,0.15707963267948966,0.00775479432195425,0.0014812854351475835,-0.018421217799186707,0.0004363323129985824,0.0,0.0,0.0,0.0004363323129985824,0.0,0.0,0.0,0.0004363323129985824,-0.25003963708877563,-0.0996851846575737,9.7965669631958,0.0004,0.0,0.0,0.0,0.0004,0.0,0.0,0.0,0.0004
2025/05/07 10:40:44.997530987,1746607244,947943693,mti/imu_base_body,0.9894198751083243,-0.1443316354766655,0.014307402207983343,0.0034623667220272753,0.017453292519943295,0.0,0.0,0.0,0.017453292519943295,0.0,0.0,0.0,0.15707963267948966,0.01226782612502575,0.0071507529355585575,-0.011454341001808643,0.0004363323129985824,0.0,0.0,0.0,0.0004363323129985824,0.0,0.0,0.0,0.0004363323129985824,-0.27746638655662537,-0.08350179344415665,9.82060718536377,0.0004,0.0,0.0,0.0,0.0004,0.0,0.0,0.0,0.0004
2025/05/07 10:40:45.23174674,1746607244,998204649,mti/imu_base_body,0.9894355363869056,-0.144218937778549,0.014361599797377979,0.0034585794834260525,0.017453292519943295,0.0,0.0,0.0,0.017453292519943295,0.0,0.0,0.0,0.15707963267948966,0.01005609706044197,0.012071606703102589,-0.016433700919151306,0.0004363323129985824,0.0,0.0,0.0,0.0004363323129985824,0.0,0.0,0.0,0.0004363323129985824,-0.2851742208003998,-0.10736187547445297,9.797308921813965,0.0004,0.0,0.0,0.0,0.0004,0.0,0.0,0.0,0.0004
2025/05/07 10:40:45.50216691,1746607245,47947565,mti/imu_base_body,0.9894450469373577,-0.14415485966659164,0.014358700826348486,0.0034209993005830924,0.017453292519943295,0.0,0.0,0.0,0.017453292519943295,0.0,0.0,0.0,0.15707963267948966,0.01573971100151539,0.0015341824619099498,-0.012006277218461037,0.0004363323129985824,0.0,0.0,0.0,0.0004363323129985824,0.0,0.0,0.0,0.0004363323129985824,-0.2630976438522339,-0.1084197461605072,9.763811111450195,0.0004,0.0,0.0,0.0,0.0004,0.0,0.0,0.0,0.0004
2025/05/07 10:40:45.99201465,1746607245,98694460,mti/imu_base_body,0.989456367474622,-0.14407454275753723,0.014389267781184014,0.0034017592292634813,0.017453292519943295,0.0,0.0,0.0,0.017453292519943295,0.0,0.0,0.0,0.15707963267948966,0.01416775956749916,0.008835460059344769,-0.010100029408931732,0.0004363323129985824,0.0,0.0,0.0,0.0004363323129985824,0.0,0.0,0.0,0.0004363323129985824,-0.2606223523616791,-0.07832369953393936,9.776996612548828,0.0004,0.0,0.0,0.0,0.0004,0.0,0.0,0.0,0.0004
2025/05/07 10:40:45.219256467,1746607245,148807385,mti/imu_base_body,0.989473041498012,-0.1439607695044247,0.01439161463855667,0.0033583359663206204,0.017453292519943295,0.0,0.0,0.0,0.017453292519943295,0.0,0.0,0.0,0.15707963267948966,0.01975703053176403,0.006094489246606827,-0.021687597036361694,0.0004363323129985824,0.0,0.0,0.0,0.0004363323129985824,0.0,0.0,0.0,0.0004363323129985824,-0.26508039236068726,-0.08266296982765198,9.810748100280762,0.0004,0.0,0.0,0.0,0.0004,0.0,0.0,0.0,0.0004
2025/05/07 10:40:45.254498734,1746607245,198107662,mti/imu_base_body,0.9894909392373545,-0.14383470739216064,0.014419038981443583,0.003368891722939393,0.017453292519943295,0.0,0.0,0.0,0.017453292519943295,0.0,0.0,0.0,0.15707963267948966,0.005827370099723339,0.00867223460227251,-0.019319739192724228,0.0004363323129985824,0.0,0.0,0.0,0.0004363323129985824,0.0,0.0,0.0,0.0004363323129985824,-0.27392372488975525,-0.09607614576816559,9.81843090057373,0.0004,0.0,0.0,0.0,0.0004,0.0,0.0,0.0,0.0004
2025/05/07 10:40:45.254698244,1746607245,248115924,mti/imu_base_body,0.989973728342433,-0.14045590886207376,0.014676068851053124,0.002961057343336366,0.017453292519943295,0.0,0.0,0.0,0.017453292519943295,0.0,0.0,0.0,0.15707963267948966,0.009711016900837421,-0.004240966867655516,-0.0157814621925354,0.0004363323129985824,0.0,0.0,0.0,0.0004363323129985824,0.0,0.0,0.0,0.0004363323129985824,-0.27404698729515076,-0.0972791537642479,9.796478271484375,0.0004,0.0,0.0,0.0,0.0004,0.0,0.0,0.0,0.0004
2025/05/07 10:40:45.304506882,1746607245,303686818,mti/imu_base_body,0.9899882824952158,-0.14035491476591294,0.014659953856861224,0.0029638110838783585,0.017453292519943295,0.0,0.0,0.0,0.017453292519943295,0.0,0.0,0.0,0.15707963267948966,0.010858796536922455,0.001649791724048555,-0.015453673899173737,0.0004363323129985824,0.0,0.0,0.0,0.0004363323129985824,0.0,0.0,0.0,0.0004363323129985824,-0.28939288854599,-0.09651780128479004,9.806930541992188,0.0004,0.0,0.0,0.0,0.0004,0.0,0.0,0.0,0.0004
2025/05/07 10:40:45.348404950,1746607245,347978296,mti/imu_base_body,0.9900029638371686,-0.14025380117775715,0.014632246847159098,0.0029833204681531536,0.017453292519943295,0.0,0.0,0.0,0.017453292519943295,0.0,0.0,0.0,0.15707963267948966,0.007482721470296383,-0.002140953904017806,-0.015054033137857914,0.0004363323129985824,0.0,0.0,0.0,0.0004363323129985824,0.0,0.0,0.0,0.0004363323129985824,-0.2835116386413574,-0.10257913917303085,9.794449806213379,0.0004,0.0,0.0,0.0,0.0004,0.0,0.0,0.0,0.0004
2025/05/07 10:40:45.406741843,1746607245,406208268,mti/imu_base_body,0.9900204421632584,-0.14012765204442218,0.014660939678556004,0.0029701984993759653,0.017453292519943295,0.0,0.0,0.0,0.017453292519943295,0.0,0.0,0.0,0.15707963267948966,0.008063367567956448,0.004439673386514187,-0.02178502269089222,0.0004363323129985824,0.0,0.0,0.0,0.0004363323129985824,0.0,0.0,0.0,0.0004363323129985824,-0.274474561214447,-0.09557593613862991,9.777738571166992,0.0004,0.0,0.0,0.0,0.0004,0.0,0.0,0.0,0.0004
2025/05/07 10:40:45.455978616,1746607245,451252333,mti/imu_base_body,0.9900310524231909,-0.14005603349145168,0.014631752578558387,0.0029554250033206582,0.017453292519943295,0.0,0.0,0.0,0.017453292519943295,0.0,0.0,0.0,0.15707963267948966,0.01363835483789444,-0.001116336090490222,-0.011419414542615414,0.0004363323129985824,0.0,0.0,0.0,0.0004363323129985824,0.0,0.0,0.0,0.0004363323129985824,-0.2666108310222626,-0.08535092324018478,9.777382850646973,0.0004,0.0,0.0,0.0,0.0004,0.0,0.0,0.0,0.0004
2025/05/07 10:40:45.523745183,1746607245,498088070,mti/imu_base_body,0.9900453568360756,-0.13995885977643802,0.01459668479525375,0.002940369091569286,0.017453292519943295,0.0,0.0,0.0,0.017453292519943295,0.0,0.0,0.0,0.15707963267948966,0.011878992430865765,0.0006132140988484025,-0.015928370878100395,0.0004363323129985824,0.0,0.0,0.0,0.0004363323129985824,0.0,0.0,0.0,0.0004363323129985824,-0.2623736560344696,-0.09072300791740417,9.813146591186523,0.0004,0.0,0.0,0.0,0.0004,0.0,0.0,0.0,0.0004
2025/05/07 10:40:45.568388355,1746607245,548057076,mti/imu_base_body,0.990064895533077,-0.13982484990904898,0.014557009160844327,0.0029338482033092507,0.017453292519943295,0.0,0.0,0.0,0.017453292519943295,0.0,0.0,0.0,0.15707963267948966,0.01102078054100275,-0.0065962402150034904,-0.023039791733026505,0.0004363323129985824,0.0,0.0,0.0,0.0004363323129985824,0.0,0.0,0.0,0.0004363323129985824,-0.2899964451789856,-0.09807465970516205,9.809223175048828,0.0004,0.0,0.0,0.0,0.0004,0.0,0.0,0.0,0.0004
2025/05/07 10:40:45.598722338,1746607245,598216729,mti/imu_base_body,0.9900733742501133,-0.1397650840806514,0.014562264627845479,0.0028940148292478027,0.017453292519943295,0.0,0.0,0.0,0.017453292519943295,0.0,0.0,0.0,0.15707963267948966,0.021837661042809486,0.002569695468991995,-0.005952626001089811,0.0004363323129985824,0.0,0.0,0.0,0.0004363323129985824,0.0,0.0,0.0,0.0004363323129985824,-0.2690396308898926,-0.09603411704301834,9.789382934570312,0.0004,0.0,0.0,0.0,0.0004,0.0,0.0,0.0,0.0004
2025/05/07 10:40:45.649263268,1746607245,648032731,mti/imu_base_body,0.990553702425697,-0.13639496801648793,0.01386196318570386,0.00276066788347903,0.017453292519943295,0.0,0.0,0.0,0.017453292519943295,0.0,0.0,0.0,0.15707963267948966,0.0007738422136753798,0.0008770808344706893,-0.029293084517121315,0.0004363323129985824,0.0,0.0,0.0,0.0004363323129985824,0.0,0.0,0.0,0.0004363323129985824,-0.26698583364486694,-0.11597712337970734,9.8263521194458,0.0004,0.0,0.0,0.0,0.0004,0.0,0.0,0.0,0.0004
2025/05/07 10:40:45.733607768,1746607245,698052147,mti/imu_base_body,0.9905730577537479,-0.13625751855431684,0.013831446003121119,0.002756264006301255,0.017453292519943295,0.0,0.0,0.0,0.017453292519943295,0.0,0.0,0.0,0.15707963267948966,0.015494543127715588,-0.003542777616530657,-0.018746929243206978,0.0004363323129985824,0.0,0.0,0.0,0.0004363323129985824,0.0,0.0,0.0,0.0004363323129985824,-0.2632833421230316,-0.1126941666007042,9.808833122253418,0.0004,0.0,0.0,0.0,0.0004,0.0,0.0,0.0,0.0004
2025/05/07 10:40:45.748620429,1746607245,748061669,mti/imu_base_body,0.9905877010094117,-0.1361554692701128,0.013790013364250835,0.002744144336109317,0.017453292519943295,0.0,0.0,0.0,0.017453292519943295,0.0,0.0,0.0,0.15707963267948966,0.01028825156390667,-0.0041563925333321095,-0.012992973439395428,0.0004363323129985824,0.0,0.0,0.0,0.0004363323129985824,0.0,0.0,0.0,0.0004363323129985824,-0.2681429088115692,-0.06712474673986435,9.767183303833008,0.0004,0.0,0.0,0.0,0.0004,0.0,0.0,0.0,0.0004
2025/05/07 10:40:45.808709803,1746607245,798329877,mti/imu_base_body,0.9905980008551314,-0.1360858134744503,0.013734487098545817,0.0027596987071753067,0.017453292519943295,0.0,0.0,0.0,0.017453292519943295,0.0,0.0,0.0,0.15707963267948966,0.005847950465977192,-0.005444961134344339,-0.013989869505167007,0.0004363323129985824,0.0,0.0,0.0,0.0004363323129985824,0.0,0.0,0.0,0.0004363323129985824,-0.26989006996154785,-0.08612596988677979,9.819520950317383,0.0004,0.0,0.0,0.0,0.0004,0.0,0.0,0.0,0.0004
2025/05/07 10:40:45.855164824,1746607245,848531890,mti/imu_base_body,0.9906063169634078,-0.1360262746592295,0.013722930510272104,0.0027674126425763007,0.017453292519943295,0.0,0.0,0.0,0.017453292519943295,0.0,0.0,0.0,0.15707963267948966,0.009641102515161037,0.0020572736393660307,-0.013679586350917816,0.0004363323129985824,0.0,0.0,0.0,0.0004363323129985824,0.0,0.0,0.0,0.0004363323129985824,-0.2761881947517395,-0.10320568829774857,9.838361740112305,0.0004,0.0,0.0,0.0,0.0004,0.0,0.0,0.0,0.0004
2025/05/07 10:40:45.898768569,1746607245,898181540,mti/imu_base_body,0.9906237263115667,-0.13589636831522478,0.013749159722308415,0.0027875713890842284,0.017453292519943295,0.0,0.0,0.0,0.017453292519943295,0.0,0.0,0.0,0.15707963267948966,0.004475872963666916,0.009279211051762104,-0.01713532581925392,0.0004363323129985824,0.0,0.0,0.0,0.0004363323129985824,0.0,0.0,0.0,0.0004363323129985824,-0.25764721632003784,-0.09987267851829529,9.845773696899414,0.0004,0.0,0.0,0.0,0.0004,0.0,0.0,0.0,0.0004
2025/05/07 10:40:45.949331878,1746607245,948220231,mti/imu_base_body,0.9906350095395552,-0.13581568404457156,0.013730805173561775,0.00280050555365901,0.017453292519943295,0.0,0.0,0.0,0.017453292519943295,0.0,0.0,0.0,0.15707963267948966,0.00957371573895216,-0.003536466509103775,-0.01499086245894432,0.0004363323129985824,0.0,0.0,0.0,0.0004363323129985824,0.0,0.0,0.0,0.0004363323129985824,-0.2645641565322876,-0.08814365416765213,9.76921558380127,0.0004,0.0,0.0,0.0,0.0004,0.0,0.0,0.0,0.0004
2025/05/07 10:40:46.12104964,1746607245,998927398,mti/imu_base_body,0.9906503388576449,-0.135710764559633,0.013667837006672472,0.002772135536429311,0.017453292519943295,0.0,0.0,0.0,0.017453292519943295,0.0,0.0,0.0,0.15707963267948966,0.01631147786974907,-0.007365536410361528,-0.014915462583303452,0.0004363323129985824,0.0,0.0,0.0,0.0004363323129985824,0.0,0.0,0.0,0.0004363323129985824,-0.27830013632774353,-0.07997888326644897,9.78796672821045,0.0004,0.0,0.0,0.0,0.0004,0.0,0.0,0.0,0.0004
2025/05/07 10:40:46.48616912,1746607246,48133652,mti/imu_base_body,0.9911181321457428,-0.13234259504622814,0.01258970561825792,0.0034329259837076473,0.017453292519943295,0.0,0.0,0.0,0.017453292519943295,0.0,0.0,0.0,0.15707963267948966,0.007957156747579575,-0.0039823297411203384,-0.020657045766711235,0.0004363323129985824,0.0,0.0,0.0,0.0004363323129985824,0.0,0.0,0.0,0.0004363323129985824,-0.2660292983055115,-0.08365733176469803,9.766587257385254,0.0004,0.0,0.0,0.0,0.0004,0.0,0.0,0.0,0.0004
2025/05/07 10:40:46.111185310,1746607246,99418920,mti/imu_base_body,0.9911313977744304,-0.13224263035931438,0.012584581096778735,0.00347381346248275,0.017453292519943295,0.0,0.0,0.0,0.017453292519943295,0.0,0.0,0.0,0.15707963267948966,0.0028086495585739613,0.003552402602508664,-0.01379658654332161,0.0004363323129985824,0.0,0.0,0.0,0.0004363323129985824,0.0,0.0,0.0,0.0004363323129985824,-0.29167965054512024,-0.0889127105474472,9.78208065032959,0.0004,0.0,0.0,0.0,0.0004,0.0,0.0,0.0,0.0004
2025/05/07 10:40:46.155597497,1746607246,148153549,mti/imu_base_body,0.9911453338056782,-0.13213984213078572,0.012554385710855362,0.00351806712625272,0.017453292519943295,0.0,0.0,0.0,0.017453292519943295,0.0,0.0,0.0,0.15707963267948966,-0.0008590063080191612,-2.751149258983787e-05,-0.013497489504516125,0.0004363323129985824,0.0,0.0,0.0,0.0004363323129985824,0.0,0.0,0.0,0.0004363323129985824,-0.28857922554016113,-0.0954684242606163,9.86142349243164,0.0004,0.0,0.0,0.0,0.0004,0.0,0.0,0.0,0.0004
2025/05/07 10:40:46.220446905,1746607246,197876062,mti/imu_base_body,0.9911542126916824,-0.1320780999390218,0.01249281246625756,0.003554126715761369,0.017453292519943295,0.0,0.0,0.0,0.017453292519943295,0.0,0.0,0.0,0.15707963267948966,0.0045575895346701145,-0.011913549154996872,-0.00901330728083849,0.0004363323129985824,0.0,0.0,0.0,0.0004363323129985824,0.0,0.0,0.0,0.0004363323129985824,-0.26495280861854553,-0.10796431452035904,9.849529266357422,0.0004,0.0,0.0,0.0,0.0004,0.0,0.0,0.0,0.0004
2025/05/07 10:40:46.252784126,1746607246,247931098,mti/imu_base_body,0.9911682235212722,-0.13197701429484954,0.012440615245026633,0.003584894953508896,0.017453292519943295,0.0,0.0,0.0,0.017453292519943295,0.0,0.0,0.0,0.15707963267948966,0.005728649441152811,-0.003300771350041032,-0.019278042018413544,0.0004363323129985824,0.0,0.0,0.0,0.0004363323129985824,0.0,0.0,0.0,0.0004363323129985824,-0.2533525228500366,-0.10490185767412186,9.770639419555664,0.0004,0.0,0.0,0.0,0.0004,0.0,0.0,0.0,0.0004
2025/05/07 10:40:46.299550765,1746607246,298179929,mti/imu_base_body,0.9911794913796521,-0.13189131001822213,0.012449819286303726,0.003591686204185972,0.017453292519943295,0.0,0.0,0.0,0.017453292519943295,0.0,0.0,0.0,0.15707963267948966,0.002499805996194482,0.004116160795092583,-0.011377152986824512,0.0004363323129985824,0.0,0.0,0.0,0.0004363323129985824,0.0,0.0,0.0,0.0004363323129985824,-0.29056316614151,-0.0816584900021553,9.763238906860352,0.0004,0.0,0.0,0.0,0.0004,0.0,0.0,0.0,0.0004
2025/05/07 10:40:46.374394696,1746607246,358841050,mti/imu_base_body,0.9911908582723368,-0.13180787923360238,0.012422284741871664,0.0036127954661433126,0.017453292519943295,0.0,0.0,0.0,0.017453292519943295,0.0,0.0,0.0,0.15707963267948966,0.005685115233063698,0.004821748938411474,-0.015917884185910225,0.0004363323129985824,0.0,0.0,0.0,0.0004363323129985824,0.0,0.0,0.0,0.0004363323129985824,-0.27127891778945923,-0.11565353721380234,9.838841438293457,0.0004,0.0,0.0,0.0,0.0004,0.0,0.0,0.0,0.0004
2025/05/07 10:40:46.404328008,1746607246,399156131,mti/imu_base_body,0.9912081074783574,-0.1316791249218876,0.012400149357951406,0.003651304544874506,0.017453292519943295,0.0,0.0,0.0,0.017453292519943295,0.0,0.0,0.0,0.15707963267948966,0.0011031683534383774,-0.007548119407147169,-0.0183335542678833,0.0004363323129985824,0.0,0.0,0.0,0.0004363323129985824,0.0,0.0,0.0,0.0004363323129985824,-0.25714024901390076,-0.1287505030632019,9.865476608276367,0.0004,0.0,0.0,0.0,0.0004,0.0,0.0,0.0,0.0004
2025/05/07 10:40:46.451453921,1746607246,450898943,mti/imu_base_body,0.991624645926192,-0.12854449983575134,0.011651350123522766,0.004595562428028506,0.017453292519943295,0.0,0.0,0.0,0.017453292519943295,0.0,0.0,0.0,0.15707963267948966,0.005351971834897995,0.0014631329104304314,-0.01186662632972002,0.0004363323129985824,0.0,0.0,0.0,0.0004363323129985824,0.0,0.0,0.0,0.0004363323129985824,-0.26581382751464844,-0.10957124084234238,9.853959083557129,0.0004,0.0,0.0,0.0,0.0004,0.0,0.0,0.0,0.0004
2025/05/07 10:40:46.498612985,1746607246,498182095,mti/imu_base_body,0.9916309687298612,-0.12849621039799658,0.011626952457433403,0.004643247331732968,0.017453292519943295,0.0,0.0,0.0,0.017453292519943295,0.0,0.0,0.0,0.15707963267948966,0.0016291154315695167,-0.0024340483359992504,-0.00805444922298193,0.0004363323129985824,0.0,0.0,0.0,0.0004363323129985824,0.0,0.0,0.0,0.0004363323129985824,-0.25923070311546326,-0.10169637203216553,9.846508026123047,0.0004,0.0,0.0,0.0,0.0004,0.0,0.0,0.0,0.0004
2025/05/07 10:40:46.549870528,1746607246,549104177,mti/imu_base_body,0.9916441587624929,-0.12839279394448178,0.011639070874434696,0.004656703183325094,0.017453292519943295,0.0,0.0,0.0,0.017453292519943295,0.0,0.0,0.0,0.15707963267948966,0.008249347098171711,0.009508255869150162,-0.019435279071331024,0.0004363323129985824,0.0,0.0,0.0,0.0004363323129985824,0.0,0.0,0.0,0.0004363323129985824,-0.26915401220321655,-0.0915123000741005,9.76896858215332,0.0004,0.0,0.0,0.0,0.0004,0.0,0.0,0.0,0.0004
2025/05/07 10:40:46.598813176,1746607246,598275041,mti/imu_base_body,0.9916564128072103,-0.12829647941834277,0.011641288391723468,0.004696031492133277,0.017453292519943295,0.0,0.0,0.0,0.017453292519943295,0.0,0.0,0.0,0.15707963267948966,0.00557417469099164,0.004186264239251614,-0.011624337173998356,0.0004363323129985824,0.0,0.0,0.0,0.0004363323129985824,0.0,0.0,0.0,0.0004363323129985824,-0.3166731595993042,-0.07906351238489151,9.7607421875,0.0004,0.0,0.0,0.0,0.0004,0.0,0.0,0.0,0.0004
2025/05/07 10:40:46.648457816,1746607246,647975022,mti/imu_base_body,0.991665170951775,-0.12823127869216927,0.011608165007160828,0.004709393944497128,0.017453292519943295,0.0,0.0,0.0,0.017453292519943295,0.0,0.0,0.0,0.15707963267948966,-0.001917551038786769,0.003153718076646328,-0.008156505413353443,0.0004363323129985824,0.0,0.0,0.0,0.0004363323129985824,0.0,0.0,0.0,0.0004363323129985824,-0.25191861391067505,-0.12634965777397156,9.858508110046387,0.0004,0.0,0.0,0.0,0.0004,0.0,0.0,0.0,0.0004
2025/05/07 10:40:46.698522537,1746607246,698103520,mti/imu_base_body,0.9916752774992375,-0.1281490017350171,0.011631246199605521,0.004763555706936936,0.017453292519943295,0.0,0.0,0.0,0.017453292519943295,0.0,0.0,0.0,0.15707963267948966,0.008473210968077183,0.004079538397490978,-0.01068695168942213,0.0004363323129985824,0.0,0.0,0.0,0.0004363323129985824,0.0,0.0,0.0,0.0004363323129985824,-0.23366031050682068,-0.12694992125034332,9.885967254638672,0.0004,0.0,0.0,0.0,0.0004,0.0,0.0,0.0,0.0004
2025/05/07 10:40:46.748347450,1746607246,747955222,mti/imu_base_body,0.991686406326266,-0.12806888579349351,0.011570273288737727,0.004749818452629968,0.017453292519943295,0.0,0.0,0.0,0.017453292519943295,0.0,0.0,0.0,0.15707963267948966,0.006438673008233309,-0.008321376517415047,-0.01855318993330002,0.0004363323129985824,0.0,0.0,0.0,0.0004363323129985824,0.0,0.0,0.0,0.0004363323129985824,-0.24417327344417572,-0.11089998483657837,9.789493560791016,0.0004,0.0,0.0,0.0,0.0004,0.0,0.0,0.0,0.0004
2025/05/07 10:40:46.798942563,1746607246,798228929,mti/imu_base_body,0.9916992279620418,-0.12796735217164046,0.011578476249972785,0.004789251026847479,0.017453292519943295,0.0,0.0,0.0,0.017453292519943295,0.0,0.0,0.0,0.15707963267948966,0.004965816158801317,0.008179528638720512,-0.015105010010302067,0.0004363323129985824,0.0,0.0,0.0,0.0004363323129985824,0.0,0.0,0.0,0.0004363323129985824,-0.2921852767467499,-0.09405646473169327,9.766716003417969,0.0004,0.0,0.0,0.0,0.0004,0.0,0.0,0.0,0.0004
2025/05/07 10:40:46.848775038,1746607246,848159520,mti/imu_base_body,0.9920536618481707,-0.12516718819924855,0.011583720619472975,0.005340826578271559,0.017453292519943295,0.0,0.0,0.0,0.017453292519943295,0.0,0.0,0.0,0.15707963267948966,0.008030271157622337,0.0038441927172243595,-0.008134494535624981,0.0004363323129985824,0.0,0.0,0.0,0.0004363323129985824,0.0,0.0,0.0,0.0004363323129985824,-0.2853247821331024,-0.11227520555257797,9.765871047973633,0.0004,0.0,0.0,0.0,0.0004,0.0,0.0,0.0,0.0004
2025/05/07 10:40:46.898508436,1746607246,898096692,mti/imu_base_body,0.9920635839451519,-0.12508704559043765,0.011604227327389794,0.00533088580728372,0.017453292519943295,0.0,0.0,0.0,0.017453292519943295,0.0,0.0,0.0,0.15707963267948966,0.011786099523305893,0.006972781848162413,-0.014118913561105728,0.0004363323129985824,0.0,0.0,0.0,0.0004363323129985824,0.0,0.0,0.0,0.0004363323129985824,-0.29026076197624207,-0.11932481825351715,9.803683280944824,0.0004,0.0,0.0,0.0,0.0004,0.0,0.0,0.0,0.0004
2025/05/07 10:40:46.954148803,1746607246,948385889,mti/imu_base_body,0.9920755142868265,-0.12498963359640286,0.01162157618907484,0.0053576499369542355,0.017453292519943295,0.0,0.0,0.0,0.017453292519943295,0.0,0.0,0.0,0.15707963267948966,0.005686579737812281,0.006439626216888428,-0.016172189265489578,0.0004363323129985824,0.0,0.0,0.0,0.0004363323129985824,0.0,0.0,0.0,0.0004363323129985824,-0.26161590218544006,-0.11381670087575912,9.877833366394043,0.0004,0.0,0.0,0.0,0.0004,0.0,0.0,0.0,0.0004
2025/05/07 10:40:47.4299407,1746607247,3271465,mti/imu_base_body,0.9920861689974758,-0.1249024371261131,0.011629874804102176,0.005400045917395818,0.017453292519943295,0.0,0.0,0.0,0.017453292519943295,0.0,0.0,0.0,0.15707963267948966,0.0032221160363405943,0.006928595714271069,-0.01341382134705782,0.0004363323129985824,0.0,0.0,0.0,0.0004363323129985824,0.0,0.0,0.0,0.0004363323129985824,-0.2022807002067566,-0.12698610126972198,9.856874465942383,0.0004,0.0,0.0,0.0,0.0004,0.0,0.0,0.0,0.0004
2025/05/07 10:40:47.48485558,1746607247,48033234,mti/imu_base_body,0.9921002825806766,-0.12478670931779434,0.011672946092837271,0.005389694842135627,0.017453292519943295,0.0,0.0,0.0,0.017453292519943295,0.0,0.0,0.0,0.15707963267948966,0.009118588641285896,0.014665314927697182,-0.018510038033127785,0.0004363323129985824,0.0,0.0,0.0,0.0004363323129985824,0.0,0.0,0.0,0.0004363323129985824,-0.2478783279657364,-0.11540690809488297,9.770380973815918,0.0004,0.0,0.0,0.0,0.0004,0.0,0.0,0.0,0.0004
2025/05/07 10:40:47.98465010,1746607247,98020917,mti/imu_base_body,0.9921111040174274,-0.12469545095448986,0.011716374610543397,0.005415566689008567,0.017453292519943295,0.0,0.0,0.0,0.017453292519943295,0.0,0.0,0.0,0.15707963267948966,0.011093150824308395,0.011914175935089588,-0.011635638773441315,0.0004363323129985824,0.0,0.0,0.0,0.0004363323129985824,0.0,0.0,0.0,0.0004363323129985824,-0.27620869874954224,-0.11628981679677963,9.785412788391113,0.0004,0.0,0.0,0.0,0.0004,0.0,0.0,0.0,0.0004
2025/05/07 10:40:47.148497850,1746607247,147956300,mti/imu_base_body,0.9921236566522149,-0.12459383049005862,0.01174999929700716,0.005381898491495571,0.017453292519943295,0.0,0.0,0.0,0.017453292519943295,0.0,0.0,0.0,0.15707963267948966,0.019807254895567894,0.007629770785570145,-0.016446318477392197,0.0004363323129985824,0.0,0.0,0.0,0.0004363323129985824,0.0,0.0,0.0,0.0004363323129985824,-0.2671736478805542,-0.11364774405956268,9.840389251708984,0.0004,0.0,0.0,0.0,0.0004,0.0,0.0,0.0,0.0004
2025/05/07 10:40:47.199687329,1746607247,199045724,mti/imu_base_body,0.9921346041605053,-0.12450633275642481,0.011760511832053738,0.0053656958795705225,0.017453292519943295,0.0,0.0,0.0,0.017453292519943295,0.0,0.0,0.0,0.15707963267948966,0.010831672698259354,0.005528197158128023,-0.017049439251422882,0.0004363323129985824,0.0,0.0,0.0,0.0004363323129985824,0.0,0.0,0.0,0.0004363323129985824,-0.23682954907417297,-0.11689472198486328,9.836515426635742,0.0004,0.0,0.0,0.0,0.0004,0.0,0.0,0.0,0.0004
2025/05/07 10:40:47.249369972,1746607247,248072958,mti/imu_base_body,0.9924067431964891,-0.12232729584178198,0.012148540461739547,0.00415953300556232,0.017453292519943295,0.0,0.0,0.0,0.017453292519943295,0.0,0.0,0.0,0.15707963267948966,0.021300120279192924,-5.0523140089353547e-05,-0.008678769692778587,0.0004363323129985824,0.0,0.0,0.0,0.0004363323129985824,0.0,0.0,0.0,0.0004363323129985824,-0.23300889134407043,-0.10803641378879547,9.885976791381836,0.0004,0.0,0.0,0.0,0.0004,0.0,0.0,0.0,0.0004
2025/05/07 10:40:47.299291842,1746607247,298105809,mti/imu_base_body,0.9924129258064607,-0.12227961935461917,0.012141390119217978,0.004106827087033524,0.017453292519943295,0.0,0.0,0.0,0.017453292519943295,0.0,0.0,0.0,0.15707963267948966,0.017156852409243584,0.0026129307225346565,-0.0066246590577065945,0.0004363323129985824,0.0,0.0,0.0,0.0004363323129985824,0.0,0.0,0.0,0.0004363323129985824,-0.2390465885400772,-0.10941064357757568,9.789592742919922,0.0004,0.0,0.0,0.0,0.0004,0.0,0.0,0.0,0.0004
2025/05/07 10:40:47.348523601,1746607247,348061856,mti/imu_base_body,0.9924234792667541,-0.12219608107412006,0.012137202572186711,0.004055105907252137,0.017453292519943295,0.0,0.0,0.0,0.017453292519943295,0.0,0.0,0.0,0.15707963267948966,0.021372638642787933,0.004348695743829012,-0.013326297514140606,0.0004363323129985824,0.0,0.0,0.0,0.0004363323129985824,0.0,0.0,0.0,0.0004363323129985824,-0.27213430404663086,-0.08769670128822327,9.749056816101074,0.0004,0.0,0.0,0.0,0.0004,0.0,0.0,0.0,0.0004
2025/05/07 10:40:47.399229568,1746607247,398533968,mti/imu_base_body,0.9924354895077964,-0.12210048988497213,0.012135100899785402,0.004001107524462741,0.017453292519943295,0.0,0.0,0.0,0.017453292519943295,0.0,0.0,0.0,0.15707963267948966,0.019800489768385887,-0.0002748742699623108,-0.014590694569051266,0.0004363323129985824,0.0,0.0,0.0,0.0004363323129985824,0.0,0.0,0.0,0.0004363323129985824,-0.26551511883735657,-0.09169422090053558,9.827197074890137,0.0004,0.0,0.0,0.0,0.0004,0.0,0.0,0.0,0.0004
2025/05/07 10:40:47.448417639,1746607247,447946962,mti/imu_base_body,0.992447995608781,-0.1219995189855036,0.01214083249258095,0.003961510545944428,0.017453292519943295,0.0,0.0,0.0,0.017453292519943295,0.0,0.0,0.0,0.15707963267948966,0.015111520886421204,-0.0012922636233270168,-0.014880827628076077,0.0004363323129985824,0.0,0.0,0.0,0.0004363323129985824,0.0,0.0,0.0,0.0004363323129985824,-0.22769097983837128,-0.1159813404083252,9.892087936401367,0.0004,0.0,0.0,0.0,0.0004,0.0,0.0,0.0,0.0004
2025/05/07 10:40:47.498603281,1746607247,498004099,mti/imu_base_body,0.992455231614355,-0.12194356806542872,0.012129035341455593,0.00390716655066859,0.017453292519943295,0.0,0.0,0.0,0.017453292519943295,0.0,0.0,0.0,0.15707963267948966,0.021873734891414642,0.004330937284976244,-0.002757124602794647,0.0004363323129985824,0.0,0.0,0.0,0.0004363323129985824,0.0,0.0,0.0,0.0004363323129985824,-0.23105177283287048,-0.09898220747709274,9.830633163452148,0.0004,0.0,0.0,0.0,0.0004,0.0,0.0,0.0,0.0004
2025/05/07 10:40:47.549872492,1746607247,548301118,mti/imu_base_body,0.9924584129784265,-0.12191847028720104,0.012132964508814757,0.0038699203350272575,0.017453292519943295,0.0,0.0,0.0,0.017453292519943295,0.0,0.0,0.0,0.15707963267948966,0.020533444359898567,0.005180219188332558,-0.004584411159157753,0.0004363323129985824,0.0,0.0,0.0,0.0004363323129985824,0.0,0.0,0.0,0.0004363323129985824,-0.29434555768966675,-0.07473035156726837,9.726158142089844,0.0004,0.0,0.0,0.0,0.0004,0.0,0.0,0.0,0.0004
2025/05/07 10:40:47.599348238,1746607247,598043334,mti/imu_base_body,0.9924658632218017,-0.1218593831178873,0.012139960933832756,0.003797687988330089,0.017453292519943295,0.0,0.0,0.0,0.017453292519943295,0.0,0.0,0.0,0.15707963267948966,0.023959988728165627,0.003650164697319269,-0.008310382254421711,0.0004363323129985824,0.0,0.0,0.0,0.0004363323129985824,0.0,0.0,0.0,0.0004363323129985824,-0.28874754905700684,-0.09722402691841125,9.833581924438477,0.0004,0.0,0.0,0.0,0.0004,0.0,0.0,0.0,0.0004
2025/05/07 10:40:47.650097746,1746607247,648165002,mti/imu_base_body,0.9927744668171552,-0.11933485589889842,0.012433520669685127,0.001859507262309005,0.017453292519943295,0.0,0.0,0.0,0.017453292519943295,0.0,0.0,0.0,0.15707963267948966,0.024973373860120773,0.012736817821860313,-0.005496929865330458,0.0004363323129985824,0.0,0.0,0.0,0.0004363323129985824,0.0,0.0,0.0,0.0004363323129985824,-0.26285791397094727,-0.09832186996936798,9.814118385314941,0.0004,0.0,0.0,0.0,0.0004,0.0,0.0,0.0,0.0004
2025/05/07 10:40:47.698421447,1746607247,697987615,mti/imu_base_body,0.9927748665013544,-0.1193301289984473,0.012452385103837928,0.001822871815987219,0.017453292519943295,0.0,0.0,0.0,0.017453292519943295,0.0,0.0,0.0,0.15707963267948966,0.017819534987211227,0.0044058687053620815,0.00186815089546144,0.0004363323129985824,0.0,0.0,0.0,0.0004363323129985824,0.0,0.0,0.0,0.0004363323129985824,-0.23012807965278625,-0.0972534790635109,9.85886287689209,0.0004,0.0,0.0,0.0,0.0004,0.0,0.0,0.0,0.0004
2025/05/07 10:40:47.748318440,1746607247,747855744,mti/imu_base_body,0.992783821851095,-0.11925564703656322,0.012461749475903046,0.0017545713503753953,0.017453292519943295,0.0,0.0,0.0,0.017453292519943295,0.0,0.0,0.0,0.15707963267948966,0.023617010563611984,0.0074447267688810825,-0.014174134470522404,0.0004363323129985824,0.0,0.0,0.0,0.0004363323129985824,0.0,0.0,0.0,0.0004363323129985824,-0.21910138428211212,-0.077911376953125,9.806270599365234,0.0004,0.0,0.0,0.0,0.0004,0.0,0.0,0.0,0.0004
2025/05/07 10:40:47.799606006,1746607247,799012162,mti/imu_base_body,0.9927929619914643,-0.11917890794550845,0.01247846552758827,0.0016764304959293744,0.017453292519943295,0.0,0.0,0.0,0.017453292519943295,0.0,0.0,0.0,0.15707963267948966,0.024783413857221603,0.0033199673052877188,-0.007631474174559116,0.0004363323129985824,0.0,0.0,0.0,0.0004363323129985824,0.0,0.0,0.0,0.0004363323129985824,-0.25710609555244446,-0.07925353944301605,9.790725708007812,0.0004,0.0,0.0,0.0,0.0004,0.0,0.0,0.0,0.0004
2025/05/07 10:40:47.848474249,1746607247,848048910,mti/imu_base_body,0.9928046222866789,-0.11908171283108326,0.012483998466682033,0.0016362816701901463,0.017453292519943295,0.0,0.0,0.0,0.017453292519943295,0.0,0.0,0.0,0.15707963267948966,0.018207397311925888,0.005728226155042648,-0.0159356240183115,0.0004363323129985824,0.0,0.0,0.0,0.0004363323129985824,0.0,0.0,0.0,0.0004363323129985824,-0.2800820767879486,-0.07987105846405029,9.807659149169922,0.0004,0.0,0.0,0.0,0.0004,0.0,0.0,0.0,0.0004
2025/05/07 10:40:47.898884746,1746607247,898181764,mti/imu_base_body,0.9928137105088348,-0.11900087417480565,0.012536107076662938,0.001604428457104178,0.017453292519943295,0.0,0.0,0.0,0.017453292519943295,0.0,0.0,0.0,0.15707963267948966,0.01803642325103283,0.013011269271373749,-0.012885023839771748,0.0004363323129985824,0.0,0.0,0.0,0.0004363323129985824,0.0,0.0,0.0,0.0004363323129985824,-0.2236805111169815,-0.10137210786342621,9.86029052734375,0.0004,0.0,0.0,0.0,0.0004,0.0,0.0,0.0,0.0004
2025/05/07 10:40:47.948284400,1746607247,947864358,mti/imu_base_body,0.9928231955093365,-0.11891983491168268,0.012563312037655573,0.0015292200143073933,0.017453292519943295,0.0,0.0,0.0,0.017453292519943295,0.0,0.0,0.0,0.15707963267948966,0.02830330841243267,0.002834133803844452,-0.014103516936302185,0.0004363323129985824,0.0,0.0,0.0,0.0004363323129985824,0.0,0.0,0.0,0.0004363323129985824,-0.21967965364456177,-0.09913013875484467,9.817564010620117,0.0004,0.0,0.0,0.0,0.0004,0.0,0.0,0.0,0.0004
2025/05/07 10:40:48.294878,1746607247,998944599,mti/imu_base_body,0.9928365406007166,-0.11880729017489233,0.01258242293730582,0.0014539884206441252,0.017453292519943295,0.0,0.0,0.0,0.017453292519943295,0.0,0.0,0.0,0.15707963267948966,0.02104463055729866,0.010028733871877193,-0.013872520998120308,0.0004363323129985824,0.0,0.0,0.0,0.0004363323129985824,0.0,0.0,0.0,0.0004363323129985824,-0.2680181562900543,-0.11170853674411774,9.750267028808594,0.0004,0.0,0.0,0.0,0.0004,0.0,0.0,0.0,0.0004
2025/05/07 10:40:48.48964499,1746607248,47982298,mti/imu_base_body,0.993127776791964,-0.11630111639917567,0.013086988320831529,-5.02460485314344e-06,0.017453292519943295,0.0,0.0,0.0,0.017453292519943295,0.0,0.0,0.0,0.15707963267948966,0.015747543424367905,-0.0012493191752582788,-0.009338916279375553,0.0004363323129985824,0.0,0.0,0.0,0.0004363323129985824,0.0,0.0,0.0,0.0004363323129985824,-0.2962042987346649,-0.07947254180908203,9.805890083312988,0.0004,0.0,0.0,0.0,0.0004,0.0,0.0,0.0,0.0004
2025/05/07 10:40:48.99026275,1746607248,97925087,mti/imu_base_body,0.9931396385039901,-0.11620419006013166,0.013047768244293429,-1.970979551153655e-05,0.017453292519943295,0.0,0.0,0.0,0.017453292519943295,0.0,0.0,0.0,0.15707963267948966,0.009824538603425026,-0.005350583698600531,-0.013739870861172676,0.0004363323129985824,0.0,0.0,0.0,0.0004363323129985824,0.0,0.0,0.0,0.0004363323129985824,-0.27770134806632996,-0.08480000495910645,9.852203369140625,0.0004,0.0,0.0,0.0,0.0004,0.0,0.0,0.0,0.0004
2025/05/07 10:40:48.148841210,1746607248,148019502,mti/imu_base_body,0.9931513717705235,-0.11610300746355018,0.013055336542711824,-5.0950983138628794e-05,0.017453292519943295,0.0,0.0,0.0,0.017453292519943295,0.0,0.0,0.0,0.15707963267948966,0.013942060060799122,0.005303984507918358,-0.013003380969166756,0.0004363323129985824,0.0,0.0,0.0,0.0004363323129985824,0.0,0.0,0.0,0.0004363323129985824,-0.2607633173465729,-0.08416728675365448,9.808484077453613,0.0004,0.0,0.0,0.0,0.0004,0.0,0.0,0.0,0.0004
2025/05/07 10:40:48.198320441,1746607248,197914806,mti/imu_base_body,0.9931581072179076,-0.11604685909244322,0.013042056314431354,-7.300145602585559e-05,0.017453292519943295,0.0,0.0,0.0,0.017453292519943295,0.0,0.0,0.0,0.15707963267948966,0.017049625515937805,0.00014020099479239434,-0.008644212037324905,0.0004363323129985824,0.0,0.0,0.0,0.0004363323129985824,0.0,0.0,0.0,0.0004363323129985824,-0.2808493375778198,-0.0815204381942749,9.744771957397461,0.0004,0.0,0.0,0.0,0.0004,0.0,0.0,0.0,0.0004
2025/05/07 10:40:48.248343864,1746607248,248018897,mti/imu_base_body,0.993162754366531,-0.11600912033128175,0.013023638974233916,-0.0001103037469417827,0.017453292519943295,0.0,0.0,0.0,0.017453292519943295,0.0,0.0,0.0,0.15707963267948966,0.013353285379707813,0.0026467570569366217,-0.005424546077847481,0.0004363323129985824,0.0,0.0,0.0,0.0004363323129985824,0.0,0.0,0.0,0.0004363323129985824,-0.3151147663593292,-0.0694708526134491,9.794986724853516,0.0004,0.0,0.0,0.0,0.0004,0.0,0.0,0.0,0.0004
2025/05/07 10:40:48.298462276,1746607248,298058947,mti/imu_base_body,0.993172206865644,-0.11592642325874614,0.013039398016969924,-7.745589385898914e-05,0.017453292519943295,0.0,0.0,0.0,0.017453292519943295,0.0,0.0,0.0,0.15707963267948966,0.008695682510733604,0.01129185315221548,-0.015846911817789078,0.0004363323129985824,0.0,0.0,0.0,0.0004363323129985824,0.0,0.0,0.0,0.0004363323129985824,-0.27246084809303284,-0.07980725169181824,9.85097599029541,0.0004,0.0,0.0,0.0,0.0004,0.0,0.0,0.0,0.0004
2025/05/07 10:40:48.350550877,1746607248,348967953,mti/imu_base_body,0.9931831587851174,-0.11582820012989203,0.013077900364963178,-9.839883073234357e-05,0.017453292519943295,0.0,0.0,0.0,0.017453292519943295,0.0,0.0,0.0,0.15707963267948966,0.012515483424067497,0.005193129647523165,-0.004146910738199949,0.0004363323129985824,0.0,0.0,0.0,0.0004363323129985824,0.0,0.0,0.0,0.0004363323129985824,-0.24097682535648346,-0.07862743735313416,9.791410446166992,0.0004,0.0,0.0,0.0,0.0004,0.0,0.0,0.0,0.0004
2025/05/07 10:40:48.399253030,1746607248,397934410,mti/imu_base_body,0.9931886089144524,-0.11578361361651718,0.013058918770978985,-8.112341897933712e-05,0.017453292519943295,0.0,0.0,0.0,0.017453292519943295,0.0,0.0,0.0,0.15707963267948966,0.008755543269217014,0.00017663667676970363,-0.011362140066921711,0.0004363323129985824,0.0,0.0,0.0,0.0004363323129985824,0.0,0.0,0.0,0.0004363323129985824,-0.27194124460220337,-0.08709357678890228,9.736717224121094,0.0004,0.0,0.0,0.0,0.0004,0.0,0.0,0.0,0.0004
2025/05/07 10:40:48.450729190,1746607248,448124788,mti/imu_base_body,0.9934590519791071,-0.11348280120903409,0.012674877338079548,0.00033668232619895634,0.017453292519943295,0.0,0.0,0.0,0.017453292519943295,0.0,0.0,0.0,0.15707963267948966,0.005059943534433842,-0.0037112641148269176,-0.0032469385769218206,0.0004363323129985824,0.0,0.0,0.0,0.0004363323129985824,0.0,0.0,0.0,0.0004363323129985824,-0.29705747961997986,-0.08985639363527298,9.832636833190918,0.0004,0.0,0.0,0.0,0.0004,0.0,0.0,0.0,0.0004
2025/05/07 10:40:48.499994241,1746607248,498698407,mti/imu_base_body,0.993465196853566,-0.11343516399850484,0.012618427822456674,0.00037614973982365123,0.017453292519943295,0.0,0.0,0.0,0.017453292519943295,0.0,0.0,0.0,0.15707963267948966,0.001251722453162074,-0.0043622455559670925,-0.004075538367033005,0.0004363323129985824,0.0,0.0,0.0,0.0004363323129985824,0.0,0.0,0.0,0.0004363323129985824,-0.27830809354782104,-0.10396548360586166,9.830574989318848,0.0004,0.0,0.0,0.0,0.0004,0.0,0.0,0.0,0.0004
2025/05/07 10:40:48.548932467,1746607248,548146909,mti/imu_base_body,0.9934723052505676,-0.11337697606928937,0.012580141873004103,0.00042429702090331263,0.017453292519943295,0.0,0.0,0.0,0.017453292519943295,0.0,0.0,0.0,0.15707963267948966,-0.000698730640579015,-0.00575151015073061,-0.008971992880105972,0.0004363323129985824,0.0,0.0,0.0,0.0004363323129985824,0.0,0.0,0.0,0.0004363323129985824,-0.26559144258499146,-0.0923146903514862,9.801387786865234,0.0004,0.0,0.0,0.0,0.0004,0.0,0.0,0.0,0.0004
2025/05/07 10:40:48.598721264,1746607248,598177320,mti/imu_base_body,0.9934794372923275,-0.11332038424133833,0.012524515785886248,0.0004844554104800501,0.017453292519943295,0.0,0.0,0.0,0.017453292519943295,0.0,0.0,0.0,0.15707963267948966,-0.0004929961287416518,-0.00321886595338583,-0.00859802309423685,0.0004363323129985824,0.0,0.0,0.0,0.0004363323129985824,0.0,0.0,0.0,0.0004363323129985824,-0.2583416998386383,-0.08166126161813736,9.766095161437988,0.0004,0.0,0.0,0.0,0.0004,0.0,0.0,0.0,0.0004
2025/05/07 10:40:48.649069059,1746607248,648230218,mti/imu_base_body,0.9934876355258013,-0.11324800530522294,0.01252827600115584,0.0004996520582118561,0.017453292519943295,0.0,0.0,0.0,0.017453292519943295,0.0,0.0,0.0,0.15707963267948966,0.006099403835833073,-0.00039580254815518856,-0.013177298940718174,0.0004363323129985824,0.0,0.0,0.0,0.0004363323129985824,0.0,0.0,0.0,0.0004363323129985824,-0.27866092324256897,-0.09194637089967728,9.84604549407959,0.0004,0.0,0.0,0.0,0.0004,0.0,0.0,0.0,0.0004
2025/05/07 10:40:48.698694131,1746607248,698112089,mti/imu_base_body,0.9935001360759794,-0.11314088905898712,0.012502736025854184,0.0005481166116341647,0.017453292519943295,0.0,0.0,0.0,0.017453292519943295,0.0,0.0,0.0,0.15707963267948966,-0.0045456900261342525,0.007460489869117737,-0.012085995636880398,0.0004363323129985824,0.0,0.0,0.0,0.0004363323129985824,0.0,0.0,0.0,0.0004363323129985824,-0.28136855363845825,-0.0852089673280716,9.826242446899414,0.0004,0.0,0.0,0.0,0.0004,0.0,0.0,0.0,0.0004
2025/05/07 10:40:48.748446006,1746607248,748044583,mti/imu_base_body,0.9935062807679764,-0.11308460413417837,0.012520648806227247,0.0006129729763386287,0.017453292519943295,0.0,0.0,0.0,0.017453292519943295,0.0,0.0,0.0,0.15707963267948966,-0.002045336412265897,0.0024869777262210846,-0.009638804942369461,0.0004363323129985824,0.0,0.0,0.0,0.0004363323129985824,0.0,0.0,0.0,0.0004363323129985824,-0.25703608989715576,-0.06292213499546051,9.789362907409668,0.0004,0.0,0.0,0.0,0.0004,0.0,0.0,0.0,0.0004
2025/05/07 10:40:48.798688842,1746607248,797986115,mti/imu_base_body,0.9935145279274032,-0.11301569871667028,0.012487178657722817,0.0006364039142008147,0.017453292519943295,0.0,0.0,0.0,0.017453292519943295,0.0,0.0,0.0,0.15707963267948966,0.0057764314115047455,-0.001248518587090075,-0.010131703689694405,0.0004363323129985824,0.0,0.0,0.0,0.0004363323129985824,0.0,0.0,0.0,0.0004363323129985824,-0.27623841166496277,-0.04138457030057907,9.75326919555664,0.0004,0.0,0.0,0.0,0.0004,0.0,0.0,0.0,0.0004
2025/05/07 10:40:48.849603272,1746607248,848097445,mti/imu_base_body,0.9937217879712181,-0.11122206471890145,0.011904374988354434,0.0022240249742825954,0.017453292519943295,0.0,0.0,0.0,0.017453292519943295,0.0,0.0,0.0,0.15707963267948966,0.0003158855251967907,0.009847857058048248,-0.011910348199307919,0.0004363323129985824,0.0,0.0,0.0,0.0004363323129985824,0.0,0.0,0.0,0.0004363323129985824,-0.2528107464313507,-0.0968538373708725,9.762340545654297,0.0004,0.0,0.0,0.0,0.0004,0.0,0.0,0.0,0.0004
2025/05/07 10:40:48.898375110,1746607248,898008647,mti/imu_base_body,0.9937301271993046,-0.11114780763600135,0.011882566072549325,0.0023246026963407154,0.017453292519943295,0.0,0.0,0.0,0.017453292519943295,0.0,0.0,0.0,0.15707963267948966,-0.009084483608603477,-0.0003812686481978744,-0.010500563308596611,0.0004363323129985824,0.0,0.0,0.0,0.0004363323129985824,0.0,0.0,0.0,0.0004363323129985824,-0.22699075937271118,-0.10058649629354477,9.880311965942383,0.0004,0.0,0.0,0.0,0.0004,0.0,0.0,0.0,0.0004
2025/05/07 10:40:48.948410852,1746607248,948018071,mti/imu_base_body,0.9937393365163545,-0.11106322378638112,0.011898002317181234,0.0023513662139273903,0.017453292519943295,0.0,0.0,0.0,0.017453292519943295,0.0,0.0,0.0,0.15707963267948966,0.00585419125854969,0.007236754056066275,-0.00979235302656889,0.0004363323129985824,0.0,0.0,0.0,0.0004363323129985824,0.0,0.0,0.0,0.0004363323129985824,-0.2090960443019867,-0.08522875607013702,9.879216194152832,0.0004,0.0,0.0,0.0,0.0004,0.0,0.0,0.0,0.0004
2025/05/07 10:40:49.480438,1746607248,998175422,mti/imu_base_body,0.9937462792424534,-0.11100015367993987,0.011899289533269432,0.0023885735100637505,0.017453292519943295,0.0,0.0,0.0,0.017453292519943295,0.0,0.0,0.0,0.15707963267948966,0.002706014784052968,0.0050679901614785194,-0.008067813701927662,0.0004363323129985824,0.0,0.0,0.0,0.0004363323129985824,0.0,0.0,0.0,0.0004363323129985824,-0.22725364565849304,-0.07470086961984634,9.752598762512207,0.0004,0.0,0.0,0.0,0.0004,0.0,0.0,0.0,0.0004
2025/05/07 10:40:49.48586472,1746607249,48230360,mti/imu_base_body,0.9937575893135397,-0.11089882407095297,0.01189039254318671,0.0024337351110727042,0.017453292519943295,0.0,0.0,0.0,0.017453292519943295,0.0,0.0,0.0,0.15707963267948966,-0.0016273019136860967,0.0003846229810733348,-0.015005029737949371,0.0004363323129985824,0.0,0.0,0.0,0.0004363323129985824,0.0,0.0,0.0,0.0004363323129985824,-0.2568594217300415,-0.057544007897377014,9.760436058044434,0.0004,0.0,0.0,0.0,0.0004,0.0,0.0,0.0,0.0004
2025/05/07 10:40:49.98433897,1746607249,98117219,mti/imu_base_body,0.9937626575537333,-0.11085752761729756,0.011842920532010526,0.0024767429405861165,0.017453292519943295,0.0,0.0,0.0,0.017453292519943295,0.0,0.0,0.0,0.15707963267948966,0.0011404120596125722,-0.00560658797621727,-0.005707065109163523,0.0004363323129985824,0.0,0.0,0.0,0.0004363323129985824,0.0,0.0,0.0,0.0004363323129985824,-0.2573349177837372,-0.08542587608098984,9.869556427001953,0.0004,0.0,0.0,0.0,0.0004,0.0,0.0,0.0,0.0004
2025/05/07 10:40:49.148434267,1746607249,147950108,mti/imu_base_body,0.9937687974014696,-0.1108027035273681,0.011840519446322266,0.002477963176491531,0.017453292519943295,0.0,0.0,0.0,0.017453292519943295,0.0,0.0,0.0,0.15707963267948966,0.012725751847028732,0.007863192819058895,-0.010268262587487698,0.0004363323129985824,0.0,0.0,0.0,0.0004363323129985824,0.0,0.0,0.0,0.0004363323129985824,-0.2014770209789276,-0.09188749641180038,9.899248123168945,0.0004,0.0,0.0,0.0,0.0004,0.0,0.0,0.0,0.0004
2025/05/07 10:40:49.198374384,1746607249,197956354,mti/imu_base_body,0.9937759715020715,-0.11073849164807198,0.011837574866999856,0.0024853076050457747,0.017453292519943295,0.0,0.0,0.0,0.017453292519943295,0.0,0.0,0.0,0.15707963267948966,0.0068735661916434765,0.0032876254990696907,-0.004781837109476328,0.0004363323129985824,0.0,0.0,0.0,0.0004363323129985824,0.0,0.0,0.0,0.0004363323129985824,-0.20918267965316772,-0.09044463187456131,9.7932767868042,0.0004,0.0,0.0,0.0,0.0004,0.0,0.0,0.0,0.0004
2025/05/07 10:40:49.248399107,1746607249,247886828,mti/imu_base_body,0.9939624298447822,-0.10906544448540006,0.01154310618109688,0.0031896043563917776,0.017453292519943295,0.0,0.0,0.0,0.017453292519943295,0.0,0.0,0.0,0.15707963267948966,0.01839137077331543,0.001746210502460599,-0.013148101978003979,0.0004363323129985824,0.0,0.0,0.0,0.0004363323129985824,0.0,0.0,0.0,0.0004363323129985824,-0.2618955075740814,-0.07213854044675827,9.690228462219238,0.0004,0.0,0.0,0.0,0.0004,0.0,0.0,0.0,0.0004
2025/05/07 10:40:49.299644849,1746607249,298644642,mti/imu_base_body,0.9939681538766902,-0.10901379228127595,0.011543841299500006,0.003168895623229053,0.017453292519943295,0.0,0.0,0.0,0.017453292519943295,0.0,0.0,0.0,0.15707963267948966,0.014547731727361679,0.004986104089766741,-0.009162699803709984,0.0004363323129985824,0.0,0.0,0.0,0.0004363323129985824,0.0,0.0,0.0,0.0004363323129985824,-0.28011608123779297,-0.06450483947992325,9.79599380493164,0.0004,0.0,0.0,0.0,0.0004,0.0,0.0,0.0,0.0004
2025/05/07 10:40:49.348099635,1746607249,347767678,mti/imu_base_body,0.9939750904813729,-0.10895003138976717,0.01155247709775561,0.003154431108965015,0.017453292519943295,0.0,0.0,0.0,0.017453292519943295,0.0,0.0,0.0,0.15707963267948966,0.015087421983480453,0.0027610210236161947,-0.0025885042268782854,0.0004363323129985824,0.0,0.0,0.0,0.0004363323129985824,0.0,0.0,0.0,0.0004363323129985824,-0.22194534540176392,-0.09027213603258133,9.931085586547852,0.0004,0.0,0.0,0.0,0.0004,0.0,0.0,0.0,0.0004
2025/05/07 10:40:49.398026610,1746607249,397760572,mti/imu_base_body,0.9939800718002677,-0.10890874684406182,0.01151204963319507,0.0031582333722618644,0.017453292519943295,0.0,0.0,0.0,0.017453292519943295,0.0,0.0,0.0,0.15707963267948966,0.00644467631354928,-0.0013835870195180178,-0.006430686917155981,0.0004363323129985824,0.0,0.0,0.0,0.0004363323129985824,0.0,0.0,0.0,0.0004363323129985824,-0.21100740134716034,-0.08081032335758209,9.857983589172363,0.0004,0.0,0.0,0.0,0.0004,0.0,0.0,0.0,0.0004
2025/05/07 10:40:49.448175584,1746607249,447748317,mti/imu_base_body,0.9939875548611978,-0.10884176807426477,0.011495260388198559,0.0031732147945674177,0.017453292519943295,0.0,0.0,0.0,0.017453292519943295,0.0,0.0,0.0,0.15707963267948966,0.007537405006587505,-0.0013433580752462149,-0.006925674621015787,0.0004363323129985824,0.0,0.0,0.0,0.0004363323129985824,0.0,0.0,0.0,0.0004363323129985824,-0.25963136553764343,-0.07663004100322723,9.686985969543457,0.0004,0.0,0.0,0.0,0.0004,0.0,0.0,0.0,0.0004
2025/05/07 10:40:49.498109318,1746607249,497786469,mti/imu_base_body,0.9939933614154197,-0.10879096942444527,0.011473869869337055,0.003173758652698697,0.017453292519943295,0.0,0.0,0.0,0.017453292519943295,0.0,0.0,0.0,0.15707963267948966,0.00805768370628357,0.003997722174972296,-0.009285099804401398,0.0004363323129985824,0.0,0.0,0.0,0.0004363323129985824,0.0,0.0,0.0,0.0004363323129985824,-0.29416704177856445,-0.07450322061777115,9.756647109985352,0.0004,0.0,0.0,0.0,0.0004,0.0,0.0,0.0,0.0004
2025/05/07 10:40:49.548838511,1746607249,547940530,mti/imu_base_body,0.9939994921035076,-0.10873445926535757,0.011468894215653133,0.0032080417249659605,0.017453292519943295,0.0,0.0,0.0,0.017453292519943295,0.0,0.0,0.0,0.15707963267948966,0.005612855777144432,0.0021592003758996725,-0.005695278290659189,0.0004363323129985824,0.0,0.0,0.0,0.0004363323129985824,0.0,0.0,0.0,0.0004363323129985824,-0.23765704035758972,-0.09094138443470001,9.895346641540527,0.0004,0.0,0.0,0.0,0.0004,0.0,0.0,0.0,0.0004
2025/05/07 10:40:49.598294028,1746607249,597918976,mti/imu_base_body,0.9940087954743749,-0.1086479040113727,0.011482742247606072,0.003208442611748543,0.017453292519943295,0.0,0.0,0.0,0.017453292519943295,0.0,0.0,0.0,0.15707963267948966,0.011399281211197376,0.0008376407204195857,-0.011754530481994152,0.0004363323129985824,0.0,0.0,0.0,0.0004363323129985824,0.0,0.0,0.0,0.0004363323129985824,-0.20139925181865692,-0.11204929649829865,9.847278594970703,0.0004,0.0,0.0,0.0,0.0004,0.0,0.0,0.0,0.0004
2025/05/07 10:40:49.648288701,1746607249,647895611,mti/imu_base_body,0.9941807336205968,-0.10710346824970823,0.010777018523815822,0.004167956121739775,0.017453292519943295,0.0,0.0,0.0,0.017453292519943295,0.0,0.0,0.0,0.15707963267948966,-0.0009762343252077699,-0.012764396145939827,-0.004038786981254816,0.0004363323129985824,0.0,0.0,0.0,0.0004363323129985824,0.0,0.0,0.0,0.0004363323129985824,-0.2574705183506012,-0.22089986503124237,9.801382064819336,0.0004,0.0,0.0,0.0,0.0004,0.0,0.0,0.0,0.0004
2025/05/07 10:40:49.698068126,1746607249,697756478,mti/imu_base_body,0.9941892961134162,-0.10702583692113027,0.010726051378772417,0.004250358415620702,0.017453292519943295,0.0,0.0,0.0,0.017453292519943295,0.0,0.0,0.0,0.15707963267948966,-0.004248322919011116,-0.0033659941982477903,-0.009155664592981339,0.0004363323129985824,0.0,0.0,0.0,0.0004363323129985824,0.0,0.0,0.0,0.0004363323129985824,-0.29159677028656006,-0.21022826433181763,9.803204536437988,0.0004,0.0,0.0,0.0,0.0004,0.0,0.0,0.0,0.0004
2025/05/07 10:40:49.748297441,1746607249,747933841,mti/imu_base_body,0.9941961823339552,-0.1069664382145682,0.010665005845798341,0.004288330512768274,0.017453292519943295,0.0,0.0,0.0,0.017453292519943295,0.0,0.0,0.0,0.15707963267948966,-0.0014812385197728872,-0.006534298416227102,-0.008667164482176304,0.0004363323129985824,0.0,0.0,0.0,0.0004363323129985824,0.0,0.0,0.0,0.0004363323129985824,-0.26884832978248596,-0.22436706721782684,9.819036483764648,0.0004,0.0,0.0,0.0,0.0004,0.0,0.0,0.0,0.0004
2025/05/07 10:40:49.798222997,1746607249,797854204,mti/imu_base_body,0.9942032383524423,-0.10690270407143398,0.01061987233281711,0.0043532773133358365,0.017453292519943295,0.0,0.0,0.0,0.017453292519943295,0.0,0.0,0.0,0.15707963267948966,-0.0002524496812839061,0.0026807058602571487,-0.005848648492246866,0.0004363323129985824,0.0,0.0,0.0,0.0004363323129985824,0.0,0.0,0.0,0.0004363323129985824,-0.2671316862106323,-0.2400893270969391,9.819862365722656,0.0004,0.0,0.0,0.0,0.0004,0.0,0.0,0.0,0.0004
2025/05/07 10:40:49.848227581,1746607249,847881077,mti/imu_base_body,0.9942069884092483,-0.10686753153656692,0.010608296755503425,0.004388501047141896,0.017453292519943295,0.0,0.0,0.0,0.017453292519943295,0.0,0.0,0.0,0.15707963267948966,-4.653076393879019e-05,-0.0031955742742866278,-0.002502958755940199,0.0004363323129985824,0.0,0.0,0.0,0.0004363323129985824,0.0,0.0,0.0,0.0004363323129985824,-0.25706714391708374,-0.23255036771297455,9.795368194580078,0.0004,0.0,0.0,0.0,0.0004,0.0,0.0,0.0,0.0004
2025/05/07 10:40:49.898418748,1746607249,897960081,mti/imu_base_body,0.9942058443067667,-0.10687622776363431,0.010584827048818692,0.004491383042108343,0.017453292519943295,0.0,0.0,0.0,0.017453292519943295,0.0,0.0,0.0,0.15707963267948966,-0.008277658373117447,-0.0006901145097799599,0.0013942103832960129,0.0004363323129985824,0.0,0.0,0.0,0.0004363323129985824,0.0,0.0,0.0,0.0004363323129985824,-0.2736718952655792,-0.22378824651241302,9.826571464538574,0.0004,0.0,0.0,0.0,0.0004,0.0,0.0,0.0,0.0004
2025/05/07 10:40:49.948115435,1746607249,947776665,mti/imu_base_body,0.9942101348211649,-0.10683532149283231,0.010576187679450079,0.004534992235170735,0.017453292519943295,0.0,0.0,0.0,0.017453292519943295,0.0,0.0,0.0,0.15707963267948966,0.0011238108854740858,0.007166020106524229,-0.0010468823602423072,0.0004363323129985824,0.0,0.0,0.0,0.0004363323129985824,0.0,0.0,0.0,0.0004363323129985824,-0.2854654788970947,-0.22229188680648804,9.847846984863281,0.0004,0.0,0.0,0.0,0.0004,0.0,0.0,0.0,0.0004
2025/05/07 10:40:49.998130557,1746607249,997866027,mti/imu_base_body,0.9942136835541205,-0.10680295716755872,0.010555264149369062,0.00456795060704605,0.017453292519943295,0.0,0.0,0.0,0.017453292519943295,0.0,0.0,0.0,0.15707963267948966,0.0019979116041213274,0.00013009595568291843,0.0026806581299751997,0.0004363323129985824,0.0,0.0,0.0,0.0004363323129985824,0.0,0.0,0.0,0.0004363323129985824,-0.28008800745010376,-0.22226744890213013,9.804758071899414,0.0004,0.0,0.0,0.0,0.0004,0.0,0.0,0.0,0.0004
2025/05/07 10:40:50.48062916,1746607250,47775728,mti/imu_base_body,0.9943311600057347,-0.10569774782766905,0.009790378978061759,0.006138308013967061,0.017453292519943295,0.0,0.0,0.0,0.017453292519943295,0.0,0.0,0.0,0.15707963267948966,0.005450086668133736,-0.005782426334917545,0.0071396674029529095,0.0004363323129985824,0.0,0.0,0.0,0.0004363323129985824,0.0,0.0,0.0,0.0004363323129985824,-0.2405913770198822,-0.17861919105052948,9.848297119140625,0.0004,0.0,0.0,0.0,0.0004,0.0,0.0,0.0,0.0004
2025/05/07 10:40:50.98204789,1746607250,97848661,mti/imu_base_body,0.9943305421017024,-0.10570422146332897,0.009797592797384127,0.006115372755821217,0.017453292519943295,0.0,0.0,0.0,0.017453292519943295,0.0,0.0,0.0,0.15707963267948966,0.01600315235555172,0.005813238210976124,-0.002281224587932229,0.0004363323129985824,0.0,0.0,0.0,0.0004363323129985824,0.0,0.0,0.0,0.0004363323129985824,-0.23191934823989868,-0.1881188601255417,9.904210090637207,0.0004,0.0,0.0,0.0,0.0004,0.0,0.0,0.0,0.0004
2025/05/07 10:40:50.148529425,1746607250,148075749,mti/imu_base_body,0.9943367398388969,-0.1056492912951626,0.00974708709596839,0.006137536030631161,0.017453292519943295,0.0,0.0,0.0,0.017453292519943295,0.0,0.0,0.0,0.15707963267948966,0.0030959141440689564,-0.0028230410534888506,-0.007946827448904514,0.0004363323129985824,0.0,0.0,0.0,0.0004363323129985824,0.0,0.0,0.0,0.0004363323129985824,-0.24615314602851868,-0.18454480171203613,9.879748344421387,0.0004,0.0,0.0,0.0,0.0004,0.0,0.0,0.0,0.0004
2025/05/07 10:40:50.198480652,1746607250,198078018,mti/imu_base_body,0.9943394395872507,-0.10562173603718389,0.009766673762624776,0.006143276114445064,0.017453292519943295,0.0,0.0,0.0,0.017453292519943295,0.0,0.0,0.0,0.15707963267948966,0.008544289506971836,0.0023258207365870476,0.0032681820448487997,0.0004363323129985824,0.0,0.0,0.0,0.0004363323129985824,0.0,0.0,0.0,0.0004363323129985824,-0.25405922532081604,-0.19831396639347076,9.789006233215332,0.0004,0.0,0.0,0.0,0.0004,0.0,0.0,0.0,0.0004
2025/05/07 10:40:50.248733389,1746607250,248096562,mti/imu_base_body,0.994344458309546,-0.10557384155316668,0.009752467477285805,0.006176697087206116,0.017453292519943295,0.0,0.0,0.0,0.017453292519943295,0.0,0.0,0.0,0.15707963267948966,0.001111929421313107,0.005323756020516157,-0.009600503370165825,0.0004363323129985824,0.0,0.0,0.0,0.0004363323129985824,0.0,0.0,0.0,0.0004363323129985824,-0.23917809128761292,-0.19564062356948853,9.82882308959961,0.0004,0.0,0.0,0.0,0.0004,0.0,0.0,0.0,0.0004
2025/05/07 10:40:50.298349689,1746607250,297923082,mti/imu_base_body,0.9943454915428224,-0.10556212330128745,0.00977885240206835,0.006168923592100752,0.017453292519943295,0.0,0.0,0.0,0.017453292519943295,0.0,0.0,0.0,0.15707963267948966,0.012433825060725212,0.006135232280939817,0.007306903600692749,0.0004363323129985824,0.0,0.0,0.0,0.0004363323129985824,0.0,0.0,0.0,0.0004363323129985824,-0.21912521123886108,-0.19099734723567963,9.899271965026855,0.0004,0.0,0.0,0.0,0.0004,0.0,0.0,0.0,0.0004
2025/05/07 10:40:50.348079220,1746607250,347767649,mti/imu_base_body,0.994341096312392,-0.10560067012338076,0.009789688138749175,0.006200375787755927,0.017453292519943295,0.0,0.0,0.0,0.017453292519943295,0.0,0.0,0.0,0.15707963267948966,0.009143790230154991,0.010723632760345936,0.010724683292210102,0.0004363323129985824,0.0,0.0,0.0,0.0004363323129985824,0.0,0.0,0.0,0.0004363323129985824,-0.24374797940254211,-0.19661830365657806,9.851757049560547,0.0004,0.0,0.0,0.0,0.0004,0.0,0.0,0.0,0.0004
2025/05/07 10:40:50.398692829,1746607250,398164568,mti/imu_base_body,0.9943442986334414,-0.10556941639917578,0.009819837592938389,0.006171295322301906,0.017453292519943295,0.0,0.0,0.0,0.017453292519943295,0.0,0.0,0.0,0.15707963267948966,0.016402270644903183,0.008173585869371891,-0.0014352141879498959,0.0004363323129985824,0.0,0.0,0.0,0.0004363323129985824,0.0,0.0,0.0,0.0004363323129985824,-0.26419535279273987,-0.1904260218143463,9.789257049560547,0.0004,0.0,0.0,0.0,0.0004,0.0,0.0,0.0,0.0004
2025/05/07 10:40:50.448599304,1746607250,447975862,mti/imu_base_body,0.9944326127635379,-0.10467847655551737,0.01111860765882516,0.004750976955169322,0.017453292519943295,0.0,0.0,0.0,0.017453292519943295,0.0,0.0,0.0,0.15707963267948966,0.020584484562277794,0.011569404043257236,0.003982986323535442,0.0004363323129985824,0.0,0.0,0.0,0.0004363323129985824,0.0,0.0,0.0,0.0004363323129985824,-0.25557348132133484,-0.197994202375412,9.822490692138672,0.0004,0.0,0.0,0.0,0.0004,0.0,0.0,0.0,0.0004
2025/05/07 10:40:50.498379674,1746607250,497991455,mti/imu_base_body,0.9944383029107811,-0.10462002038744367,0.011182281631414373,0.004697830943345005,0.017453292519943295,0.0,0.0,0.0,0.017453292519943295,0.0,0.0,0.0,0.15707963267948966,0.027272462844848633,0.01539109367877245,-0.007569437846541405,0.0004363323129985824,0.0,0.0,0.0,0.0004363323129985824,0.0,0.0,0.0,0.0004363323129985824,-0.24415096640586853,-0.19803431630134583,9.838446617126465,0.0004,0.0,0.0,0.0,0.0004,0.0,0.0,0.0,0.0004
2025/05/07 10:40:50.548163331,1746607250,547774222,mti/imu_base_body,0.9944417005815078,-0.10458573436612101,0.011251193131105619,0.0045759113610539205,0.017453292519943295,0.0,0.0,0.0,0.017453292519943295,0.0,0.0,0.0,0.15707963267948966,0.037223491817712784,0.017053641378879547,-0.0032631014473736286,0.0004363323129985824,0.0,0.0,0.0,0.0004363323129985824,0.0,0.0,0.0,0.0004363323129985824,-0.2435164451599121,-0.19127021729946136,9.813603401184082,0.0004,0.0,0.0,0.0,0.0004,0.0,0.0,0.0,0.0004
2025/05/07 10:40:50.598510024,1746607250,597836501,mti/imu_base_body,0.9944460475838697,-0.1045444997305085,0.011302440269650368,0.004445319433815992,0.017453292519943295,0.0,0.0,0.0,0.017453292519943295,0.0,0.0,0.0,0.15707963267948966,0.03177609294652939,0.006276232656091452,-0.0017757145687937737,0.0004363323129985824,0.0,0.0,0.0,0.0004363323129985824,0.0,0.0,0.0,0.0004363323129985824,-0.25399303436279297,-0.18684066832065582,9.781457901000977,0.0004,0.0,0.0,0.0,0.0004,0.0,0.0,0.0,0.0004
2025/05/07 10:40:50.648231106,1746607250,647846847,mti/imu_base_body,0.9944500524664142,-0.10450279719235622,0.011352621690689478,0.004401875653339226,0.017453292519943295,0.0,0.0,0.0,0.017453292519943295,0.0,0.0,0.0,0.15707963267948966,0.023437559604644775,0.01435665600001812,-0.002276477636769414,0.0004363323129985824,0.0,0.0,0.0,0.0004363323129985824,0.0,0.0,0.0,0.0004363323129985824,-0.2524610757827759,-0.1802075058221817,9.817564010620117,0.0004,0.0,0.0,0.0,0.0004,0.0,0.0,0.0,0.0004
2025/05/07 10:40:50.698354133,1746607250,697892542,mti/imu_base_body,0.9944526067701842,-0.1044770686564584,0.01140784090533014,0.00429140755667119,0.017453292519943295,0.0,0.0,0.0,0.017453292519943295,0.0,0.0,0.0,0.15707963267948966,0.031935565173625946,0.012028812430799007,0.0029271612875163555,0.0004363323129985824,0.0,0.0,0.0,0.0004363323129985824,0.0,0.0,0.0,0.0004363323129985824,-0.23088543117046356,-0.17819468677043915,9.849722862243652,0.0004,0.0,0.0,0.0,0.0004,0.0,0.0,0.0,0.0004
2025/05/07 10:40:50.748166737,1746607250,747801128,mti/imu_base_body,0.9944544563841144,-0.10446137791248539,0.011422641025175154,0.0042045183327099195,0.017453292519943295,0.0,0.0,0.0,0.017453292519943295,0.0,0.0,0.0,0.15707963267948966,0.031160321086645126,0.004047917667776346,-0.00923824217170477,0.0004363323129985824,0.0,0.0,0.0,0.0004363323129985824,0.0,0.0,0.0,0.0004363323129985824,-0.24099954962730408,-0.18047712743282318,9.799439430236816,0.0004,0.0,0.0,0.0,0.0004,0.0,0.0,0.0,0.0004
2025/05/07 10:40:50.798095167,1746607250,797768273,mti/imu_base_body,0.9944606555450626,-0.10440023176430996,0.011487630162765054,0.004078055135232123,0.017453292519943295,0.0,0.0,0.0,0.017453292519943295,0.0,0.0,0.0,0.15707963267948966,0.032870929688215256,0.01652703434228897,-0.002679257420822978,0.0004363323129985824,0.0,0.0,0.0,0.0004363323129985824,0.0,0.0,0.0,0.0004363323129985824,-0.253595769405365,-0.1834731251001358,9.782891273498535,0.0004,0.0,0.0,0.0,0.0004,0.0,0.0,0.0,0.0004
2025/05/07 10:40:50.850512942,1746607250,849995815,mti/imu_base_body,0.9945755400924481,-0.10317195073799118,0.013209801951141652,0.0007380807166775787,0.017453292519943295,0.0,0.0,0.0,0.017453292519943295,0.0,0.0,0.0,0.15707963267948966,0.020701011642813683,0.008374634198844433,-0.007976563647389412,0.0004363323129985824,0.0,0.0,0.0,0.0004363323129985824,0.0,0.0,0.0,0.0004363323129985824,-0.2441270500421524,-0.1698494702577591,9.79499626159668,0.0004,0.0,0.0,0.0,0.0004,0.0,0.0,0.0,0.0004
2025/05/07 10:40:50.898360403,1746607250,897947243,mti/imu_base_body,0.9945804941514407,-0.10311732649363431,0.013268757392796014,0.000630640573116726,0.017453292519943295,0.0,0.0,0.0,0.017453292519943295,0.0,0.0,0.0,0.15707963267948966,0.03502504155039787,0.012848049402236938,-0.0013132073218002915,0.0004363323129985824,0.0,0.0,0.0,0.0004363323129985824,0.0,0.0,0.0,0.0004363323129985824,-0.24822524189949036,-0.164247065782547,9.795842170715332,0.0004,0.0,0.0,0.0,0.0004,0.0,0.0,0.0,0.0004
2025/05/07 10:40:50.950084451,1746607250,948988265,mti/imu_base_body,0.9945807189709117,-0.10311043002045989,0.013308436670246148,0.000564079510427553,0.017453292519943295,0.0,0.0,0.0,0.017453292519943295,0.0,0.0,0.0,0.15707963267948966,0.02283431775867939,0.007612009532749653,-0.003473371732980013,0.0004363323129985824,0.0,0.0,0.0,0.0004363323129985824,0.0,0.0,0.0,0.0004363323129985824,-0.2554227411746979,-0.16968561708927155,9.761038780212402,0.0004,0.0,0.0,0.0,0.0004,0.0,0.0,0.0,0.0004
2025/05/07 10:40:50.998171891,1746607250,997795523,mti/imu_base_body,0.9945887630368241,-0.10302753483416283,0.013353050323979567,0.0004642778486113972,0.017453292519943295,0.0,0.0,0.0,0.017453292519943295,0.0,0.0,0.0,0.15707963267948966,0.02693965658545494,0.009773106314241886,-0.011422684416174889,0.0004363323129985824,0.0,0.0,0.0,0.0004363323129985824,0.0,0.0,0.0,0.0004363323129985824,-0.25256702303886414,-0.1559634655714035,9.745190620422363,0.0004,0.0,0.0,0.0,0.0004,0.0,0.0,0.0,0.0004
2025/05/07 10:40:51.48140673,1746607251,47763926,mti/imu_base_body,0.9945922209439841,-0.10298916488306947,0.01339359516369698,0.00039694205133293265,0.017453292519943295,0.0,0.0,0.0,0.017453292519943295,0.0,0.0,0.0,0.15707963267948966,0.024213716387748718,0.013758497312664986,-0.00018773968622554094,0.0004363323129985824,0.0,0.0,0.0,0.0004363323129985824,0.0,0.0,0.0,0.0004363323129985824,-0.2475317120552063,-0.17467159032821655,9.790799140930176,0.0004,0.0,0.0,0.0,0.0004,0.0,0.0,0.0,0.0004
2025/05/07 10:40:51.98439301,1746607251,97935801,mti/imu_base_body,0.9946008468541159,-0.10290345768210973,0.013413121392592955,0.0003492973650090275,0.017453292519943295,0.0,0.0,0.0,0.017453292519943295,0.0,0.0,0.0,0.15707963267948966,0.021063214167952538,0.0014604537282139063,-0.014172018505632877,0.0004363323129985824,0.0,0.0,0.0,0.0004363323129985824,0.0,0.0,0.0,0.0004363323129985824,-0.23643265664577484,-0.1657010167837143,9.785388946533203,0.0004,0.0,0.0,0.0,0.0004,0.0,0.0,0.0,0.0004
2025/05/07 10:40:51.148256892,1746607251,147803504,mti/imu_base_body,0.9946021910586805,-0.10288632797451258,0.013446233577310627,0.00028958552690649605,0.017453292519943295,0.0,0.0,0.0,0.017453292519943295,0.0,0.0,0.0,0.15707963267948966,0.021823490038514137,0.013946812599897385,0.00417289137840271,0.0004363323129985824,0.0,0.0,0.0,0.0004363323129985824,0.0,0.0,0.0,0.0004363323129985824,-0.25477245450019836,-0.16490522027015686,9.74998950958252,0.0004,0.0,0.0,0.0,0.0004,0.0,0.0,0.0,0.0004
2025/05/07 10:40:51.198321207,1746607251,197873197,mti/imu_base_body,0.9946073663306667,-0.1028327631456527,0.013474349284553617,0.00022710341851345673,0.017453292519943295,0.0,0.0,0.0,0.017453292519943295,0.0,0.0,0.0,0.15707963267948966,0.023083381354808807,-0.00017424636462237686,-0.006106194108724594,0.0004363323129985824,0.0,0.0,0.0,0.0004363323129985824,0.0,0.0,0.0,0.0004363323129985824,-0.25433191657066345,-0.15679983794689178,9.767406463623047,0.0004,0.0,0.0,0.0,0.0004,0.0,0.0,0.0,0.0004
2025/05/07 10:40:51.248079457,1746607251,247727014,mti/imu_base_body,0.9947512658533981,-0.10138403111754468,0.013821199770299938,-0.0004144325376069088,0.017453292519943295,0.0,0.0,0.0,0.017453292519943295,0.0,0.0,0.0,0.15707963267948966,0.007566041313111782,0.006124790757894516,-0.0017027921276167035,0.0004363323129985824,0.0,0.0,0.0,0.0004363323129985824,0.0,0.0,0.0,0.0004363323129985824,-0.25060415267944336,-0.15343345701694489,9.792113304138184,0.0004,0.0,0.0,0.0,0.0004,0.0,0.0,0.0,0.0004
2025/05/07 10:40:51.298328745,1746607251,297929979,mti/imu_base_body,0.994752934938306,-0.10136793203478045,0.01381998146535259,-0.0003858742224771283,0.017453292519943295,0.0,0.0,0.0,0.017453292519943295,0.0,0.0,0.0,0.15707963267948966,0.0052877264097332954,0.005593083333224058,0.0017129669431596994,0.0004363323129985824,0.0,0.0,0.0,0.0004363323129985824,0.0,0.0,0.0,0.0004363323129985824,-0.2666183412075043,-0.14273014664649963,9.777605056762695,0.0004,0.0,0.0,0.0,0.0004,0.0,0.0,0.0,0.0004
2025/05/07 10:40:51.348272164,1746607251,347833939,mti/imu_base_body,0.9947578991958407,-0.10132382604149337,0.013786547184254365,-0.00036794092834955584,0.017453292519943295,0.0,0.0,0.0,0.017453292519943295,0.0,0.0,0.0,0.15707963267948966,0.0034660303499549627,-0.0036749676801264286,-0.005304092541337013,0.0004363323129985824,0.0,0.0,0.0,0.0004363323129985824,0.0,0.0,0.0,0.0004363323129985824,-0.24844594299793243,-0.15746472775936127,9.773756980895996,0.0004,0.0,0.0,0.0,0.0004,0.0,0.0,0.0,0.0004
2025/05/07 10:40:51.398174559,1746607251,397745421,mti/imu_base_body,0.9947596383041302,-0.1013047520273545,0.013802902114397626,-0.0002985145435517285,0.017453292519943295,0.0,0.0,0.0,0.017453292519943295,0.0,0.0,0.0,0.15707963267948966,-0.003969240467995405,0.007734452374279499,0.002272473881021142,0.0004363323129985824,0.0,0.0,0.0,0.0004363323129985824,0.0,0.0,0.0,0.0004363323129985824,-0.25519630312919617,-0.14746995270252228,9.790191650390625,0.0004,0.0,0.0,0.0,0.0004,0.0,0.0,0.0,0.0004
2025/05/07 10:40:51.448337360,1746607251,447861668,mti/imu_base_body,0.9947675220686081,-0.10123127717716618,0.01377359021011526,-0.00030622097404315197,0.017453292519943295,0.0,0.0,0.0,0.017453292519943295,0.0,0.0,0.0,0.15707963267948966,0.01766364835202694,-0.003027375089004636,-0.0139339379966259,0.0004363323129985824,0.0,0.0,0.0,0.0004363323129985824,0.0,0.0,0.0,0.0004363323129985824,-0.25973811745643616,-0.14317628741264343,9.785541534423828,0.0004,0.0,0.0,0.0,0.0004,0.0,0.0,0.0,0.0004
2025/05/07 10:40:51.498307084,1746607251,497936532,mti/imu_base_body,0.9947742601785416,-0.1011715590100784,0.0137259596641435,-0.00029148757021437485,0.017453292519943295,0.0,0.0,0.0,0.017453292519943295,0.0,0.0,0.0,0.15707963267948966,0.0010435717413201928,-0.006129217334091663,-0.0013444534270092845,0.0004363323129985824,0.0,0.0,0.0,0.0004363323129985824,0.0,0.0,0.0,0.0004363323129985824,-0.23113130033016205,-0.14775602519512177,9.788145065307617,0.0004,0.0,0.0,0.0,0.0004,0.0,0.0,0.0,0.0004
2025/05/07 10:40:51.548769026,1746607251,548364704,mti/imu_base_body,0.9947761221237108,-0.10116173068382645,0.013663960826647593,-0.0002593686427294021,0.017453292519943295,0.0,0.0,0.0,0.017453292519943295,0.0,0.0,0.0,0.15707963267948966,0.002097077900543809,-0.008756978437304497,0.0030502057634294033,0.0004363323129985824,0.0,0.0,0.0,0.0004363323129985824,0.0,0.0,0.0,0.0004363323129985824,-0.24276329576969147,-0.1561627835035324,9.760673522949219,0.0004,0.0,0.0,0.0,0.0004,0.0,0.0,0.0,0.0004
2025/05/07 10:40:51.598074661,1746607251,597732206,mti/imu_base_body,0.9947739586024223,-0.10118227199537644,0.0136698763560087,-0.00023151831751131325,0.017453292519943295,0.0,0.0,0.0,0.017453292519943295,0.0,0.0,0.0,0.15707963267948966,0.004188302904367447,0.007397806737571955,0.006370858289301395,0.0004363323129985824,0.0,0.0,0.0,0.0004363323129985824,0.0,0.0,0.0,0.0004363323129985824,-0.24720516800880432,-0.16016307473182678,9.77206802368164,0.0004,0.0,0.0,0.0,0.0004,0.0,0.0,0.0,0.0004
2025/05/07 10:40:51.648236683,1746607251,647864068,mti/imu_base_body,0.9949306195069321,-0.09971444707551141,0.01294110067307121,0.0016184329911782033,0.017453292519943295,0.0,0.0,0.0,0.017453292519943295,0.0,0.0,0.0,0.15707963267948966,-0.012139162048697472,-0.0027753144968301058,-0.010129321366548538,0.0004363323129985824,0.0,0.0,0.0,0.0004363323129985824,0.0,0.0,0.0,0.0004363323129985824,-0.24718287587165833,-0.14267390966415405,9.791877746582031,0.0004,0.0,0.0,0.0,0.0004,0.0,0.0,0.0,0.0004
2025/05/07 10:40:51.698295507,1746607251,697917281,mti/imu_base_body,0.994930577073474,-0.09971404563489655,0.01293562232215232,0.001710433425883934,0.017453292519943295,0.0,0.0,0.0,0.017453292519943295,0.0,0.0,0.0,0.15707963267948966,-0.0037091311533004045,0.000689798966050148,0.006156063638627529,0.0004363323129985824,0.0,0.0,0.0,0.0004363323129985824,0.0,0.0,0.0,0.0004363323129985824,-0.25776025652885437,-0.1451961100101471,9.777716636657715,0.0004,0.0,0.0,0.0,0.0004,0.0,0.0,0.0,0.0004
2025/05/07 10:40:51.748259968,1746607251,747913071,mti/imu_base_body,0.9949350494933771,-0.09967313169178066,0.012898481421208835,0.0017729312989631669,0.017453292519943295,0.0,0.0,0.0,0.017453292519943295,0.0,0.0,0.0,0.15707963267948966,-0.0035565479192882776,-0.0013019153848290443,-0.005401293281465769,0.0004363323129985824,0.0,0.0,0.0,0.0004363323129985824,0.0,0.0,0.0,0.0004363323129985824,-0.23807543516159058,-0.14064829051494598,9.803508758544922,0.0004,0.0,0.0,0.0,0.0004,0.0,0.0,0.0,0.0004
2025/05/07 10:40:51.798152147,1746607251,797771024,mti/imu_base_body,0.994944377991834,-0.09958145396732931,0.012875265717962854,0.001856410753891282,0.017453292519943295,0.0,0.0,0.0,0.017453292519943295,0.0,0.0,0.0,0.15707963267948966,-0.008999599143862724,0.0013354809489101171,-0.010991434566676617,0.0004363323129985824,0.0,0.0,0.0,0.0004363323129985824,0.0,0.0,0.0,0.0004363323129985824,-0.24875672161579132,-0.13787095248699188,9.803509712219238,0.0004,0.0,0.0,0.0,0.0004,0.0,0.0,0.0,0.0004
2025/05/07 10:40:51.848113291,1746607251,847769567,mti/imu_base_body,0.9949449055212286,-0.0995808815457232,0.012829687322402278,0.0019188879955789502,0.017453292519943295,0.0,0.0,0.0,0.017453292519943295,0.0,0.0,0.0,0.15707963267948966,-0.0016850889660418034,-0.005837709177285433,0.005430114455521107,0.0004363323129985824,0.0,0.0,0.0,0.0004363323129985824,0.0,0.0,0.0,0.0004363323129985824,-0.23649637401103973,-0.14722266793251038,9.775300979614258,0.0004,0.0,0.0,0.0,0.0004,0.0,0.0,0.0,0.0004
2025/05/07 10:40:51.898340000,1746607251,897937805,mti/imu_base_body,0.9949467409864512,-0.09956918934749437,0.012765451551668057,0.0020005948626038925,0.017453292519943295,0.0,0.0,0.0,0.017453292519943295,0.0,0.0,0.0,0.15707963267948966,-0.008987431414425373,-0.008541489019989967,0.001163429580628872,0.0004363323129985824,0.0,0.0,0.0,0.0004363323129985824,0.0,0.0,0.0,0.0004363323129985824,-0.2526499927043915,-0.13880178332328796,9.786845207214355,0.0004,0.0,0.0,0.0,0.0004,0.0,0.0,0.0,0.0004
2025/05/07 10:40:51.948322034,1746607251,947923642,mti/imu_base_body,0.9949539902230864,-0.09949888803513973,0.012734514013942433,0.002088246096136806,0.017453292519943295,0.0,0.0,0.0,0.017453292519943295,0.0,0.0,0.0,0.15707963267948966,-0.007674181833863258,0.002790840109810233,-0.004400270059704781,0.0004363323129985824,0.0,0.0,0.0,0.0004363323129985824,0.0,0.0,0.0,0.0004363323129985824,-0.2522636353969574,-0.13593943417072296,9.801475524902344,0.0004,0.0,0.0,0.0,0.0004,0.0,0.0,0.0,0.0004
2025/05/07 10:40:51.998770043,1746607251,998029319,mti/imu_base_body,0.9949559182862513,-0.09947575318332352,0.012756532663651711,0.0021368364874931513,0.017453292519943295,0.0,0.0,0.0,0.017453292519943295,0.0,0.0,0.0,0.15707963267948966,0.001186807407066226,0.007894247770309448,-3.033501525351312e-05,0.0004363323129985824,0.0,0.0,0.0,0.0004363323129985824,0.0,0.0,0.0,0.0004363323129985824,-0.24974694848060608,-0.14649388194084167,9.799310684204102,0.0004,0.0,0.0,0.0,0.0004,0.0,0.0,0.0,0.0004
2025/05/07 10:40:52.48189895,1746607252,47742458,mti/imu_base_body,0.995106974673603,-0.09796273735830985,0.01220698648169146,0.004049756320038923,0.017453292519943295,0.0,0.0,0.0,0.017453292519943295,0.0,0.0,0.0,0.15707963267948966,0.005249371752142906,0.0020601488649845123,-0.006522555369883776,0.0004363323129985824,0.0,0.0,0.0,0.0004363323129985824,0.0,0.0,0.0,0.0004363323129985824,-0.25633081793785095,-0.1349400281906128,9.823088645935059,0.0004,0.0,0.0,0.0,0.0004,0.0,0.0,0.0,0.0004
2025/05/07 10:40:52.98371907,1746607252,97909243,mti/imu_base_body,0.9951101441438914,-0.09793439914236712,0.012166119229680927,0.0040792192189594454,0.017453292519943295,0.0,0.0,0.0,0.017453292519943295,0.0,0.0,0.0,0.15707963267948966,0.005499633494764566,0.0012413624208420515,-0.0015002958243712783,0.0004363323129985824,0.0,0.0,0.0,0.0004363323129985824,0.0,0.0,0.0,0.0004363323129985824,-0.25414255261421204,-0.15373998880386353,9.816018104553223,0.0004,0.0,0.0,0.0,0.0004,0.0,0.0,0.0,0.0004
2025/05/07 10:40:52.150076208,1746607252,148835321,mti/imu_base_body,0.9951142678550647,-0.09788938901807465,0.012190350427338386,0.004081272522780707,0.017453292519943295,0.0,0.0,0.0,0.017453292519943295,0.0,0.0,0.0,0.15707963267948966,0.0056051225401461124,0.0013425091747194529,-0.00693169143050909,0.0004363323129985824,0.0,0.0,0.0,0.0004363323129985824,0.0,0.0,0.0,0.0004363323129985824,-0.24607472121715546,-0.15484432876110077,9.82620906829834,0.0004,0.0,0.0,0.0,0.0004,0.0,0.0,0.0,0.0004
2025/05/07 10:40:52.198288933,1746607252,197882477,mti/imu_base_body,0.9951217617779102,-0.09781747751394781,0.012126612325760209,0.004167205578966244,0.017453292519943295,0.0,0.0,0.0,0.017453292519943295,0.0,0.0,0.0,0.15707963267948966,-0.006586194504052401,-0.005462855100631714,-0.007233467418700457,0.0004363323129985824,0.0,0.0,0.0,0.0004363323129985824,0.0,0.0,0.0,0.0004363323129985824,-0.25535836815834045,-0.14968958497047424,9.830653190612793,0.0004,0.0,0.0,0.0,0.0004,0.0,0.0,0.0,0.0004
2025/05/07 10:40:52.248737772,1746607252,247739789,mti/imu_base_body,0.9951249563275726,-0.09778493467843702,0.0121121963736315,0.004209815077539943,0.017453292519943295,0.0,0.0,0.0,0.017453292519943295,0.0,0.0,0.0,0.15707963267948966,-0.0003926412027794868,0.005570051725953817,-0.004004313610494137,0.0004363323129985824,0.0,0.0,0.0,0.0004363323129985824,0.0,0.0,0.0,0.0004363323129985824,-0.26448971033096313,-0.14885245263576508,9.822500228881836,0.0004,0.0,0.0,0.0,0.0004,0.0,0.0,0.0,0.0004
2025/05/07 10:40:52.298232206,1746607252,297792660,mti/imu_base_body,0.9951297931668396,-0.09773576399557193,0.012085025530911033,0.004285714157774766,0.017453292519943295,0.0,0.0,0.0,0.017453292519943295,0.0,0.0,0.0,0.15707963267948966,-0.004180564545094967,-0.003987166564911604,-0.0032916669733822346,0.0004363323129985824,0.0,0.0,0.0,0.0004363323129985824,0.0,0.0,0.0,0.0004363323129985824,-0.2520691752433777,-0.1504172682762146,9.826215744018555,0.0004,0.0,0.0,0.0,0.0004,0.0,0.0,0.0,0.0004
2025/05/07 10:40:52.348628288,1746607252,348077988,mti/imu_base_body,0.9951373434748634,-0.09765803307090537,0.012064798325639173,0.004360830181876992,0.017453292519943295,0.0,0.0,0.0,0.017453292519943295,0.0,0.0,0.0,0.15707963267948966,-0.002087242901325226,-0.0005463366978801787,-0.013383434154093266,0.0004363323129985824,0.0,0.0,0.0,0.0004363323129985824,0.0,0.0,0.0,0.0004363323129985824,-0.255107581615448,-0.1438223123550415,9.828368186950684,0.0004,0.0,0.0,0.0,0.0004,0.0,0.0,0.0,0.0004
2025/05/07 10:40:52.401271590,1746607252,399397347,mti/imu_base_body,0.9951418521468893,-0.09761243280983889,0.01204231390511698,0.004414718837482012,0.017453292519943295,0.0,0.0,0.0,0.017453292519943295,0.0,0.0,0.0,0.15707963267948966,-0.0008851310703903437,0.004998221527785063,-0.0012044098693877459,0.0004363323129985824,0.0,0.0,0.0,0.0004363323129985824,0.0,0.0,0.0,0.0004363323129985824,-0.26603028178215027,-0.13393671810626984,9.827777862548828,0.0004,0.0,0.0,0.0,0.0004,0.0,0.0,0.0,0.0004
2025/05/07 10:40:52.450128087,1746607252,448675013,mti/imu_base_body,0.9952757216864521,-0.09626494854528184,0.011656010648358302,0.004840962595565511,0.017453292519943295,0.0,0.0,0.0,0.017453292519943295,0.0,0.0,0.0,0.15707963267948966,0.011827455833554268,0.0022040652111172676,0.0006548914243467152,0.0004363323129985824,0.0,0.0,0.0,0.0004363323129985824,0.0,0.0,0.0,0.0004363323129985824,-0.10833179205656052,-0.17702610790729523,9.803385734558105,0.0004,0.0,0.0,0.0,0.0004,0.0,0.0,0.0,0.0004
2025/05/07 10:40:52.500302829,1746607252,498766660,mti/imu_base_body,0.9952798948035166,-0.09622890763695541,0.011603841159222614,0.004824852873474522,0.017453292519943295,0.0,0.0,0.0,0.017453292519943295,0.0,0.0,0.0,0.15707963267948966,0.015252446755766869,-0.009865754283964634,-0.002335601020604372,0.0004363323129985824,0.0,0.0,0.0,0.0004363323129985824,0.0,0.0,0.0,0.0004363323129985824,-0.09721194207668304,-0.17527541518211365,9.819825172424316,0.0004,0.0,0.0,0.0,0.0004,0.0,0.0,0.0,0.0004
2025/05/07 10:40:52.548349071,1746607252,547938383,mti/imu_base_body,0.9952817544382687,-0.09622144742651673,0.011519534392091342,0.004791937480508683,0.017453292519943295,0.0,0.0,0.0,0.017453292519943295,0.0,0.0,0.0,0.15707963267948966,0.014135298319160938,-0.011515991762280464,0.003764632623642683,0.0004363323129985824,0.0,0.0,0.0,0.0004363323129985824,0.0,0.0,0.0,0.0004363323129985824,-0.11487661302089691,-0.15397672355175018,9.830050468444824,0.0004,0.0,0.0,0.0,0.0004,0.0,0.0,0.0,0.0004
2025/05/07 10:40:52.598572541,1746607252,598017746,mti/imu_base_body,0.9952835168821583,-0.09620761410753159,0.011475280539366632,0.004809776186209701,0.017453292519943295,0.0,0.0,0.0,0.017453292519943295,0.0,0.0,0.0,0.15707963267948966,0.00474858283996582,-0.00279407505877316,0.00395580567419529,0.0004363323129985824,0.0,0.0,0.0,0.0004363323129985824,0.0,0.0,0.0,0.0004363323129985824,-0.12303896993398666,-0.1751251518726349,9.820688247680664,0.0004,0.0,0.0,0.0,0.0004,0.0,0.0,0.0,0.0004
2025/05/07 10:40:52.648343803,1746607252,647924168,mti/imu_base_body,0.9952872546308165,-0.09617310435445758,0.011443096153976796,0.004803157158551644,0.017453292519943295,0.0,0.0,0.0,0.017453292519943295,0.0,0.0,0.0,0.15707963267948966,0.014273418113589287,-0.003552400041371584,-0.0033991041127592325,0.0004363323129985824,0.0,0.0,0.0,0.0004363323129985824,0.0,0.0,0.0,0.0004363323129985824,-0.12350717931985855,-0.16005049645900726,9.824771881103516,0.0004,0.0,0.0,0.0,0.0004,0.0,0.0,0.0,0.0004
2025/05/07 10:40:52.698313827,1746607252,697942364,mti/imu_base_body,0.9952917110460615,-0.09613440035374626,0.011397774072980104,0.004762114846351157,0.017453292519943295,0.0,0.0,0.0,0.017453292519943295,0.0,0.0,0.0,0.15707963267948966,0.018623456358909607,-0.002985389670357108,0.001162780448794365,0.0004363323129985824,0.0,0.0,0.0,0.0004363323129985824,0.0,0.0,0.0,0.0004363323129985824,-0.13141807913780212,-0.14944851398468018,9.806544303894043,0.0004,0.0,0.0,0.0,0.0004,0.0,0.0,0.0,0.0004
2025/05/07 10:40:52.748386902,1746607252,747994221,mti/imu_base_body,0.9952922871167147,-0.09613258337067582,0.011387035454059894,0.004703726610577766,0.017453292519943295,0.0,0.0,0.0,0.017453292519943295,0.0,0.0,0.0,0.15707963267948966,0.022463476285338402,-0.003597208298742771,-0.0008598356507718563,0.0004363323129985824,0.0,0.0,0.0,0.0004363323129985824,0.0,0.0,0.0,0.0004363323129985824,-0.12011837959289551,-0.1572018712759018,9.868950843811035,0.0004,0.0,0.0,0.0,0.0004,0.0,0.0,0.0,0.0004
2025/05/07 10:40:52.798312251,1746607252,797880572,mti/imu_base_body,0.9952987892636723,-0.09607226078059494,0.011350614813949658,0.004648047129558448,0.017453292519943295,0.0,0.0,0.0,0.017453292519943295,0.0,0.0,0.0,0.15707963267948966,0.01880474016070366,-0.0018416416132822633,-0.003655598033219576,0.0004363323129985824,0.0,0.0,0.0,0.0004363323129985824,0.0,0.0,0.0,0.0004363323129985824,-0.10594578832387924,-0.1812880039215088,9.821996688842773,0.0004,0.0,0.0,0.0,0.0004,0.0,0.0,0.0,0.0004
2025/05/07 10:40:52.849164595,1746607252,848101119,mti/imu_base_body,0.9954442002771736,-0.09479968904251213,0.009608971131774134,0.003395698127023328,0.017453292519943295,0.0,0.0,0.0,0.017453292519943295,0.0,0.0,0.0,0.15707963267948966,0.02810744382441044,-0.007409869227558374,-0.005797254852950573,0.0004363323129985824,0.0,0.0,0.0,0.0004363323129985824,0.0,0.0,0.0,0.0004363323129985824,-0.16863583028316498,-0.17203061282634735,9.78342342376709,0.0004,0.0,0.0,0.0,0.0004,0.0,0.0,0.0,0.0004
2025/05/07 10:40:52.898123104,1746607252,897761300,mti/imu_base_body,0.9954467979339766,-0.09478135516152031,0.009539787482859639,0.0033406064599565675,0.017453292519943295,0.0,0.0,0.0,0.017453292519943295,0.0,0.0,0.0,0.15707963267948966,0.016346585005521774,-0.011053859256207943,0.0037635182961821556,0.0004363323129985824,0.0,0.0,0.0,0.0004363323129985824,0.0,0.0,0.0,0.0004363323129985824,-0.1582069844007492,-0.16637536883354187,9.880751609802246,0.0004,0.0,0.0,0.0,0.0004,0.0,0.0,0.0,0.0004
2025/05/07 10:40:52.949047227,1746607252,948585140,mti/imu_base_body,0.9954511638740504,-0.0947425423294066,0.00949425878583746,0.003269566464620431,0.017453292519943295,0.0,0.0,0.0,0.017453292519943295,0.0,0.0,0.0,0.15707963267948966,0.022219138219952583,-0.0021005687303841114,-0.005456875078380108,0.0004363323129985824,0.0,0.0,0.0,0.0004363323129985824,0.0,0.0,0.0,0.0004363323129985824,-0.1374834030866623,-0.1745898425579071,9.91134262084961,0.0004,0.0,0.0,0.0,0.0004,0.0,0.0,0.0,0.0004
2025/05/07 10:40:52.998267772,1746607252,997752558,mti/imu_base_body,0.995457266346069,-0.09468431783523723,0.00945240068309163,0.003219154580498777,0.017453292519943295,0.0,0.0,0.0,0.017453292519943295,0.0,0.0,0.0,0.15707963267948966,0.018142567947506905,-0.00865648128092289,-0.00655709533020854,0.0004363323129985824,0.0,0.0,0.0,0.0004363323129985824,0.0,0.0,0.0,0.0004363323129985824,-0.16444702446460724,-0.15639573335647583,9.859761238098145,0.0004,0.0,0.0,0.0,0.0004,0.0,0.0,0.0,0.0004
2025/05/07 10:40:53.48174309,1746607253,47786554,mti/imu_base_body,0.9954627203847981,-0.09463246465971248,0.00941409278146263,0.0031691976314830094,0.017453292519943295,0.0,0.0,0.0,0.017453292519943295,0.0,0.0,0.0,0.15707963267948966,0.02226974442601204,-0.004914992488920689,0.0007635948131792247,0.0004363323129985824,0.0,0.0,0.0,0.0004363323129985824,0.0,0.0,0.0,0.0004363323129985824,-0.1871872991323471,-0.16039720177650452,9.784046173095703,0.0004,0.0,0.0,0.0,0.0004,0.0,0.0,0.0,0.0004
2025/05/07 10:40:53.98107193,1746607253,97763646,mti/imu_base_body,0.995463920507433,-0.0946255998510731,0.009382615619978808,0.00308955416250701,0.017453292519943295,0.0,0.0,0.0,0.017453292519943295,0.0,0.0,0.0,0.15707963267948966,0.02647893875837326,-0.003544158535078168,0.0011414531618356705,0.0004363323129985824,0.0,0.0,0.0,0.0004363323129985824,0.0,0.0,0.0,0.0004363323129985824,-0.16437721252441406,-0.13752597570419312,9.886884689331055,0.0004,0.0,0.0,0.0,0.0004,0.0,0.0,0.0,0.0004
2025/05/07 10:40:53.148248247,1746607253,147822240,mti/imu_base_body,0.9954667548517904,-0.09459743240498991,0.009382021724655049,0.003040301890750699,0.017453292519943295,0.0,0.0,0.0,0.017453292519943295,0.0,0.0,0.0,0.15707963267948966,0.018867814913392067,0.006029851734638214,0.00274608563631773,0.0004363323129985824,0.0,0.0,0.0,0.0004363323129985824,0.0,0.0,0.0,0.0004363323129985824,-0.1469399333000183,-0.1603700965642929,9.909666061401367,0.0004,0.0,0.0,0.0,0.0004,0.0,0.0,0.0,0.0004
2025/05/07 10:40:53.198927555,1746607253,198091126,mti/imu_base_body,0.9954703909966935,-0.09456167120039422,0.009376044597165008,0.0029800631520657387,0.017453292519943295,0.0,0.0,0.0,0.017453292519943295,0.0,0.0,0.0,0.15707963267948966,0.022555958479642868,-0.0023165454622358084,-0.006807972677052021,0.0004363323129985824,0.0,0.0,0.0,0.0004363323129985824,0.0,0.0,0.0,0.0004363323129985824,-0.1573721170425415,-0.1534544676542282,9.847386360168457,0.0004,0.0,0.0,0.0,0.0004,0.0,0.0,0.0,0.0004
2025/05/07 10:40:53.248240788,1746607253,247812502,mti/imu_base_body,0.9956259133128222,-0.092985671921054,0.008920661151491628,0.00176843490653942,0.017453292519943295,0.0,0.0,0.0,0.017453292519943295,0.0,0.0,0.0,0.15707963267948966,0.013843230903148651,0.0024085333570837975,-0.0036030446644872427,0.0004363323129985824,0.0,0.0,0.0,0.0004363323129985824,0.0,0.0,0.0,0.0004363323129985824,-0.1412719190120697,-0.15564750134944916,9.825272560119629,0.0004,0.0,0.0,0.0,0.0004,0.0,0.0,0.0,0.0004
2025/05/07 10:40:53.298082780,1746607253,297731811,mti/imu_base_body,0.9956337544188767,-0.09290169771832951,0.008923209186969913,0.0017544117616895383,0.017453292519943295,0.0,0.0,0.0,0.017453292519943295,0.0,0.0,0.0,0.15707963267948966,0.015343999490141869,0.008162853308022022,-0.009885534644126892,0.0004363323129985824,0.0,0.0,0.0,0.0004363323129985824,0.0,0.0,0.0,0.0004363323129985824,-0.14782367646694183,-0.16379742324352264,9.891297340393066,0.0004,0.0,0.0,0.0,0.0004,0.0,0.0,0.0,0.0004
2025/05/07 10:40:53.348122421,1746607253,347790281,mti/imu_base_body,0.9956386149066514,-0.09284598378899528,0.008965105221974258,0.0017316724220072799,0.017453292519943295,0.0,0.0,0.0,0.017453292519943295,0.0,0.0,0.0,0.15707963267948966,0.017820721492171288,0.009264243766665459,-0.0030156136490404606,0.0004363323129985824,0.0,0.0,0.0,0.0004363323129985824,0.0,0.0,0.0,0.0004363323129985824,-0.1536060869693756,-0.1616397351026535,9.844369888305664,0.0004,0.0,0.0,0.0,0.0004,0.0,0.0,0.0,0.0004
2025/05/07 10:40:53.398108261,1746607253,397759579,mti/imu_base_body,0.9956393004902293,-0.0928377881375777,0.008989650389723491,0.0016476039935884672,0.017453292519943295,0.0,0.0,0.0,0.017453292519943295,0.0,0.0,0.0,0.15707963267948966,0.027615603059530258,0.007862460799515247,0.0004208741011098027,0.0004363323129985824,0.0,0.0,0.0,0.0004363323129985824,0.0,0.0,0.0,0.0004363323129985824,-0.14708293974399567,-0.15035374462604523,9.832967758178711,0.0004,0.0,0.0,0.0,0.0004,0.0,0.0,0.0,0.0004
2025/05/07 10:40:53.448174740,1746607253,447772835,mti/imu_base_body,0.9956430787460002,-0.09279619094165431,0.009001230315177453,0.0016445500049694635,0.017453292519943295,0.0,0.0,0.0,0.017453292519943295,0.0,0.0,0.0,0.15707963267948966,0.012076198123395443,0.0046806917525827885,0.0027737426571547985,0.0004363323129985824,0.0,0.0,0.0,0.0004363323129985824,0.0,0.0,0.0,0.0004363323129985824,-0.15138018131256104,-0.15149880945682526,9.840044021606445,0.0004,0.0,0.0,0.0,0.0004,0.0,0.0,0.0,0.0004
