time,header_stamp_secs,header_stamp_nsecs,header_frame_id,orientation_x,orientation_y,orientation_z,orientation_w,orientation_covariance_0,orientation_covariance_1,orientation_covariance_2,orientation_covariance_3,orientation_covariance_4,orientation_covariance_5,orientation_covariance_6,orientation_covariance_7,orientation_covariance_8,angular_velocity_x,angular_velocity_y,angular_velocity_z,angular_velocity_covariance_0,angular_velocity_covariance_1,angular_velocity_covariance_2,angular_velocity_covariance_3,angular_velocity_covariance_4,angular_velocity_covariance_5,angular_velocity_covariance_6,angular_velocity_covariance_7,angular_velocity_covariance_8,linear_acceleration_x,linear_acceleration_y,linear_acceleration_z,linear_acceleration_covariance_0,linear_acceleration_covariance_1,linear_acceleration_covariance_2,linear_acceleration_covariance_3,linear_acceleration_covariance_4,linear_acceleration_covariance_5,linear_acceleration_covariance_6,linear_acceleration_covariance_7,linear_acceleration_covariance_8
2025/04/09 08:48:15.805752048,1744181295,799157755,mA1/imu,0.7113131885381094,0.702874634303361,0.0003526993189189945,0.0008196754570036326,0.0,0.0,0.0,0.0,0.0,0.0,0.0,0.0,0.0,-0.000911678606577295,0.0020388570213113574,0.0002464062850194796,0.0,0.0,0.0,0.0,0.0,0.0,0.0,0.0,0.0,0.009723459267854638,-0.08987968466764706,9.808844289849326,0.0,0.0,0.0,0.0,0.0,0.0,0.0,0.0,0.0
2025/04/09 08:48:15.854781533,1744181295,850298727,mA1/imu,0.7113174914102977,0.7028703070039352,0.0003820278683154066,0.0007823047124530182,0.0,0.0,0.0,0.0,0.0,0.0,0.0,0.0,0.0,-0.0009173021812677399,0.0017760087486065478,0.0002449017204752779,0.0,0.0,0.0,0.0,0.0,0.0,0.0,0.0,0.0,0.009150596141805793,-0.08989100355190055,9.809555084568117,0.0,0.0,0.0,0.0,0.0,0.0,0.0,0.0,0.0
2025/04/09 08:48:15.899193854,1744181295,898398911,mA1/imu,0.71132177256215,0.702866006321457,0.0003988786579464872,0.0007442664729171658,0.0,0.0,0.0,0.0,0.0,0.0,0.0,0.0,0.0,0.0005043776791918298,0.0013990764055793687,0.00024310770714812432,0.0,0.0,0.0,0.0,0.0,0.0,0.0,0.0,0.0,0.009542010551542194,0.0040960187601614614,9.809522389794997,0.0,0.0,0.0,0.0,0.0,0.0,0.0,0.0,0.0
2025/04/09 08:48:15.953615825,1744181295,951926407,mA1/imu,0.7113270099661612,0.7028607242399156,0.0004121275850499415,0.0007192804708939934,0.0,0.0,0.0,0.0,0.0,0.0,0.0,0.0,0.0,0.00045689062987684133,0.0008729359003547687,0.00035099293257382123,0.0,0.0,0.0,0.0,0.0,0.0,0.0,0.0,0.0,0.011462465573813311,0.6291817784425623,9.811654050049867,0.0,0.0,0.0,0.0,0.0,0.0,0.0,0.0,0.0
2025/04/09 08:48:16.6236942,1744181296,3549229,mA1/imu,0.7113330556297234,0.7028546115617297,0.00042054396479139,0.0007086026139126298,0.0,0.0,0.0,0.0,0.0,0.0,0.0,0.0,0.0,0.0006644307144578187,0.00031305463214989737,0.0003400380894263476,0.0,0.0,0.0,0.0,0.0,0.0,0.0,0.0,0.0,0.011242969032926525,0.011609061186446563,9.81078812905627,0.0,0.0,0.0,0.0,0.0,0.0,0.0,0.0,0.0
2025/04/09 08:48:16.58694268,1744181296,54926645,mA1/imu,0.7113393797450139,0.7028482126423592,0.0004178804365953638,0.000708650379652143,0.0,0.0,0.0,0.0,0.0,0.0,0.0,0.0,0.0,0.0008898981972858161,-0.00037577237403114044,0.0003842759245046996,0.0,0.0,0.0,0.0,0.0,0.0,0.0,0.0,0.0,0.016430612250070004,-0.6004536846171984,9.80936255331707,0.0,0.0,0.0,0.0,0.0,0.0,0.0,0.0,0.0
2025/04/09 08:48:16.101605536,1744181296,98747730,mA1/imu,0.7113472459045894,0.7028402567850537,0.0003992135806026606,0.0007140131596636734,0.0,0.0,0.0,0.0,0.0,0.0,0.0,0.0,0.0,0.0008577114563745314,-0.000894168093446718,0.00046909148430109124,0.0,0.0,0.0,0.0,0.0,0.0,0.0,0.0,0.0,0.011628863673802604,-0.6084499144384065,9.809939641436474,0.0,0.0,0.0,0.0,0.0,0.0,0.0,0.0,0.0
2025/04/09 08:48:16.149480013,1744181296,148712635,mA1/imu,0.7113553549443045,0.7028320491881836,0.00037224375536602924,0.0007287390395219451,0.0,0.0,0.0,0.0,0.0,0.0,0.0,0.0,0.0,-0.0009550891320771976,-0.0013531481987397714,0.0004546232255998118,0.0,0.0,0.0,0.0,0.0,0.0,0.0,0.0,0.0,0.011404094659450569,0.527097316847624,9.812237141016393,0.0,0.0,0.0,0.0,0.0,0.0,0.0,0.0,0.0
2025/04/09 08:48:16.208864418,1744181296,201370199,mA1/imu,0.7113632253472087,0.7028240774254374,0.0003379165910203804,0.0007507510085129584,0.0,0.0,0.0,0.0,0.0,0.0,0.0,0.0,0.0,-0.0010757258785433475,-0.0017270709396452358,0.0004413441796907175,0.0,0.0,0.0,0.0,0.0,0.0,0.0,0.0,0.0,0.010540136200753336,0.521857014669848,9.812061482393705,0.0,0.0,0.0,0.0,0.0,0.0,0.0,0.0,0.0
2025/04/09 08:48:16.255359726,1744181296,250836891,mA1/imu,0.7113704834875229,0.702816719385676,0.00030022116402443,0.0007772013487341061,0.0,0.0,0.0,0.0,0.0,0.0,0.0,0.0,0.0,0.0004747085190055144,-0.0018387479558514023,0.0003845710956513064,0.0,0.0,0.0,0.0,0.0,0.0,0.0,0.0,0.0,0.004248431040259551,0.0034121312704826767,9.812211939962129,0.0,0.0,0.0,0.0,0.0,0.0,0.0,0.0,0.0
2025/04/09 08:48:16.317202211,1744181296,308202848,mA1/imu,0.7113757685571023,0.7028113513498873,0.00026299255546318275,0.0008069438971366414,0.0,0.0,0.0,0.0,0.0,0.0,0.0,0.0,0.0,0.002029001057162224,-0.0019286156822172816,0.0002403451307526971,0.0,0.0,0.0,0.0,0.0,0.0,0.0,0.0,0.0,0.006019146269118344,-0.5096243231111253,9.810754170154846,0.0,0.0,0.0,0.0,0.0,0.0,0.0,0.0,0.0
2025/04/09 08:48:16.353584390,1744181296,349374529,mA1/imu,0.7113793858958714,0.7028076560258921,0.00023349560406139402,0.0008446499910427137,0.0,0.0,0.0,0.0,0.0,0.0,0.0,0.0,0.0,0.00043180652654799343,-0.0018818068868436634,0.00020218394632079293,0.0,0.0,0.0,0.0,0.0,0.0,0.0,0.0,0.0,0.007231364261703998,0.013336070800483836,9.81083499814026,0.0,0.0,0.0,0.0,0.0,0.0,0.0,0.0,0.0
2025/04/09 08:48:16.741448914,1744181296,403088440,mA1/imu,0.711382944772413,0.7028040164562913,0.00020740316519410893,0.0008816596633184545,0.0,0.0,0.0,0.0,0.0,0.0,0.0,0.0,0.0,-0.0011364964330256068,-0.0017129301341333772,0.00020249217540183,0.0,0.0,0.0,0.0,0.0,0.0,0.0,0.0,0.0,0.006651035862158225,-0.08957803671695776,9.810860998155318,0.0,0.0,0.0,0.0,0.0,0.0,0.0,0.0,0.0
2025/04/09 08:48:16.742572243,1744181296,452689349,mA1/imu,0.7113865148855412,0.7028003739897712,0.00018033054218129208,0.0009100767752680017,0.0,0.0,0.0,0.0,0.0,0.0,0.0,0.0,0.0,-0.001242197108026551,-0.0014529585391910497,0.00020301569608496955,0.0,0.0,0.0,0.0,0.0,0.0,0.0,0.0,0.0,0.005853918409185272,-0.09001136084621486,9.811022057432327,0.0,0.0,0.0,0.0,0.0,0.0,0.0,0.0,0.0
2025/04/09 08:48:16.768681891,1744181296,503654144,mA1/imu,0.7113900966593805,0.7027967310292521,0.0001537066621389687,0.0009282261667038392,0.0,0.0,0.0,0.0,0.0,0.0,0.0,0.0,0.0,9.580335306926269e-05,-0.0011233056825884218,0.00020357426404888916,0.0,0.0,0.0,0.0,0.0,0.0,0.0,0.0,0.0,0.005626106573044312,0.0038763953978005142,9.810106584661794,0.0,0.0,0.0,0.0,0.0,0.0,0.0,0.0,0.0
2025/04/09 08:48:16.768767272,1744181296,553507706,mA1/imu,0.7113936806210728,0.7027930823369497,0.00013971990399043444,0.0009460814345261699,0.0,0.0,0.0,0.0,0.0,0.0,0.0,0.0,0.0,-3.2896704775840306e-05,-0.0007392175340695421,0.00020435187476106133,0.0,0.0,0.0,0.0,0.0,0.0,0.0,0.0,0.0,0.00608292928203578,0.6249946323052505,9.811600154157876,0.0,0.0,0.0,0.0,0.0,0.0,0.0,0.0,0.0
2025/04/09 08:48:16.773090753,1744181296,604503043,mA1/imu,0.7113972690523447,0.7027894275825929,0.00013891595690069186,0.0009626865295839831,0.0,0.0,0.0,0.0,0.0,0.0,0.0,0.0,0.0,0.0001325160640965774,-0.000323890573682803,0.00020505900591171846,0.0,0.0,0.0,0.0,0.0,0.0,0.0,0.0,0.0,0.0056533266955116615,0.011624334147949673,9.809802355264148,0.0,0.0,0.0,0.0,0.0,0.0,0.0,0.0,0.0
2025/04/09 08:48:16.781060213,1744181296,654302848,mA1/imu,0.7114001180374109,0.7027865283604566,0.00014625724548353504,0.0009727385225421525,0.0,0.0,0.0,0.0,0.0,0.0,0.0,0.0,0.0,0.0002981431947911429,3.7698694195927756e-05,0.00011656116434376613,0.0,0.0,0.0,0.0,0.0,0.0,0.0,0.0,0.0,0.010379496659382523,-0.6073394721078756,9.807156437048919,0.0,0.0,0.0,0.0,0.0,0.0,0.0,0.0,0.0
2025/04/09 08:48:16.781207157,1744181296,705236693,mA1/imu,0.7114008562808878,0.7027857789911812,0.00015489704934416014,0.0009729015789036396,0.0,0.0,0.0,0.0,0.0,0.0,0.0,0.0,0.0,0.00022121568055182158,0.0002747284074958018,-4.8565833322047285e-05,0.0,0.0,0.0,0.0,0.0,0.0,0.0,0.0,0.0,0.02693061022816772,-0.610001250979795,9.805850408668078,0.0,0.0,0.0,0.0,0.0,0.0,0.0,0.0,0.0
2025/04/09 08:48:16.787808276,1744181296,749878202,mA1/imu,0.711391851600701,0.7027948834827452,0.00015689472187758498,0.0009801074671065494,0.0,0.0,0.0,0.0,0.0,0.0,0.0,0.0,0.0,-0.0015170266926004998,-0.00038552124837911203,-0.0008147119803671963,0.0,0.0,0.0,0.0,0.0,0.0,0.0,0.0,0.0,0.033827359612689276,0.5293669206790912,9.810152111067902,0.0,0.0,0.0,0.0,0.0,0.0,0.0,0.0,0.0
2025/04/09 08:48:16.807946008,1744181296,803335585,mA1/imu,0.7113738932028113,0.7028130457583002,0.0001524749423842158,0.0009917322262322256,0.0,0.0,0.0,0.0,0.0,0.0,0.0,0.0,0.0,-0.0015896615827578988,-0.00034874446937241437,-0.0011003145727037616,0.0,0.0,0.0,0.0,0.0,0.0,0.0,0.0,0.0,0.0017770331495076588,0.5224208958275585,9.809145402404399,0.0,0.0,0.0,0.0,0.0,0.0,0.0,0.0,0.0
2025/04/09 08:48:16.856496012,1744181296,854504875,mA1/imu,0.7113549544688258,0.7028322111642327,0.00015488947392251973,0.0009938369590046568,0.0,0.0,0.0,0.0,0.0,0.0,0.0,0.0,0.0,9.435206393674286e-05,0.00025333235999243944,-0.0010629656906035443,0.0,0.0,0.0,0.0,0.0,0.0,0.0,0.0,0.0,0.0016699201978318551,0.007737114180226174,9.809166728275832,0.0,0.0,0.0,0.0,0.0,0.0,0.0,0.0,0.0
2025/04/09 08:48:16.899614079,1744181296,897067771,mA1/imu,0.7113366486513413,0.7028507481169668,0.00016708397398424802,0.0009850075351331708,0.0,0.0,0.0,0.0,0.0,0.0,0.0,0.0,0.0,0.0017989777196129883,0.0008122069870769773,-0.0010276622120919626,0.0,0.0,0.0,0.0,0.0,0.0,0.0,0.0,0.0,0.0019319982125162883,-0.5065217371909153,9.80797139463098,0.0,0.0,0.0,0.0,0.0,0.0,0.0,0.0,0.0
2025/04/09 08:48:16.960870220,1744181296,949811426,mA1/imu,0.7113222137279716,0.7028653715559298,0.00019610998858980954,0.0009691571364774881,0.0,0.0,0.0,0.0,0.0,0.0,0.0,0.0,0.0,0.0003753603708304131,0.0016156339400621247,-0.0006090754411512222,0.0,0.0,0.0,0.0,0.0,0.0,0.0,0.0,0.0,-0.011536774705009049,0.024355056011554837,9.806660007359834,0.0,0.0,0.0,0.0,0.0,0.0,0.0,0.0,0.0
2025/04/09 08:48:17.20087109,1744181297,2849104,mA1/imu,0.7113155871657209,0.7028721085038699,0.0002391476493418502,0.0009366700655300615,0.0,0.0,0.0,0.0,0.0,0.0,0.0,0.0,0.0,-0.0010586608576447993,0.0024414162312401673,-0.0002156088211098473,0.0,0.0,0.0,0.0,0.0,0.0,0.0,0.0,0.0,-0.01079934855497723,-0.09073848800729181,9.807197502334922,0.0,0.0,0.0,0.0,0.0,0.0,0.0,0.0,0.0
2025/04/09 08:48:17.55357711,1744181297,54409171,mA1/imu,0.7113159336592842,0.7028718066578872,0.0002881525355539843,0.0008848141130950906,0.0,0.0,0.0,0.0,0.0,0.0,0.0,0.0,0.0,-0.0010436951443105783,0.0031131072815267064,0.00016537570416872143,0.0,0.0,0.0,0.0,0.0,0.0,0.0,0.0,0.0,-0.009039908437754105,-0.0889973402405144,9.81003217127525,0.0,0.0,0.0,0.0,0.0,0.0,0.0,0.0,0.0
2025/04/09 08:48:17.103702171,1744181297,97717970,mA1/imu,0.7113228122246412,0.7028649041097174,0.00033933491491144776,0.0008174542685459692,0.0,0.0,0.0,0.0,0.0,0.0,0.0,0.0,0.0,0.000385134964944932,0.003415102515010403,0.00048093087634347003,0.0,0.0,0.0,0.0,0.0,0.0,0.0,0.0,0.0,0.011901801792535896,0.0038439433273400776,9.809663218333263,0.0,0.0,0.0,0.0,0.0,0.0,0.0,0.0,0.0
2025/04/09 08:48:17.148485441,1744181297,147529575,mA1/imu,0.7113311287154763,0.7028565273075944,0.0003919871698087363,0.0007574216356578535,0.0,0.0,0.0,0.0,0.0,0.0,0.0,0.0,0.0,0.00034365913552379814,0.0030141191118154536,0.00047061208661506253,0.0,0.0,0.0,0.0,0.0,0.0,0.0,0.0,0.0,0.012409666509148081,0.6254270336234585,9.811830244584755,0.0,0.0,0.0,0.0,0.0,0.0,0.0,0.0,0.0
2025/04/09 08:48:17.201152935,1744181297,199390780,mA1/imu,0.7113392590805983,0.702848318883194,0.00044026137783475844,0.0007108471373785185,0.0,0.0,0.0,0.0,0.0,0.0,0.0,0.0,0.0,0.0005757923449551922,0.00243817517745801,0.0004600599087351206,0.0,0.0,0.0,0.0,0.0,0.0,0.0,0.0,0.0,0.012651314480833557,0.011953603470565892,9.810982177586657,0.0,0.0,0.0,0.0,0.0,0.0,0.0,0.0,0.0
2025/04/09 08:48:17.250096700,1744181297,249237683,mA1/imu,0.7113472047093108,0.7028402885319124,0.0004766474818508378,0.0006752598064903284,0.0,0.0,0.0,0.0,0.0,0.0,0.0,0.0,0.0,0.0008099709755657618,0.0017375585606810404,0.0004491156002106873,0.0,0.0,0.0,0.0,0.0,0.0,0.0,0.0,0.0,0.012819383193370639,-0.6048472483021673,9.809441973688143,0.0,0.0,0.0,0.0,0.0,0.0,0.0,0.0,0.0
2025/04/09 08:48:17.301418189,1744181297,300195627,mA1/imu,0.7113549648530547,0.7028324482456547,0.0004944016816477053,0.0006474866065574959,0.0,0.0,0.0,0.0,0.0,0.0,0.0,0.0,0.0,0.0007821952137626892,0.0009659655846457102,0.00043765928766591395,0.0,0.0,0.0,0.0,0.0,0.0,0.0,0.0,0.0,0.01271776394186915,-0.6081869107322295,9.810027882389168,0.0,0.0,0.0,0.0,0.0,0.0,0.0,0.0,0.0
2025/04/09 08:48:17.352621879,1744181297,350060901,mA1/imu,0.711362529301698,0.7028248018240176,0.0004979564236800531,0.0006339447307020687,0.0,0.0,0.0,0.0,0.0,0.0,0.0,0.0,0.0,-0.0009937249947023893,0.00016542189068673093,0.0004257376820517326,0.0,0.0,0.0,0.0,0.0,0.0,0.0,0.0,0.0,0.012634791458910917,0.5275364040895794,9.81231756973783,0.0,0.0,0.0,0.0,0.0,0.0,0.0,0.0,0.0
2025/04/09 08:48:17.403159115,1744181297,401251232,mA1/imu,0.711369910861402,0.7028173385963838,0.00048653266796070836,0.0006338574760610572,0.0,0.0,0.0,0.0,0.0,0.0,0.0,0.0,0.0,-0.0010749388607436464,-0.0006276583665151852,0.00041536214680000755,0.0,0.0,0.0,0.0,0.0,0.0,0.0,0.0,0.0,0.01198694802819361,0.5219923075129268,9.812083410202634,0.0,0.0,0.0,0.0,0.0,0.0,0.0,0.0,0.0
2025/04/09 08:48:17.452519087,1744181297,451301753,mA1/imu,0.7113735504958961,0.7028136573766377,0.00045767123506054025,0.0006520711443703356,0.0,0.0,0.0,0.0,0.0,0.0,0.0,0.0,0.0,0.0004517563054099941,-0.0018383561574963488,9.920705770981444e-06,0.0,0.0,0.0,0.0,0.0,0.0,0.0,0.0,0.0,0.027124700912277325,-0.0031405918406722227,9.812807262636312,0.0,0.0,0.0,0.0,0.0,0.0,0.0,0.0,0.0
2025/04/09 08:48:17.504117264,1744181297,502275858,mA1/imu,0.7113737978286087,0.7028134009361198,0.00041548238796842464,0.000686004294673111,0.0,0.0,0.0,0.0,0.0,0.0,0.0,0.0,0.0,0.0020812525198811898,-0.0023515638709596183,1.431279775364959e-05,0.0,0.0,0.0,0.0,0.0,0.0,0.0,0.0,0.0,0.006770077669914276,-0.5061635610624139,9.810740856119804,0.0,0.0,0.0,0.0,0.0,0.0,0.0,0.0,0.0
2025/04/09 08:48:17.560126311,1744181297,555032803,mA1/imu,0.7113748887246738,0.7028122727807038,0.0003735492834883496,0.0007330632389685312,0.0,0.0,0.0,0.0,0.0,0.0,0.0,0.0,0.0,0.0005316743996009348,-0.002595283923501455,0.00011002152289849285,0.0,0.0,0.0,0.0,0.0,0.0,0.0,0.0,0.0,0.001904096082412122,0.01491731140627176,9.810238631712208,0.0,0.0,0.0,0.0,0.0,0.0,0.0,0.0,0.0
2025/04/09 08:48:17.621363887,1744181297,609365747,mA1/imu,0.7113768661131507,0.7028102382033788,0.0003285881367211227,0.0007845160157423441,0.0,0.0,0.0,0.0,0.0,0.0,0.0,0.0,0.0,-0.001004553401936973,-0.002800537238906359,0.00011237854844385046,0.0,0.0,0.0,0.0,0.0,0.0,0.0,0.0,0.0,0.007214071056852959,-0.08985990984782598,9.810843837039334,0.0,0.0,0.0,0.0,0.0,0.0,0.0,0.0,0.0
2025/04/09 08:48:17.681686844,1744181297,646005734,mA1/imu,0.7113788913291991,0.7028081553423129,0.00027621899574277264,0.000832741641403488,0.0,0.0,0.0,0.0,0.0,0.0,0.0,0.0,0.0,-0.0010855179459863897,-0.002844865274938701,0.00011500191538812467,0.0,0.0,0.0,0.0,0.0,0.0,0.0,0.0,0.0,0.006152662415523312,-0.0900175088486676,9.810945113327943,0.0,0.0,0.0,0.0,0.0,0.0,0.0,0.0,0.0
2025/04/09 08:48:17.712788098,1744181297,699215625,mA1/imu,0.711380967748053,0.7028060225919005,0.00021949203866610336,0.0008747328973545049,0.0,0.0,0.0,0.0,0.0,0.0,0.0,0.0,0.0,0.00026973229712496234,-0.002725786586713358,0.00011784045207721641,0.0,0.0,0.0,0.0,0.0,0.0,0.0,0.0,0.0,0.005215940302552317,0.003979273354586761,9.810021902632032,0.0,0.0,0.0,0.0,0.0,0.0,0.0,0.0,0.0
2025/04/09 08:48:17.758137466,1744181297,748512404,mA1/imu,0.7113835344256516,0.7028033796356001,0.000170439793925936,0.0009205819480653664,0.0,0.0,0.0,0.0,0.0,0.0,0.0,0.0,0.0,0.00017468374963747294,-0.0026345701728842145,0.0001709749202747477,0.0,0.0,0.0,0.0,0.0,0.0,0.0,0.0,0.0,0.010814134576656486,0.6299530132323564,9.811526057328704,0.0,0.0,0.0,0.0,0.0,0.0,0.0,0.0,0.0
2025/04/09 08:48:17.843981512,1744181297,802113518,mA1/imu,0.7113878581767601,0.7027989485254444,0.0001310909324211842,0.0009674737097757437,0.0,0.0,0.0,0.0,0.0,0.0,0.0,0.0,0.0,0.0003618496648016796,-0.002291623982129187,0.0002991476326160056,0.0,0.0,0.0,0.0,0.0,0.0,0.0,0.0,0.0,0.006158480912718556,0.015177204766597941,9.809912658198707,0.0,0.0,0.0,0.0,0.0,0.0,0.0,0.0,0.0
2025/04/09 08:48:17.909962938,1744181297,852469864,mA1/imu,0.7113936247962706,0.7027930608938047,9.983922987639619e-05,0.0010070704384708095,0.0,0.0,0.0,0.0,0.0,0.0,0.0,0.0,0.0,0.000551863582010207,-0.0018133554232016712,0.00032860312448712087,0.0,0.0,0.0,0.0,0.0,0.0,0.0,0.0,0.0,0.007015489678116706,-0.6050824561674114,9.8077544333704,0.0,0.0,0.0,0.0,0.0,0.0,0.0,0.0,0.0
2025/04/09 08:48:17.945106876,1744181297,904996860,mA1/imu,0.7113993166528026,0.7027872654723412,7.37734340321497e-05,0.00103262447905458,0.0,0.0,0.0,0.0,0.0,0.0,0.0,0.0,0.0,0.00048033594108079687,-0.0012263220867186244,0.0003205380789034278,0.0,0.0,0.0,0.0,0.0,0.0,0.0,0.0,0.0,0.006654477408835588,-0.6082325976782169,9.807626416008134,0.0,0.0,0.0,0.0,0.0,0.0,0.0,0.0,0.0
2025/04/09 08:48:17.975367337,1744181297,955372506,mA1/imu,0.7114044918403802,0.702782007145594,6.114950937589415e-05,0.001046748526770109,0.0,0.0,0.0,0.0,0.0,0.0,0.0,0.0,0.0,-0.0013482749297759633,-0.00041859033252335,0.00026929175203207204,0.0,0.0,0.0,0.0,0.0,0.0,0.0,0.0,0.0,0.0015250752505026766,0.523395450181302,9.80958602995609,0.0,0.0,0.0,0.0,0.0,0.0,0.0,0.0,0.0
2025/04/09 08:48:18.17339430,1744181297,996691652,mA1/imu,0.7114084917111088,0.7027779570923727,6.326961008324414e-05,0.0010473506351773992,0.0,0.0,0.0,0.0,0.0,0.0,0.0,0.0,0.0,-0.001492079996632675,0.00035902019259125955,0.00019311251494490394,0.0,0.0,0.0,0.0,0.0,0.0,0.0,0.0,0.0,0.005326924082051626,0.5192010428623492,9.80916521189057,0.0,0.0,0.0,0.0,0.0,0.0,0.0,0.0,0.0
2025/04/09 08:48:18.51842557,1744181298,50130491,mA1/imu,0.7114112883502284,0.7027751423648423,7.794156750391386e-05,0.0010353777358934615,0.0,0.0,0.0,0.0,0.0,0.0,0.0,0.0,0.0,0.00012754318834120944,0.0010195833462831813,0.0001556851803676941,0.0,0.0,0.0,0.0,0.0,0.0,0.0,0.0,0.0,0.00474267552165558,0.007878119643096045,9.809107217182111,0.0,0.0,0.0,0.0,0.0,0.0,0.0,0.0,0.0
2025/04/09 08:48:18.105116085,1744181298,102401557,mA1/imu,0.7114140461409875,0.7027723804092368,0.000104130452562716,0.001012642134526755,0.0,0.0,0.0,0.0,0.0,0.0,0.0,0.0,0.0,0.001782130399759853,0.0016100024552900087,0.0001584008196220618,0.0,0.0,0.0,0.0,0.0,0.0,0.0,0.0,0.0,0.005116831411606387,-0.50628474202174,9.807944925884199,0.0,0.0,0.0,0.0,0.0,0.0,0.0,0.0,0.0
2025/04/09 08:48:18.153907864,1744181298,152242664,mA1/imu,0.711416838172843,0.7027695833985123,0.00014608847127990345,0.0009867482937529837,0.0,0.0,0.0,0.0,0.0,0.0,0.0,0.0,0.0,0.0002633845989352262,0.0020980982647562604,0.00016089076942461982,0.0,0.0,0.0,0.0,0.0,0.0,0.0,0.0,0.0,0.006808789152599778,0.013066068243471826,9.808374357750294,0.0,0.0,0.0,0.0,0.0,0.0,0.0,0.0,0.0
2025/04/09 08:48:18.211721217,1744181298,204723196,mA1/imu,0.7114196694648849,0.7027667510124003,0.0001953283276823294,0.0009536334691012706,0.0,0.0,0.0,0.0,0.0,0.0,0.0,0.0,0.0,-0.0012269101253416588,0.0024584582174149903,0.00016317637821598174,0.0,0.0,0.0,0.0,0.0,0.0,0.0,0.0,0.0,0.00785109487908537,-0.089822608437072,9.809007603381328,0.0,0.0,0.0,0.0,0.0,0.0,0.0,0.0,0.0
2025/04/09 08:48:18.259931386,1744181298,255007540,mA1/imu,0.7114198935077789,0.7027665641982876,0.00023904353789253702,0.0009133589117354962,0.0,0.0,0.0,0.0,0.0,0.0,0.0,0.0,0.0,-0.0012412967215269645,0.002239426121174637,-0.0001322482248448204,0.0,0.0,0.0,0.0,0.0,0.0,0.0,0.0,0.0,0.024955119040949908,-0.09033444384756072,9.809924011678424,0.0,0.0,0.0,0.0,0.0,0.0,0.0,0.0,0.0
2025/04/09 08:48:18.310024608,1744181298,306347171,mA1/imu,0.7114176222155074,0.7027689078193927,0.00027496708576321715,0.0008679842585678655,0.0,0.0,0.0,0.0,0.0,0.0,0.0,0.0,0.0,0.00017681491401381414,0.0023414265231134503,-0.0001265621918494755,0.0,0.0,0.0,0.0,0.0,0.0,0.0,0.0,0.0,0.0054589232540304365,0.0043281931156640835,9.809469349873066,0.0,0.0,0.0,0.0,0.0,0.0,0.0,0.0,0.0
2025/04/09 08:48:18.348200082,1744181298,346087907,mA1/imu,0.7114143964102683,0.7027722043251307,0.0003150648053521107,0.0008283371168598633,0.0,0.0,0.0,0.0,0.0,0.0,0.0,0.0,0.0,0.00010871769743500014,0.002141503852059854,-0.00025247296301444743,0.0,0.0,0.0,0.0,0.0,0.0,0.0,0.0,0.0,0.016272155588087707,0.6243338616332405,9.811942714472739,0.0,0.0,0.0,0.0,0.0,0.0,0.0,0.0,0.0
2025/04/09 08:48:18.399405428,1744181298,397085166,mA1/imu,0.7114060291129838,0.7027806867341024,0.0003502413759369317,0.0008033842285389446,0.0,0.0,0.0,0.0,0.0,0.0,0.0,0.0,0.0,0.0003179572399178149,0.0013807325652249916,-0.0006285735704330386,0.0,0.0,0.0,0.0,0.0,0.0,0.0,0.0,0.0,0.02426113983796232,0.01175995401322056,9.811407286823545,0.0,0.0,0.0,0.0,0.0,0.0,0.0,0.0,0.0
2025/04/09 08:48:18.447911318,1744181298,447063338,mA1/imu,0.7113912052098413,0.7027956947510143,0.00037156604621376853,0.0007915353445469425,0.0,0.0,0.0,0.0,0.0,0.0,0.0,0.0,0.0,0.0005424639890554254,0.0005797420033439025,-0.000993656992403535,0.0,0.0,0.0,0.0,0.0,0.0,0.0,0.0,0.0,0.028701970750938152,-0.6066694437071317,9.807448802627315,0.0,0.0,0.0,0.0,0.0,0.0,0.0,0.0,0.0
2025/04/09 08:48:18.499461810,1744181298,498039195,mA1/imu,0.7113701172937046,0.7028170430020187,0.00037373278125534014,0.0007877888344719563,0.0,0.0,0.0,0.0,0.0,0.0,0.0,0.0,0.0,0.0005376506342589437,-0.00014569436147155723,-0.0013403441021743157,0.0,0.0,0.0,0.0,0.0,0.0,0.0,0.0,0.0,0.02752615513123512,-0.6102778846818094,9.808068850989294,0.0,0.0,0.0,0.0,0.0,0.0,0.0,0.0,0.0
2025/04/09 08:48:18.549073205,1744181298,548030968,mA1/imu,0.7113455280736009,0.7028419261149469,0.00036782890802738186,0.0007945354719072371,0.0,0.0,0.0,0.0,0.0,0.0,0.0,0.0,0.0,-0.0012862941789221964,-0.0003761390537633363,-0.001382502805024929,0.0,0.0,0.0,0.0,0.0,0.0,0.0,0.0,0.0,0.003926829890682626,0.5231117115298105,9.812226633577609,0.0,0.0,0.0,0.0,0.0,0.0,0.0,0.0,0.0
2025/04/09 08:48:18.600537244,1744181298,599763189,mA1/imu,0.7113216851295806,0.7028660547244941,0.00035875716952659173,0.0008004209713674009,0.0,0.0,0.0,0.0,0.0,0.0,0.0,0.0,0.0,-0.0012778425295498456,-0.00043493436226558883,-0.001340731935241545,0.0,0.0,0.0,0.0,0.0,0.0,0.0,0.0,0.0,0.003922976458009639,0.520496777014525,9.812188661490323,0.0,0.0,0.0,0.0,0.0,0.0,0.0,0.0,0.0
2025/04/09 08:48:18.652147755,1744181298,649621272,mA1/imu,0.7112976898389674,0.7028903380641166,0.0003458655551574439,0.0008058925969081426,0.0,0.0,0.0,0.0,0.0,0.0,0.0,0.0,0.0,0.0004228746451642713,-0.0005826176729999755,-0.0013962963599520185,0.0,0.0,0.0,0.0,0.0,0.0,0.0,0.0,0.0,0.007363992346579145,0.006204899311195191,9.812509879881032,0.0,0.0,0.0,0.0,0.0,0.0,0.0,0.0,0.0
2025/04/09 08:48:18.704373024,1744181298,703043524,mA1/imu,0.7112725969903199,0.7029157289229877,0.00033050569515780256,0.0008133691023265877,0.0,0.0,0.0,0.0,0.0,0.0,0.0,0.0,0.0,0.0020985282495160134,-0.000654327371815038,-0.001427540016465758,0.0,0.0,0.0,0.0,0.0,0.0,0.0,0.0,0.0,-0.002589134991418199,-0.5067683347445978,9.810898107573983,0.0,0.0,0.0,0.0,0.0,0.0,0.0,0.0,0.0
2025/04/09 08:48:18.754562373,1744181298,752825151,mA1/imu,0.7112490405563103,0.702939554986872,0.00032290502174484135,0.0008246665589265276,0.0,0.0,0.0,0.0,0.0,0.0,0.0,0.0,0.0,0.0006076218591208284,-0.0004553229085798448,-0.0012743892236213438,0.0,0.0,0.0,0.0,0.0,0.0,0.0,0.0,0.0,-0.0020691679558030186,0.01508519682123046,9.810295002201325,0.0,0.0,0.0,0.0,0.0,0.0,0.0,0.0,0.0
2025/04/09 08:48:18.805000371,1744181298,803827952,mA1/imu,0.7112282321761446,0.7029606026051713,0.00031882721048268834,0.0008314383804630084,0.0,0.0,0.0,0.0,0.0,0.0,0.0,0.0,0.0,-0.0008584995375850013,-0.00021957754824610703,-0.0011231715872216314,0.0,0.0,0.0,0.0,0.0,0.0,0.0,0.0,0.0,-0.0014814890899300572,-0.08799847005947375,9.810378479562377,0.0,0.0,0.0,0.0,0.0,0.0,0.0,0.0,0.0
2025/04/09 08:48:18.854355449,1744181298,853594049,mA1/imu,0.7112100708643272,0.7029789842546671,0.00031217213820025353,0.0008278562626045329,0.0,0.0,0.0,0.0,0.0,0.0,0.0,0.0,0.0,-0.0008546316429333692,5.4369614900133e-06,-0.0009781188705178558,0.0,0.0,0.0,0.0,0.0,0.0,0.0,0.0,0.0,-0.001155520434141263,-0.09599590166611625,9.811453437530558,0.0,0.0,0.0,0.0,0.0,0.0,0.0,0.0,0.0
2025/04/09 08:48:18.905468265,1744181298,904603597,mA1/imu,0.7111932326957946,0.7029960376904338,0.00030090258129883727,0.000816221104726231,0.0,0.0,0.0,0.0,0.0,0.0,0.0,0.0,0.0,0.000526468123764481,2.124527871631877e-05,-0.0009462932943904784,0.0,0.0,0.0,0.0,0.0,0.0,0.0,0.0,0.0,0.004626517698966841,0.004275596831441433,9.810506354965685,0.0,0.0,0.0,0.0,0.0,0.0,0.0,0.0,0.0
2025/04/09 08:48:18.947924891,1744181298,946451961,mA1/imu,0.7111804840286063,0.7030089467423822,0.0002975403999357247,0.0008070977104305238,0.0,0.0,0.0,0.0,0.0,0.0,0.0,0.0,0.0,0.00048579929373340747,0.0003581727898176194,-0.0005195474091001213,0.0,0.0,0.0,0.0,0.0,0.0,0.0,0.0,0.0,-0.010728200220541776,0.6378771869771905,9.812658277923934,0.0,0.0,0.0,0.0,0.0,0.0,0.0,0.0,0.0
2025/04/09 08:48:19.2010856,1744181298,997020072,mA1/imu,0.711175535581579,0.7030139622472346,0.0003070331385321471,0.0007951140482961172,0.0,0.0,0.0,0.0,0.0,0.0,0.0,0.0,0.0,0.0006542958718717989,0.0007677670140158433,-0.00011712531575804418,0.0,0.0,0.0,0.0,0.0,0.0,0.0,0.0,0.0,-0.0097630834998455,0.013054513549941768,9.810718939351077,0.0,0.0,0.0,0.0,0.0,0.0,0.0,0.0,0.0
2025/04/09 08:48:19.47957455,1744181299,46748095,mA1/imu,0.7111775049231391,0.7030119828082488,0.00032618996348932896,0.0007759635433347118,0.0,0.0,0.0,0.0,0.0,0.0,0.0,0.0,0.0,0.0007526754675692886,0.00127503873127557,0.00028119616304233207,0.0,0.0,0.0,0.0,0.0,0.0,0.0,0.0,0.0,-0.016233761981784292,-0.6159570254182491,9.806271095114145,0.0,0.0,0.0,0.0,0.0,0.0,0.0,0.0,0.0
2025/04/09 08:48:19.99844593,1744181299,97975415,mA1/imu,0.7111859452695526,0.7030034655265123,0.00034841806270141245,0.0007465344065455237,0.0,0.0,0.0,0.0,0.0,0.0,0.0,0.0,0.0,0.0006849510286869704,0.0014626619381432216,0.0005619821572921742,0.0,0.0,0.0,0.0,0.0,0.0,0.0,0.0,0.0,0.010947091880719082,-0.6080713461574045,9.80785487256671,0.0,0.0,0.0,0.0,0.0,0.0,0.0,0.0,0.0
2025/04/09 08:48:19.148879345,1744181299,148072526,mA1/imu,0.7111956662505374,0.7029936468891201,0.0003673639855720862,0.000722345963903591,0.0,0.0,0.0,0.0,0.0,0.0,0.0,0.0,0.0,-0.0011465962997216901,0.0010559038474538972,0.0005479148067060502,0.0,0.0,0.0,0.0,0.0,0.0,0.0,0.0,0.0,0.011066957003384555,0.5277699936456473,9.810030742136862,0.0,0.0,0.0,0.0,0.0,0.0,0.0,0.0,0.0
2025/04/09 08:48:19.205447090,1744181299,199600745,mA1/imu,0.7112051438306449,0.7029840690178029,0.00037845636460891673,0.0007063050225094137,0.0,0.0,0.0,0.0,0.0,0.0,0.0,0.0,0.0,-0.0012724848730225607,0.0005839408762718788,0.0005339104652483058,0.0,0.0,0.0,0.0,0.0,0.0,0.0,0.0,0.0,0.01110987670153002,0.5223071828358579,9.809484502550276,0.0,0.0,0.0,0.0,0.0,0.0,0.0,0.0,0.0
2025/04/09 08:48:19.250778322,1744181299,249010609,mA1/imu,0.7112143764010653,0.7029747342585653,0.0003809469271326962,0.0006990522024903449,0.0,0.0,0.0,0.0,0.0,0.0,0.0,0.0,0.0,0.00032251557785981544,7.438774889989174e-05,0.0005197687036744321,0.0,0.0,0.0,0.0,0.0,0.0,0.0,0.0,0.0,0.010815930462542648,0.007763942056328193,9.809437207033639,0.0,0.0,0.0,0.0,0.0,0.0,0.0,0.0,0.0
2025/04/09 08:48:19.301811651,1744181299,299896659,mA1/imu,0.711223366741528,0.7029656387302581,0.00037564128507068507,0.0007016117381269979,0.0,0.0,0.0,0.0,0.0,0.0,0.0,0.0,0.0,0.0019292341617532223,-0.00042177317016640713,0.0005060159533101901,0.0,0.0,0.0,0.0,0.0,0.0,0.0,0.0,0.0,0.009831196660143404,-0.5063344312448759,9.807868212752583,0.0,0.0,0.0,0.0,0.0,0.0,0.0,0.0,0.0
2025/04/09 08:48:19.354586507,1744181299,350225457,mA1/imu,0.711231616647279,0.702957276626962,0.00036823684992995484,0.0007204999133441654,0.0,0.0,0.0,0.0,0.0,0.0,0.0,0.0,0.0,0.0003524164890052104,-0.0009892223129218107,0.0004322964126424447,0.0,0.0,0.0,0.0,0.0,0.0,0.0,0.0,0.0,0.015661886338557657,0.014044559469114315,9.807692343777001,0.0,0.0,0.0,0.0,0.0,0.0,0.0,0.0,0.0
2025/04/09 08:48:19.402385046,1744181299,401150425,mA1/imu,0.711239112592112,0.7029496704173763,0.00035348607956893366,0.0007487502110691464,0.0,0.0,0.0,0.0,0.0,0.0,0.0,0.0,0.0,-0.0011989221416101176,-0.0013629192537821754,0.0004223442403788585,0.0,0.0,0.0,0.0,0.0,0.0,0.0,0.0,0.0,0.010463940513016044,-0.08956256209409863,9.808701333158488,0.0,0.0,0.0,0.0,0.0,0.0,0.0,0.0,0.0
2025/04/09 08:48:19.453206727,1744181299,451225192,mA1/imu,0.7112464498577573,0.7029422276117517,0.00032771912127406075,0.0007776921901836787,0.0,0.0,0.0,0.0,0.0,0.0,0.0,0.0,0.0,-0.0012877257815757848,-0.0016479874605414568,0.00041312376863916213,0.0,0.0,0.0,0.0,0.0,0.0,0.0,0.0,0.0,0.009479405491226948,-0.09008126035519896,9.809459480907032,0.0,0.0,0.0,0.0,0.0,0.0,0.0,0.0,0.0
2025/04/09 08:48:19.506278838,1744181299,503703121,mA1/imu,0.7112536264774586,0.7029349504841946,0.00029262597039262885,0.0008053449497934176,0.0,0.0,0.0,0.0,0.0,0.0,0.0,0.0,0.0,7.092894866337698e-05,-0.0018333816888218882,0.00040378218138718066,0.0,0.0,0.0,0.0,0.0,0.0,0.0,0.0,0.0,0.00865676047863042,0.003879648027926265,9.809352478176013,0.0,0.0,0.0,0.0,0.0,0.0,0.0,0.0,0.0
2025/04/09 08:48:19.554303373,1744181299,553497513,mA1/imu,0.7112616588882151,0.7029267929008989,0.0002599094820736867,0.0008419410324194515,0.0,0.0,0.0,0.0,0.0,0.0,0.0,0.0,0.0,-1.786690829210833e-05,-0.002014011862654753,0.0005075567078845867,0.0,0.0,0.0,0.0,0.0,0.0,0.0,0.0,0.0,0.011281910806012242,0.6290721592848687,9.81154136710581,0.0,0.0,0.0,0.0,0.0,0.0,0.0,0.0,0.0
2025/04/09 08:48:19.607057398,1744181299,605079776,mA1/imu,0.7112717715035113,0.7029165173276083,0.00023073813799455412,0.0008851498147479232,0.0,0.0,0.0,0.0,0.0,0.0,0.0,0.0,0.0,0.00019183854959443374,-0.0020384621438567356,0.0006237163643310654,0.0,0.0,0.0,0.0,0.0,0.0,0.0,0.0,0.0,0.006659128210441921,0.014981973121006026,9.810471412122583,0.0,0.0,0.0,0.0,0.0,0.0,0.0,0.0,0.0
2025/04/09 08:48:19.656892549,1744181299,654912913,mA1/imu,0.7112820430928529,0.7029060787304737,0.00020362474263066065,0.0009263878075412102,0.0,0.0,0.0,0.0,0.0,0.0,0.0,0.0,0.0,0.0003921070695556224,-0.0018796295106441854,0.0005179888817839043,0.0,0.0,0.0,0.0,0.0,0.0,0.0,0.0,0.0,0.008765747480876728,-0.6080657706605144,9.808443236216425,0.0,0.0,0.0,0.0,0.0,0.0,0.0,0.0,0.0
2025/04/09 08:48:19.707045518,1744181299,705928925,mA1/imu,0.7112897342130006,0.7028982597178907,0.00017632955926475953,0.0009588517333532342,0.0,0.0,0.0,0.0,0.0,0.0,0.0,0.0,0.0,0.0003216904647238552,-0.0015658558876521264,0.000403152936036223,0.0,0.0,0.0,0.0,0.0,0.0,0.0,0.0,0.0,0.006799803472650125,-0.6068860681565742,9.809383132729028,0.0,0.0,0.0,0.0,0.0,0.0,0.0,0.0,0.0
2025/04/09 08:48:19.756910754,1744181299,755728392,mA1/imu,0.7112967067134696,0.7028911718121317,0.00015555199536450943,0.0009856017034108018,0.0,0.0,0.0,0.0,0.0,0.0,0.0,0.0,0.0,-0.0014557942731114773,-0.0011774199249400346,0.0003926300466776826,0.0,0.0,0.0,0.0,0.0,0.0,0.0,0.0,0.0,0.007024871386064377,0.5277937154261085,9.811990484432137,0.0,0.0,0.0,0.0,0.0,0.0,0.0,0.0,0.0
2025/04/09 08:48:19.799687517,1744181299,796631137,mA1/imu,0.7113035044423067,0.7028842695806532,0.00014117074915838076,0.0010040990909071955,0.0,0.0,0.0,0.0,0.0,0.0,0.0,0.0,0.0,-0.0015096505658422125,-0.000743293627916952,0.00038294576587282906,0.0,0.0,0.0,0.0,0.0,0.0,0.0,0.0,0.0,0.007007909343157385,0.5222785444745264,9.811873874320973,0.0,0.0,0.0,0.0,0.0,0.0,0.0,0.0,0.0
2025/04/09 08:48:19.849191481,1744181299,848219301,mA1/imu,0.7113130397164956,0.7028746131983447,0.00013820165405141303,0.0010092328073389915,0.0,0.0,0.0,0.0,0.0,0.0,0.0,0.0,0.0,0.00016169505457860542,0.00020907366516946478,0.0006934526745053696,0.0,0.0,0.0,0.0,0.0,0.0,0.0,0.0,0.0,-0.012995489355415784,0.009395852751932492,9.812760203687082,0.0,0.0,0.0,0.0,0.0,0.0,0.0,0.0,0.0
2025/04/09 08:48:19.901030402,1744181299,899187243,mA1/imu,0.7113250272876053,0.7028624905743422,0.00014687113250682704,0.0010016620142950952,0.0,0.0,0.0,0.0,0.0,0.0,0.0,0.0,0.0,0.001863736551622285,0.0006160439708347608,0.0006751701813158885,0.0,0.0,0.0,0.0,0.0,0.0,0.0,0.0,0.0,0.0070341811297345985,-0.5061773050073068,9.810561418217986,0.0,0.0,0.0,0.0,0.0,0.0,0.0,0.0,0.0
2025/04/09 08:48:19.949784128,1744181299,948982525,mA1/imu,0.7113366921997102,0.702850692878249,0.00016791982900792935,0.0009928010229584606,0.0,0.0,0.0,0.0,0.0,0.0,0.0,0.0,0.0,0.0003824446413789054,0.0009786666548023681,0.0006574971613489511,0.0,0.0,0.0,0.0,0.0,0.0,0.0,0.0,0.0,0.008560601337131548,0.013031906481479994,9.810732749158278,0.0,0.0,0.0,0.0,0.0,0.0,0.0,0.0,0.0
2025/04/09 08:48:20.2439763,1744181300,317500,mA1/imu,0.7113480548425096,0.7028392074979719,0.0001941173378690266,0.0009775448123170783,0.0,0.0,0.0,0.0,0.0,0.0,0.0,0.0,0.0,-0.0010756421093670243,0.0012837479992536364,0.0006406376519334473,0.0,0.0,0.0,0.0,0.0,0.0,0.0,0.0,0.0,0.009119971227811479,-0.089849440728174,9.810871449965154,0.0,0.0,0.0,0.0,0.0,0.0,0.0,0.0,0.0
2025/04/09 08:48:20.50895045,1744181300,50125413,mA1/imu,0.7113565193177342,0.7028306656968977,0.00021391381806926265,0.0009549979539532484,0.0,0.0,0.0,0.0,0.0,0.0,0.0,0.0,0.0,-0.0010653319388613137,0.0010652291970868562,0.00033058744621810497,0.0,0.0,0.0,0.0,0.0,0.0,0.0,0.0,0.0,0.026433593945918727,-0.09056205028386224,9.81168529192775,0.0,0.0,0.0,0.0,0.0,0.0,0.0,0.0,0.0
2025/04/09 08:48:20.104808871,1744181300,101173816,mA1/imu,0.7113622665594913,0.7028248834083685,0.00022645720578118506,0.0009261179679612746,0.0,0.0,0.0,0.0,0.0,0.0,0.0,0.0,0.0,0.0003695894944827748,0.0012407452830688992,0.0003243520489449457,0.0,0.0,0.0,0.0,0.0,0.0,0.0,0.0,0.0,0.008443875383834731,0.004120488635549063,9.810538255775823,0.0,0.0,0.0,0.0,0.0,0.0,0.0,0.0,0.0
2025/04/09 08:48:20.153538696,1744181300,152373245,mA1/imu,0.7113689170937055,0.7028181791279783,0.0002446513278001266,0.000900569758135417,0.0,0.0,0.0,0.0,0.0,0.0,0.0,0.0,0.0,0.00034256067713624155,0.0012362330163274604,0.00043069483377980336,0.0,0.0,0.0,0.0,0.0,0.0,0.0,0.0,0.0,0.01139501487488561,0.6294217969487765,9.812048855755101,0.0,0.0,0.0,0.0,0.0,0.0,0.0,0.0,0.0
2025/04/09 08:48:20.204602604,1744181300,203318647,mA1/imu,0.7113776947179936,0.7028093128764451,0.0002662907560547639,0.0008799324323803882,0.0,0.0,0.0,0.0,0.0,0.0,0.0,0.0,0.0,0.0005958744902013006,0.0011549904829201987,0.0005495982371498191,0.0,0.0,0.0,0.0,0.0,0.0,0.0,0.0,0.0,0.011298281512856381,0.0155748896943427,9.810133206496584,0.0,0.0,0.0,0.0,0.0,0.0,0.0,0.0,0.0
2025/04/09 08:48:20.255160922,1744181300,253182777,mA1/imu,0.7113885468647556,0.7027983449941341,0.00028518650227007193,0.0008604253695035832,0.0,0.0,0.0,0.0,0.0,0.0,0.0,0.0,0.0,0.0008479138668282878,0.0010034768312819397,0.0006697247721093954,0.0,0.0,0.0,0.0,0.0,0.0,0.0,0.0,0.0,0.012401062062666944,-0.60166228036904,9.807803714134792,0.0,0.0,0.0,0.0,0.0,0.0,0.0,0.0,0.0
2025/04/09 08:48:20.306074248,1744181300,304140224,mA1/imu,0.7114013514790446,0.7027854068365502,0.0002950950204910288,0.000837836680065641,0.0,0.0,0.0,0.0,0.0,0.0,0.0,0.0,0.0,0.0008841295223952889,0.0008377960768556375,0.0007490914579373689,0.0,0.0,0.0,0.0,0.0,0.0,0.0,0.0,0.0,0.01205846442192841,-0.6058863442765234,9.807850368396315,0.0,0.0,0.0,0.0,0.0,0.0,0.0,0.0,0.0
2025/04/09 08:48:20.355167802,1744181300,353931019,mA1/imu,0.7114133878174147,0.7027732424157813,0.00030158760548446164,0.0008187939145006094,0.0,0.0,0.0,0.0,0.0,0.0,0.0,0.0,0.0,-0.0009409357085485839,0.0006453925729816174,0.0006263153081172158,0.0,0.0,0.0,0.0,0.0,0.0,0.0,0.0,0.0,0.01167311675638653,0.5252809014832811,9.809925583805805,0.0,0.0,0.0,0.0,0.0,0.0,0.0,0.0,0.0
2025/04/09 08:48:20.407145137,1744181300,405463802,mA1/imu,0.7114227604713419,0.702763769778842,0.00030411382270893993,0.0008045398371607781,0.0,0.0,0.0,0.0,0.0,0.0,0.0,0.0,0.0,-0.0010797242785583016,0.0003894347359842585,0.0004950702778661517,0.0,0.0,0.0,0.0,0.0,0.0,0.0,0.0,0.0,0.010851498547018685,0.522698712688352,9.809335152481829,0.0,0.0,0.0,0.0,0.0,0.0,0.0,0.0,0.0
2025/04/09 08:48:20.458617268,1744181300,455259371,mA1/imu,0.7114305144327503,0.7027559319750326,0.00030262325734734257,0.0007947496585536549,0.0,0.0,0.0,0.0,0.0,0.0,0.0,0.0,0.0,0.0005034322993656079,0.00013857389109811754,0.0004088719863875859,0.0,0.0,0.0,0.0,0.0,0.0,0.0,0.0,0.0,0.010197592982227612,0.006890714014194643,9.80937712987239,0.0,0.0,0.0,0.0,0.0,0.0,0.0,0.0,0.0
2025/04/09 08:48:20.514659510,1744181300,506220413,mA1/imu,0.7114376033286229,0.7027487629149363,0.00029812599071644356,0.0007898812857356458,0.0,0.0,0.0,0.0,0.0,0.0,0.0,0.0,0.0,0.0021214092222036156,-8.110782029741376e-05,0.00039979526970294383,0.0,0.0,0.0,0.0,0.0,0.0,0.0,0.0,0.0,0.009396535981950812,-0.5066334820292907,9.807930965096551,0.0,0.0,0.0,0.0,0.0,0.0,0.0,0.0,0.0
2025/04/09 08:48:20.547915813,1744181300,546036550,mA1/imu,0.711444530553262,0.7027417438676362,0.0002970019002014704,0.0007957145176051633,0.0,0.0,0.0,0.0,0.0,0.0,0.0,0.0,0.0,0.0005498104619839951,-0.00028557049797148465,0.0003910042804161893,0.0,0.0,0.0,0.0,0.0,0.0,0.0,0.0,0.0,0.010555344636922603,0.013288033543484583,9.808190916290684,0.0,0.0,0.0,0.0,0.0,0.0,0.0,0.0,0.0
2025/04/09 08:48:20.600140209,1744181300,598163445,mA1/imu,0.7114513124595795,0.7027348677907188,0.00029359975643095576,0.0008058473092121444,0.0,0.0,0.0,0.0,0.0,0.0,0.0,0.0,0.0,-0.0010048752730101957,-0.0004522115414099832,0.0003828909297414573,0.0,0.0,0.0,0.0,0.0,0.0,0.0,0.0,0.0,0.010274234078880467,-0.08947898392324463,9.808703829892739,0.0,0.0,0.0,0.0,0.0,0.0,0.0,0.0,0.0
2025/04/09 08:48:20.652665004,1744181300,649067000,mA1/imu,0.7114547453225192,0.7027313851232694,0.00028009662884231884,0.000816863929308934,0.0,0.0,0.0,0.0,0.0,0.0,0.0,0.0,0.0,-0.0011539559016907667,-0.0009167027918732788,1.2705465859596184e-05,0.0,0.0,0.0,0.0,0.0,0.0,0.0,0.0,0.0,0.02437943987700192,-0.10079568000322987,9.809735761942433,0.0,0.0,0.0,0.0,0.0,0.0,0.0,0.0,0.0
2025/04/09 08:48:20.702772000,1744181300,700364154,mA1/imu,0.7114437095920721,0.7027425361735152,0.0002416478021721186,0.0008470776980800047,0.0,0.0,0.0,0.0,0.0,0.0,0.0,0.0,0.0,5.405222885359669e-05,-0.00225596420851007,-0.0008798244624400478,0.0,0.0,0.0,0.0,0.0,0.0,0.0,0.0,0.0,0.003026278225696763,0.012980164745668193,9.809326430562633,0.0,0.0,0.0,0.0,0.0,0.0,0.0,0.0,0.0
2025/04/09 08:48:20.752263318,1744181300,750220902,mA1/imu,0.7114293783243223,0.7027570073435919,0.00020719926699960323,0.0008862025787844464,0.0,0.0,0.0,0.0,0.0,0.0,0.0,0.0,0.0,-5.01683885107199e-05,-0.0019135570370211771,-0.0007611616592165072,0.0,0.0,0.0,0.0,0.0,0.0,0.0,0.0,0.0,-0.00010059804905199372,0.6276314881943623,9.811522386205308,0.0,0.0,0.0,0.0,0.0,0.0,0.0,0.0,0.0
2025/04/09 08:48:20.803971394,1744181300,801117921,mA1/imu,0.7114199284080036,0.702766535922092,0.00018999433637723019,0.0009194314363852537,0.0,0.0,0.0,0.0,0.0,0.0,0.0,0.0,0.0,0.00011504408074148936,-0.0011792315446972706,-0.0004342077426918231,0.0,0.0,0.0,0.0,0.0,0.0,0.0,0.0,0.0,0.005987117822001604,0.011861597960625492,9.810505350922519,0.0,0.0,0.0,0.0,0.0,0.0,0.0,0.0,0.0
2025/04/09 08:48:20.853993052,1744181300,852050364,mA1/imu,0.7114124282304309,0.7027740960747632,0.00018103595284003194,0.0009455535762404346,0.0,0.0,0.0,0.0,0.0,0.0,0.0,0.0,0.0,0.0003173004832271843,-0.0008689904864707308,-0.0004210575295178172,0.0,0.0,0.0,0.0,0.0,0.0,0.0,0.0,0.0,0.0063655718750289785,-0.6046924967233097,9.809102101884207,0.0,0.0,0.0,0.0,0.0,0.0,0.0,0.0,0.0
2025/04/09 08:48:20.905382476,1744181300,903087763,mA1/imu,0.711405155506451,0.7027814396538461,0.00017322642201518187,0.0009606193401314915,0.0,0.0,0.0,0.0,0.0,0.0,0.0,0.0,0.0,0.0002799072899724439,-0.000502695939284596,-0.0004086190700467206,0.0,0.0,0.0,0.0,0.0,0.0,0.0,0.0,0.0,0.0062776442715571645,-0.6079782781231268,9.809753607849307,0.0,0.0,0.0,0.0,0.0,0.0,0.0,0.0,0.0
2025/04/09 08:48:20.954360331,1744181300,952958913,mA1/imu,0.7113980999791902,0.7027885701143614,0.00017201132384711646,0.0009692650380017354,0.0,0.0,0.0,0.0,0.0,0.0,0.0,0.0,0.0,-0.0014852689920437474,-0.00011794442997904864,-0.0003967807598389726,0.0,0.0,0.0,0.0,0.0,0.0,0.0,0.0,0.0,0.006637578554969638,0.5276582821516256,9.812126838357646,0.0,0.0,0.0,0.0,0.0,0.0,0.0,0.0,0.0
2025/04/09 08:48:21.6663520,1744181301,3913996,mA1/imu,0.7113912509101882,0.7027955005704354,0.00017630027990380624,0.0009702703748340207,0.0,0.0,0.0,0.0,0.0,0.0,0.0,0.0,0.0,-0.0015331907166004084,0.0002475917635778318,-0.00038531142301097943,0.0,0.0,0.0,0.0,0.0,0.0,0.0,0.0,0.0,0.006966675988725239,0.5222654930295908,9.812045026227521,0.0,0.0,0.0,0.0,0.0,0.0,0.0,0.0,0.0
2025/04/09 08:48:21.56565527,1744181301,54407098,mA1/imu,0.7113846230971163,0.7028022162576916,0.00018563598783392633,0.0009635266113920307,0.0,0.0,0.0,0.0,0.0,0.0,0.0,0.0,0.0,0.00015176142095918349,0.0005960756723156505,-0.00037187593463445937,0.0,0.0,0.0,0.0,0.0,0.0,0.0,0.0,0.0,0.006341108379410556,0.00768647279981954,9.81218583233829,0.0,0.0,0.0,0.0,0.0,0.0,0.0,0.0,0.0
2025/04/09 08:48:21.108818702,1744181301,106776976,mA1/imu,0.7113782200373617,0.7028087113299725,0.00020017977991525698,0.0009504016173181735,0.0,0.0,0.0,0.0,0.0,0.0,0.0,0.0,0.0,0.0018550577512550677,0.0008960824611612105,-0.00035898249352285094,0.0,0.0,0.0,0.0,0.0,0.0,0.0,0.0,0.0,0.006310050001828397,-0.5065751902536375,9.810860112286454,0.0,0.0,0.0,0.0,0.0,0.0,0.0,0.0,0.0
2025/04/09 08:48:21.158630959,1744181301,155728122,mA1/imu,0.7113720313881021,0.7028149846073504,0.00022498691020295884,0.0009379504384965924,0.0,0.0,0.0,0.0,0.0,0.0,0.0,0.0,0.0,0.00037918122708251417,0.0011380825641196192,-0.00034601948982587066,0.0,0.0,0.0,0.0,0.0,0.0,0.0,0.0,0.0,0.007822615823601517,0.013659654676093206,9.811027732268547,0.0,0.0,0.0,0.0,0.0,0.0,0.0,0.0,0.0
2025/04/09 08:48:21.197722774,1744181301,196532015,mA1/imu,0.7113660639147009,0.70282103739265,0.0002526484880055838,0.0009212369763018294,0.0,0.0,0.0,0.0,0.0,0.0,0.0,0.0,0.0,-0.0010734478935668674,0.0013158608640234835,-0.00033387335439389893,0.0,0.0,0.0,0.0,0.0,0.0,0.0,0.0,0.0,0.00837147360954311,-0.08919719850769903,9.811096372873667,0.0,0.0,0.0,0.0,0.0,0.0,0.0,0.0,0.0
2025/04/09 08:48:21.249782493,1744181301,247383706,mA1/imu,0.7113595712202132,0.7028276331227772,0.00027546181008377335,0.0008959203201576382,0.0,0.0,0.0,0.0,0.0,0.0,0.0,0.0,0.0,-0.0010759793792101122,0.0013660432889781424,-0.00040597773328187675,0.0,0.0,0.0,0.0,0.0,0.0,0.0,0.0,0.0,0.010616975176429184,-0.0916041753541424,9.811323972574076,0.0,0.0,0.0,0.0,0.0,0.0,0.0,0.0,0.0
2025/04/09 08:48:21.298150518,1744181301,297385605,mA1/imu,0.7113511598575232,0.7028361783773156,0.00029030662594883134,0.0008657109158264555,0.0,0.0,0.0,0.0,0.0,0.0,0.0,0.0,0.0,0.000343663945265828,0.0011782578903350657,-0.0005574247752721905,0.0,0.0,0.0,0.0,0.0,0.0,0.0,0.0,0.0,0.02352226791593332,0.0038262413778560912,9.810688853251543,0.0,0.0,0.0,0.0,0.0,0.0,0.0,0.0,0.0
2025/04/09 08:48:21.348401560,1744181301,347211416,mA1/imu,0.7113399217339123,0.7028475723081776,0.00030572877735681153,0.0008440248854876824,0.0,0.0,0.0,0.0,0.0,0.0,0.0,0.0,0.0,0.00029799045311335135,0.0010487488442659752,-0.0006403806452724785,0.0,0.0,0.0,0.0,0.0,0.0,0.0,0.0,0.0,0.005545209262453416,0.6255390189627682,9.81179170996492,0.0,0.0,0.0,0.0,0.0,0.0,0.0,0.0,0.0
2025/04/09 08:48:21.407713695,1744181301,398381384,mA1/imu,0.7113288824894151,0.7028587561005222,0.00032557082194450157,0.0008269902215566895,0.0,0.0,0.0,0.0,0.0,0.0,0.0,0.0,0.0,0.0005367300842527456,0.0010293941288550225,-0.0006193301900645279,0.0,0.0,0.0,0.0,0.0,0.0,0.0,0.0,0.0,0.005603160037746143,0.011998681490788986,9.810026200311166,0.0,0.0,0.0,0.0,0.0,0.0,0.0,0.0,0.0
2025/04/09 08:48:21.450063874,1744181301,448451739,mA1/imu,0.7113189632340429,0.7028688062387008,0.00034497796596517634,0.0008091665052493643,0.0,0.0,0.0,0.0,0.0,0.0,0.0,0.0,0.0,0.0007858693540056448,0.0010693233265134951,-0.000509336797280736,0.0,0.0,0.0,0.0,0.0,0.0,0.0,0.0,0.0,0.0005128066236310836,-0.6023973908270226,9.807461981241357,0.0,0.0,0.0,0.0,0.0,0.0,0.0,0.0,0.0
2025/04/09 08:48:21.502691504,1744181301,499368810,mA1/imu,0.7113101878420509,0.7028777058669176,0.00035769142156554185,0.0007869715444597498,0.0,0.0,0.0,0.0,0.0,0.0,0.0,0.0,0.0,0.0007695833602038751,0.0009118195307172033,-0.0004923894290059367,0.0,0.0,0.0,0.0,0.0,0.0,0.0,0.0,0.0,0.00712454333778716,-0.6076232676144735,9.807868895224697,0.0,0.0,0.0,0.0,0.0,0.0,0.0,0.0,0.0
2025/04/09 08:48:21.551191895,1744181301,549234962,mA1/imu,0.7113042686989598,0.7028837148918818,0.0003710568587507359,0.0007635360066181371,0.0,0.0,0.0,0.0,0.0,0.0,0.0,0.0,0.0,-0.0009736710312631013,0.0011992146536013548,-0.000187825071158896,0.0,0.0,0.0,0.0,0.0,0.0,0.0,0.0,0.0,-0.010904383470410905,0.5289729366163644,9.810017967384455,0.0,0.0,0.0,0.0,0.0,0.0,0.0,0.0,0.0
2025/04/09 08:48:21.603581678,1744181301,600998483,mA1/imu,0.7113010370642978,0.7028870044944256,0.0003828554387635898,0.0007395984184788988,0.0,0.0,0.0,0.0,0.0,0.0,0.0,0.0,0.0,-0.0010461994702726848,0.0008891653426013118,-0.0001810115000236302,0.0,0.0,0.0,0.0,0.0,0.0,0.0,0.0,0.0,0.008282080665559025,0.522291438145554,9.809062046077983,0.0,0.0,0.0,0.0,0.0,0.0,0.0,0.0,0.0
2025/04/09 08:48:21.651536264,1744181301,650769837,mA1/imu,0.711297928456458,0.7028901669821779,0.0003880128596436253,0.0007208185196176144,0.0,0.0,0.0,0.0,0.0,0.0,0.0,0.0,0.0,0.0005911156424244483,0.0005342883592059606,-0.0001743443116746122,0.0,0.0,0.0,0.0,0.0,0.0,0.0,0.0,0.0,0.007636157679771861,0.007598863495346341,9.809069414937508,0.0,0.0,0.0,0.0,0.0,0.0,0.0,0.0,0.0
2025/04/09 08:48:21.705350009,1744181301,702074111,mA1/imu,0.7112949346596259,0.7028932092082467,0.00038711213982034964,0.0007088869314118242,0.0,0.0,0.0,0.0,0.0,0.0,0.0,0.0,0.0,0.002226620190325887,0.00015492910993885825,-0.00016816909147031504,0.0,0.0,0.0,0.0,0.0,0.0,0.0,0.0,0.0,0.007120639352956024,-0.5067335825008563,9.807778579730739,0.0,0.0,0.0,0.0,0.0,0.0,0.0,0.0,0.0
2025/04/09 08:48:21.754312659,1744181301,753481162,mA1/imu,0.7112952718640023,0.7028928689555443,0.0003884587479303024,0.0007071740665232321,0.0,0.0,0.0,0.0,0.0,0.0,0.0,0.0,0.0,0.000717534033186915,9.090139590389119e-05,0.0002174600048018947,0.0,0.0,0.0,0.0,0.0,0.0,0.0,0.0,0.0,-0.0069123219518942855,0.024314157861461023,9.80637012195614,0.0,0.0,0.0,0.0,0.0,0.0,0.0,0.0,0.0
2025/04/09 08:48:21.808570955,1744181301,806333904,mA1/imu,0.7113003557048375,0.7028877226910512,0.00038476779233943836,0.0007107869623007507,0.0,0.0,0.0,0.0,0.0,0.0,0.0,0.0,0.0,-0.0008012237337470664,-0.00042199605051552726,0.0003405737479973729,0.0,0.0,0.0,0.0,0.0,0.0,0.0,0.0,0.0,0.01279568369053682,-0.08654101524064693,9.808504070134164,0.0,0.0,0.0,0.0,0.0,0.0,0.0,0.0,0.0
2025/04/09 08:48:21.848307710,1744181301,846221490,mA1/imu,0.7113069672451324,0.7028810339671538,0.0003667247767361802,0.000718297107641776,0.0,0.0,0.0,0.0,0.0,0.0,0.0,0.0,0.0,-0.0009002422951294412,-0.0009039345101598375,0.00037504934346531816,0.0,0.0,0.0,0.0,0.0,0.0,0.0,0.0,0.0,0.011333015716638426,-0.09056760164635257,9.809297639210257,0.0,0.0,0.0,0.0,0.0,0.0,0.0,0.0,0.0
2025/04/09 08:48:21.899002056,1744181301,897157570,mA1/imu,0.7113134686387566,0.7028744591549311,0.0003360645169001448,0.0007287395998292177,0.0,0.0,0.0,0.0,0.0,0.0,0.0,0.0,0.0,0.00042089750733792416,-0.0013155510428864037,0.0003644488726190418,0.0,0.0,0.0,0.0,0.0,0.0,0.0,0.0,0.0,0.010550868104777497,0.003718464757398241,9.8092602992653,0.0,0.0,0.0,0.0,0.0,0.0,0.0,0.0,0.0
2025/04/09 08:48:21.947895390,1744181301,947010967,mA1/imu,0.711322935485304,0.7028648688576591,0.00030788080463187834,0.0007501917659945309,0.0,0.0,0.0,0.0,0.0,0.0,0.0,0.0,0.0,0.00025934603989754467,-0.0013746483525125105,0.0007001943425015664,0.0,0.0,0.0,0.0,0.0,0.0,0.0,0.0,0.0,-0.001406191736582062,0.6285452068506177,9.811958667780523,0.0,0.0,0.0,0.0,0.0,0.0,0.0,0.0,0.0
2025/04/09 08:48:21.998562448,1744181301,997963229,mA1/imu,0.7113364154214158,0.7028512035726052,0.000282998537312188,0.0007807968873749431,0.0,0.0,0.0,0.0,0.0,0.0,0.0,0.0,0.0,0.0004003463578612992,-0.0016882191934827868,0.0008144599515933089,0.0,0.0,0.0,0.0,0.0,0.0,0.0,0.0,0.0,0.011245025005211216,0.015307643491624078,9.810752707913343,0.0,0.0,0.0,0.0,0.0,0.0,0.0,0.0,0.0
2025/04/09 08:48:22.48622509,1744181302,47757582,mA1/imu,0.7113480996522855,0.7028393459603696,0.00025345048373580554,0.0008189346337305425,0.0,0.0,0.0,0.0,0.0,0.0,0.0,0.0,0.0,0.0004946708083824796,-0.002165986650849224,0.00048373890017644136,0.0,0.0,0.0,0.0,0.0,0.0,0.0,0.0,0.0,0.025392356391694036,-0.6096384037182049,9.807662235901256,0.0,0.0,0.0,0.0,0.0,0.0,0.0,0.0,0.0
2025/04/09 08:48:22.101375519,1744181302,100582061,mA1/imu,0.711355112299311,0.702832214160685,0.00021749747943868833,0.0008576936925508354,0.0,0.0,0.0,0.0,0.0,0.0,0.0,0.0,0.0,0.0003487286956379581,-0.0020864115473396253,0.00034063022181983347,0.0,0.0,0.0,0.0,0.0,0.0,0.0,0.0,0.0,0.008379938458177635,-0.6129511814682137,9.80943152571829,0.0,0.0,0.0,0.0,0.0,0.0,0.0,0.0,0.0
2025/04/09 08:48:22.151551875,1744181302,150415855,mA1/imu,0.7113595800508277,0.7028276528689312,0.00018581371982683714,0.0008964964700623375,0.0,0.0,0.0,0.0,0.0,0.0,0.0,0.0,0.0,-0.0015275976669703593,-0.0018955833336825785,0.00020119943734649468,0.0,0.0,0.0,0.0,0.0,0.0,0.0,0.0,0.0,0.0069982548695921125,0.5247704144904481,9.81236077473036,0.0,0.0,0.0,0.0,0.0,0.0,0.0,0.0,0.0
2025/04/09 08:48:22.203992916,1744181302,201433544,mA1/imu,0.7113615246792764,0.7028256446733064,0.00015919798234162967,0.0009322293326747509,0.0,0.0,0.0,0.0,0.0,0.0,0.0,0.0,0.0,-0.001693189611372592,-0.0016298111826562147,5.776427998165392e-05,0.0,0.0,0.0,0.0,0.0,0.0,0.0,0.0,0.0,0.006928992919619633,0.5194784733367669,9.81234896930992,0.0,0.0,0.0,0.0,0.0,0.0,0.0,0.0,0.0
2025/04/09 08:48:22.256680781,1744181302,252955385,mA1/imu,0.7113640731723725,0.7028230327616654,0.0001424398960925996,0.0009590256423037934,0.0,0.0,0.0,0.0,0.0,0.0,0.0,0.0,0.0,-9.35566625688352e-05,-0.0008418745869423063,0.0002770383012011367,0.0,0.0,0.0,0.0,0.0,0.0,0.0,0.0,0.0,-0.0139052595720778,0.009613653257604722,9.813051102769556,0.0,0.0,0.0,0.0,0.0,0.0,0.0,0.0,0.0
2025/04/09 08:48:22.305926720,1744181302,303933521,mA1/imu,0.7113688680195328,0.7028181585916922,0.0001374943390883395,0.0009750188195633863,0.0,0.0,0.0,0.0,0.0,0.0,0.0,0.0,0.0,0.0015529471759149302,-0.00042418126370437413,0.00027077697730772636,0.0,0.0,0.0,0.0,0.0,0.0,0.0,0.0,0.0,0.005601043749802804,-0.5064918545777741,9.811034446800381,0.0,0.0,0.0,0.0,0.0,0.0,0.0,0.0,0.0
2025/04/09 08:48:22.346722803,1744181302,345849334,mA1/imu,0.7113735472056999,0.7028134000902718,0.0001465396407310266,0.0009897048373608936,0.0,0.0,0.0,0.0,0.0,0.0,0.0,0.0,0.0,3.5306995066475585e-05,8.329752504349683e-06,0.00026448929053837127,0.0,0.0,0.0,0.0,0.0,0.0,0.0,0.0,0.0,0.007022234365034288,0.013591657542915952,9.81126212867839,0.0,0.0,0.0,0.0,0.0,0.0,0.0,0.0,0.0
2025/04/09 08:48:22.397714758,1744181302,396817331,mA1/imu,0.7113781172913566,0.7028087608617791,0.0001631073226990744,0.0009966398229701145,0.0,0.0,0.0,0.0,0.0,0.0,0.0,0.0,0.0,-0.0014423423057424174,0.0004408803956334987,0.00025856802713751336,0.0,0.0,0.0,0.0,0.0,0.0,0.0,0.0,0.0,0.0073639845775197435,-0.08930054257642019,9.811295610608237,0.0,0.0,0.0,0.0,0.0,0.0,0.0,0.0,0.0
2025/04/09 08:48:22.448457669,1744181302,446962018,mA1/imu,0.7113825865565189,0.7028042423002718,0.00018029417075768756,0.0009899711660939642,0.0,0.0,0.0,0.0,0.0,0.0,0.0,0.0,0.0,-0.0014460987367732265,0.000835379062106187,0.00025249063766137055,0.0,0.0,0.0,0.0,0.0,0.0,0.0,0.0,0.0,0.006865674639625648,-0.08970297016647535,9.811358327232826,0.0,0.0,0.0,0.0,0.0,0.0,0.0,0.0,0.0
2025/04/09 08:48:22.498507196,1744181302,497863603,mA1/imu,0.7113869526856929,0.7027998458317233,0.00019685672406893597,0.0009703066010418875,0.0,0.0,0.0,0.0,0.0,0.0,0.0,0.0,0.0,2.419169408741296e-06,0.0011545709656909826,0.0002462473749818511,0.0,0.0,0.0,0.0,0.0,0.0,0.0,0.0,0.0,0.00744003331141908,0.004347516614300859,9.810406830457788,0.0,0.0,0.0,0.0,0.0,0.0,0.0,0.0,0.0
2025/04/09 08:48:22.555267216,1744181302,547903045,mA1/imu,0.7113908669382167,0.7027959008401844,0.00021932284655359723,0.0009529410342925214,0.0,0.0,0.0,0.0,0.0,0.0,0.0,0.0,0.0,5.61108524934484e-08,0.0010812060066040987,0.00020258928111949087,0.0,0.0,0.0,0.0,0.0,0.0,0.0,0.0,0.0,0.01842766213293491,0.6288076360782188,9.811970450843573,0.0,0.0,0.0,0.0,0.0,0.0,0.0,0.0,0.0
2025/04/09 08:48:22.600898896,1744181302,599370725,mA1/imu,0.7113957077057456,0.7027910113481561,0.0002457907360461301,0.00093862292296778,0.0,0.0,0.0,0.0,0.0,0.0,0.0,0.0,0.0,0.00029834282682076344,0.001191092558347467,0.00032889066714853697,0.0,0.0,0.0,0.0,0.0,0.0,0.0,0.0,0.0,0.00933751954705051,0.015571562636085366,9.810158722943173,0.0,0.0,0.0,0.0,0.0,0.0,0.0,0.0,0.0
2025/04/09 08:48:22.649852837,1744181302,649201460,mA1/imu,0.7114014058240671,0.7027852576103293,0.0002740657387990667,0.0009199810295486164,0.0,0.0,0.0,0.0,0.0,0.0,0.0,0.0,0.0,0.000553206730138681,0.001395473550683502,0.00029693014187717244,0.0,0.0,0.0,0.0,0.0,0.0,0.0,0.0,0.0,0.0045742136699742295,-0.6112064648646617,9.807586197274528,0.0,0.0,0.0,0.0,0.0,0.0,0.0,0.0,0.0
2025/04/09 08:48:22.703602503,1744181302,700688941,mA1/imu,0.7114051917296825,0.7027814494004258,0.0002988244686176878,0.0008934554423436721,0.0,0.0,0.0,0.0,0.0,0.0,0.0,0.0,0.0,0.0005605282253099946,0.001449708913864351,0.00016096707889954034,0.0,0.0,0.0,0.0,0.0,0.0,0.0,0.0,0.0,0.009388063980782412,-0.6127018582211935,9.807241954909916,0.0,0.0,0.0,0.0,0.0,0.0,0.0,0.0,0.0
2025/04/09 08:48:22.751808406,1744181302,750930589,mA1/imu,0.7114074619120686,0.7027791743542942,0.00032263493013847636,0.0008666812719495987,0.0,0.0,0.0,0.0,0.0,0.0,0.0,0.0,0.0,-0.0011577094445257019,0.0014245717424586535,0.0001295165923076705,0.0,0.0,0.0,0.0,0.0,0.0,0.0,0.0,0.0,0.008213976766071815,0.5279699053921653,9.809589173052078,0.0,0.0,0.0,0.0,0.0,0.0,0.0,0.0,0.0
2025/04/09 08:48:22.811119016,1744181302,801905412,mA1/imu,0.7114097270014944,0.7027769051703768,0.0003431043722446732,0.000839146111453214,0.0,0.0,0.0,0.0,0.0,0.0,0.0,0.0,0.0,-0.0011579422150508353,0.001314912579663616,0.00012907752183900735,0.0,0.0,0.0,0.0,0.0,0.0,0.0,0.0,0.0,0.008783582538934506,0.5224218385396535,9.808969920677159,0.0,0.0,0.0,0.0,0.0,0.0,0.0,0.0,0.0
2025/04/09 08:48:22.856214542,1744181302,855432690,mA1/imu,0.7114119579764074,0.7027746706516389,0.0003589547792597461,0.0008120899708604985,0.0,0.0,0.0,0.0,0.0,0.0,0.0,0.0,0.0,0.0005581961139271526,0.001139790198329862,0.0001259791877474866,0.0,0.0,0.0,0.0,0.0,0.0,0.0,0.0,0.0,0.00796738122732459,0.007889696529449548,9.808905933258131,0.0,0.0,0.0,0.0,0.0,0.0,0.0,0.0,0.0
2025/04/09 08:48:22.898823610,1744181302,896477286,mA1/imu,0.7114141361094863,0.7027724876947444,0.00037009010262806013,0.000787728537977283,0.0,0.0,0.0,0.0,0.0,0.0,0.0,0.0,0.0,0.0022742348495036467,0.0008983885435628507,0.0001229113830163418,0.0,0.0,0.0,0.0,0.0,0.0,0.0,0.0,0.0,0.007740046965565814,-0.5064141039540461,9.807645756242435,0.0,0.0,0.0,0.0,0.0,0.0,0.0,0.0,0.0
2025/04/09 08:48:22.947063867,1744181302,946103645,mA1/imu,0.7114162548299784,0.7027703524758377,0.00038192473881221275,0.000773419787729615,0.0,0.0,0.0,0.0,0.0,0.0,0.0,0.0,0.0,0.0007937041687489414,0.0006129175549376274,0.0001196869972791482,0.0,0.0,0.0,0.0,0.0,0.0,0.0,0.0,0.0,0.00897713311173447,0.013473412888376658,9.808014857378621,0.0,0.0,0.0,0.0,0.0,0.0,0.0,0.0,0.0
2025/04/09 08:48:22.998489852,1744181302,997770158,mA1/imu,0.7114183208180915,0.70276826806904,0.00038798544968836676,0.0007639809551545286,0.0,0.0,0.0,0.0,0.0,0.0,0.0,0.0,0.0,-0.0006836817807495285,0.0003087359148412953,0.00011645964992315573,0.0,0.0,0.0,0.0,0.0,0.0,0.0,0.0,0.0,0.009001567991984233,-0.08931708797261893,9.808622618051665,0.0,0.0,0.0,0.0,0.0,0.0,0.0,0.0,0.0
2025/04/09 08:48:23.48689913,1744181303,47749881,mA1/imu,0.7114203705646629,0.7027662069963693,0.00038208301981504226,0.000754096903606326,0.0,0.0,0.0,0.0,0.0,0.0,0.0,0.0,0.0,-0.0007226466694463989,-1.5363666824388965e-05,0.00011582598402032678,0.0,0.0,0.0,0.0,0.0,0.0,0.0,0.0,0.0,0.008518027578046415,-0.09012340025591192,9.809182215032465,0.0,0.0,0.0,0.0,0.0,0.0,0.0,0.0,0.0
2025/04/09 08:48:23.100751346,1744181303,98719793,mA1/imu,0.7114224221166837,0.702764150159885,0.0003644834636406263,0.0007441179278682383,0.0,0.0,0.0,0.0,0.0,0.0,0.0,0.0,0.0,0.000656661018795251,-0.00034119536038982316,0.00011568756215748475,0.0,0.0,0.0,0.0,0.0,0.0,0.0,0.0,0.0,0.008263234732979196,0.0037201602686933385,9.809140970373635,0.0,0.0,0.0,0.0,0.0,0.0,0.0,0.0,0.0
2025/04/09 08:48:23.150137550,1744181303,149220996,mA1/imu,0.71142494041469,0.7027616076449166,0.00034489093614264283,0.0007470117331678826,0.0,0.0,0.0,0.0,0.0,0.0,0.0,0.0,0.0,0.0005709695944549659,-0.0008295770659548993,0.00016786627324906405,0.0,0.0,0.0,0.0,0.0,0.0,0.0,0.0,0.0,0.014074636016458099,0.6299442037541504,9.811288162837196,0.0,0.0,0.0,0.0,0.0,0.0,0.0,0.0,0.0
2025/04/09 08:48:23.204303305,1744181303,201080639,mA1/imu,0.7114290919153892,0.7027573986228636,0.0003236665960739815,0.0007622973205068375,0.0,0.0,0.0,0.0,0.0,0.0,0.0,0.0,0.0,0.0007396946193183683,-0.0011677441646996871,0.0002669976389136356,0.0,0.0,0.0,0.0,0.0,0.0,0.0,0.0,0.0,0.010070487367164344,0.01136346388657511,9.81056572744773,0.0,0.0,0.0,0.0,0.0,0.0,0.0,0.0,0.0
2025/04/09 08:48:23.252390314,1744181303,251074154,mA1/imu,0.7114337149920313,0.7027527062640969,0.000298420873291496,0.0007835535129560791,0.0,0.0,0.0,0.0,0.0,0.0,0.0,0.0,0.0,0.0008914223705800189,-0.0014205145535473133,0.00025979675464418765,0.0,0.0,0.0,0.0,0.0,0.0,0.0,0.0,0.0,0.01035719670765919,-0.6047903862416493,9.809109391351017,0.0,0.0,0.0,0.0,0.0,0.0,0.0,0.0,0.0
2025/04/09 08:48:23.303525821,1744181303,302131385,mA1/imu,0.7114382218783235,0.7027481332321522,0.0002660345751590494,0.0008043102257838928,0.0,0.0,0.0,0.0,0.0,0.0,0.0,0.0,0.0,0.0007755157689131331,-0.0015611889583111744,0.0002529505901315763,0.0,0.0,0.0,0.0,0.0,0.0,0.0,0.0,0.0,0.009539462037262324,-0.6082291874699615,9.809771163582303,0.0,0.0,0.0,0.0,0.0,0.0,0.0,0.0,0.0
2025/04/09 08:48:23.352988144,1744181303,351915229,mA1/imu,0.7114426114227003,0.7027436730639938,0.00023377388333942114,0.0008282332682581369,0.0,0.0,0.0,0.0,0.0,0.0,0.0,0.0,0.0,-0.001087856883606269,-0.0015881658111354313,0.0002463629040066755,0.0,0.0,0.0,0.0,0.0,0.0,0.0,0.0,0.0,0.00886299210361071,0.5275272291513622,9.812163206412182,0.0,0.0,0.0,0.0,0.0,0.0,0.0,0.0,0.0
2025/04/09 08:48:23.406510851,1744181303,402890719,mA1/imu,0.7114468916264846,0.7027393203003636,0.00020265833505508343,0.0008526596010787477,0.0,0.0,0.0,0.0,0.0,0.0,0.0,0.0,0.0,-0.0012509765946549071,-0.0015327721204698834,0.00024047977761407148,0.0,0.0,0.0,0.0,0.0,0.0,0.0,0.0,0.0,0.008327174429374893,0.522147311162289,9.812088806270712,0.0,0.0,0.0,0.0,0.0,0.0,0.0,0.0,0.0
2025/04/09 08:48:23.455616404,1744181303,454557948,mA1/imu,0.711450043554463,0.7027361075922788,0.00017455029914631952,0.0008764385882658172,0.0,0.0,0.0,0.0,0.0,0.0,0.0,0.0,0.0,0.0002706734815866258,-0.0014026205232284988,0.00012273748964959568,0.0,0.0,0.0,0.0,0.0,0.0,0.0,0.0,0.0,0.007448611011288006,0.004312129381209262,9.812266039391565,0.0,0.0,0.0,0.0,0.0,0.0,0.0,0.0,0.0
2025/04/09 08:48:23.507536048,1744181303,505489793,mA1/imu,0.7114521800837703,0.7027339218166172,0.0001520104280309082,0.0008985961923027861,0.0,0.0,0.0,0.0,0.0,0.0,0.0,0.0,0.0,0.001839681870701748,-0.0011679138272166773,0.00012046825392629306,0.0,0.0,0.0,0.0,0.0,0.0,0.0,0.0,0.0,0.006500375538259632,-0.5064767664211779,9.810884090243196,0.0,0.0,0.0,0.0,0.0,0.0,0.0,0.0,0.0
2025/04/09 08:48:23.559657269,1744181303,555770852,mA1/imu,0.7114542651673976,0.7027317804214676,0.00014218539986867135,0.0009236580020116551,0.0,0.0,0.0,0.0,0.0,0.0,0.0,0.0,0.0,0.00023392011161772695,-0.0008691174314714501,0.00011814633064663077,0.0,0.0,0.0,0.0,0.0,0.0,0.0,0.0,0.0,0.007755956258344198,0.01328138166398059,9.811147158723529,0.0,0.0,0.0,0.0,0.0,0.0,0.0,0.0,0.0
2025/04/09 08:48:23.598216985,1744181303,597108596,mA1/imu,0.7114563102043874,0.7027296835132678,0.00013937086293732537,0.000944010309139898,0.0,0.0,0.0,0.0,0.0,0.0,0.0,0.0,0.0,-0.001228274882642883,-0.0005130876740676215,0.00011612926841170175,0.0,0.0,0.0,0.0,0.0,0.0,0.0,0.0,0.0,0.007623434370692858,-0.1295328904902662,9.811155734776298,0.0,0.0,0.0,0.0,0.0,0.0,0.0,0.0,0.0
2025/04/09 08:48:23.647798713,1744181303,646919574,mA1/imu,0.7114550983895616,0.702730895791965,0.000135185426428227,0.0009554055798914596,0.0,0.0,0.0,0.0,0.0,0.0,0.0,0.0,0.0,-0.0014489730670417022,-0.0004537156109744822,-0.0002491497666030581,0.0,0.0,0.0,0.0,0.0,0.0,0.0,0.0,0.0,0.02160773503593421,-0.09692218437011918,9.811558770719476,0.0,0.0,0.0,0.0,0.0,0.0,0.0,0.0,0.0
2025/04/09 08:48:23.698562830,1744181303,697858519,mA1/imu,0.7114496347157702,0.7027364189641336,0.00013191095662363697,0.0009619375043480634,0.0,0.0,0.0,0.0,0.0,0.0,0.0,0.0,0.0,-0.00021197410534363356,-0.00010583286810568746,-0.0003336819241158172,0.0,0.0,0.0,0.0,0.0,0.0,0.0,0.0,0.0,0.003329593704177498,0.0020963057821855938,9.81042151599853,0.0,0.0,0.0,0.0,0.0,0.0,0.0,0.0,0.0
2025/04/09 08:48:23.748749306,1744181303,747707028,mA1/imu,0.7114438687140041,0.7027422495004775,0.00014240985246270993,0.0009654821042538227,0.0,0.0,0.0,0.0,0.0,0.0,0.0,0.0,0.0,-0.00029669255780383045,0.00040572133375301736,-0.00032398323708095005,0.0,0.0,0.0,0.0,0.0,0.0,0.0,0.0,0.0,0.003976694093116871,0.6244961571313397,9.811846297434856,0.0,0.0,0.0,0.0,0.0,0.0,0.0,0.0,0.0
2025/04/09 08:48:23.800403619,1744181303,798966778,mA1/imu,0.7114382540486829,0.7027479282128136,0.00016674713221929738,0.0009655382715139204,0.0,0.0,0.0,0.0,0.0,0.0,0.0,0.0,0.0,-8.465776760548736e-05,0.000871505127428262,-0.00031474134408236097,0.0,0.0,0.0,0.0,0.0,0.0,0.0,0.0,0.0,0.004092105420325412,0.011558039841817806,9.810083375019422,0.0,0.0,0.0,0.0,0.0,0.0,0.0,0.0,0.0
2025/04/09 08:48:23.850765910,1744181303,848821955,mA1/imu,0.7114335501225437,0.7027526933250803,0.00019870242079850166,0.0009572365055557862,0.0,0.0,0.0,0.0,0.0,0.0,0.0,0.0,0.0,0.00016729093112776986,0.001320734504388815,-0.00021630356741683923,0.0,0.0,0.0,0.0,0.0,0.0,0.0,0.0,0.0,0.0012793635860804137,-0.6020764500583997,9.807369625626713,0.0,0.0,0.0,0.0,0.0,0.0,0.0,0.0,0.0
2025/04/09 08:48:23.903197553,1744181303,900081234,mA1/imu,0.7114308040655103,0.702755492453407,0.00023245301876418956,0.0009353175210061947,0.0,0.0,0.0,0.0,0.0,0.0,0.0,0.0,0.0,0.00018504823533805028,0.0016932140785636022,-0.000129872397794279,0.0,0.0,0.0,0.0,0.0,0.0,0.0,0.0,0.0,0.008341775406911441,-0.6077325792091013,9.807727769229135,0.0,0.0,0.0,0.0,0.0,0.0,0.0,0.0,0.0
2025/04/09 08:48:23.950637204,1744181303,949840233,mA1/imu,0.7114285382131679,0.7027578077591422,0.0002690784073072233,0.0009089808856407744,0.0,0.0,0.0,0.0,0.0,0.0,0.0,0.0,0.0,-0.001535166784258253,0.0018365588131111414,-0.00012682270219737296,0.0,0.0,0.0,0.0,0.0,0.0,0.0,0.0,0.0,0.008165933830421024,0.5279025375072219,9.809647293777148,0.0,0.0,0.0,0.0,0.0,0.0,0.0,0.0,0.0
2025/04/09 08:48:24.5401948,1744181304,3166797,mA1/imu,0.7114263241011877,0.7027600719297535,0.0003048809404878994,0.0008796162639026627,0.0,0.0,0.0,0.0,0.0,0.0,0.0,0.0,0.0,-0.0015352988370412371,0.0018502101651741785,-0.00012399047370115408,0.0,0.0,0.0,0.0,0.0,0.0,0.0,0.0,0.0,0.008964620997693032,0.5225609669000454,9.80902733563686,0.0,0.0,0.0,0.0,0.0,0.0,0.0,0.0,0.0
2025/04/09 08:48:24.54092642,1744181304,53010338,mA1/imu,0.7114241588528598,0.7027622867324528,0.000337682810086049,0.000848832960311982,0.0,0.0,0.0,0.0,0.0,0.0,0.0,0.0,0.0,0.00019442327539603493,0.0017574297491430942,-0.0001213225413387966,0.0,0.0,0.0,0.0,0.0,0.0,0.0,0.0,0.0,0.008475003165890664,0.007847809774572972,9.808929024801175,0.0,0.0,0.0,0.0,0.0,0.0,0.0,0.0,0.0
2025/04/09 08:48:24.108062728,1744181304,104069621,mA1/imu,0.7114220387157776,0.7027644536775474,0.00036640620803205225,0.0008192821709632559,0.0,0.0,0.0,0.0,0.0,0.0,0.0,0.0,0.0,0.0019402278906926374,0.001558713357145623,-0.000118900050092264,0.0,0.0,0.0,0.0,0.0,0.0,0.0,0.0,0.0,0.008506701122709109,-0.5063971576057177,9.807698714677798,0.0,0.0,0.0,0.0,0.0,0.0,0.0,0.0,0.0
2025/04/09 08:48:24.156254079,1744181304,154935110,mA1/imu,0.71142084773725,0.7027656668108384,0.00039420882314103185,0.0007997225355810338,0.0,0.0,0.0,0.0,0.0,0.0,0.0,0.0,0.0,0.0005170993182436419,0.0011642510201913272,-9.651711365719924e-06,0.0,0.0,0.0,0.0,0.0,0.0,0.0,0.0,0.0,0.01296010411779391,0.016936091132702127,9.807777519480824,0.0,0.0,0.0,0.0,0.0,0.0,0.0,0.0,0.0
2025/04/09 08:48:24.207069279,1744181304,205857427,mA1/imu,0.7114220077640662,0.7027644962804792,0.00041350838772808633,0.0007865414182062913,0.0,0.0,0.0,0.0,0.0,0.0,0.0,0.0,0.0,-0.0008753718136130502,0.0007246192198703011,0.00012364294896754745,0.0,0.0,0.0,0.0,0.0,0.0,0.0,0.0,0.0,0.014408618407510943,-0.06846033988924599,9.80848697393503,0.0,0.0,0.0,0.0,0.0,0.0,0.0,0.0,0.0
2025/04/09 08:48:24.256533325,1744181304,255665413,mA1/imu,0.7114249857834495,0.7027614984715762,0.00041476104656635964,0.0007706116257286534,0.0,0.0,0.0,0.0,0.0,0.0,0.0,0.0,0.0,-0.0006411971397105713,0.0003567090995858411,0.00020103093671296175,0.0,0.0,0.0,0.0,0.0,0.0,0.0,0.0,0.0,0.007710736725403367,-0.0707134887332899,9.80944336804869,0.0,0.0,0.0,0.0,0.0,0.0,0.0,0.0,0.0
2025/04/09 08:48:24.298945637,1744181304,296569851,mA1/imu,0.7114310564572432,0.7027553863398632,0.00040048293780669734,0.0007473231273843483,0.0,0.0,0.0,0.0,0.0,0.0,0.0,0.0,0.0,0.0010518140943002238,0.00027257245207021016,0.0004852025991739523,0.0,0.0,0.0,0.0,0.0,0.0,0.0,0.0,0.0,-0.00480170900665038,0.024480453960026675,9.809650671379572,0.0,0.0,0.0,0.0,0.0,0.0,0.0,0.0,0.0
2025/04/09 08:48:24.347256855,1744181304,346458124,mA1/imu,0.7114408131750499,0.7027455410481449,0.00038321389430152593,0.0007259703058951324,0.0,0.0,0.0,0.0,0.0,0.0,0.0,0.0,0.0,0.0013366403309474897,-5.090558302269707e-05,0.0005503349315463248,0.0,0.0,0.0,0.0,0.0,0.0,0.0,0.0,0.0,0.00932435238142488,0.6610267118563031,9.81147288763041,0.0,0.0,0.0,0.0,0.0,0.0,0.0,0.0,0.0
2025/04/09 08:48:24.399073074,1744181304,397286054,mA1/imu,0.7114505554286228,0.7027357054332504,0.00035890566584827405,0.0007118119550317866,0.0,0.0,0.0,0.0,0.0,0.0,0.0,0.0,0.0,0.0005922409640297645,-0.0004543531978914392,0.0005544496722894536,0.0,0.0,0.0,0.0,0.0,0.0,0.0,0.0,0.0,0.009400377694258544,0.3118721512663632,9.810896197856218,0.0,0.0,0.0,0.0,0.0,0.0,0.0,0.0,0.0
2025/04/09 08:48:24.448613162,1744181304,447546603,mA1/imu,0.7114604828372534,0.7027257017182378,0.0003110033020336765,0.000687591840176066,0.0,0.0,0.0,0.0,0.0,0.0,0.0,0.0,0.0,0.002847655953824859,-0.0008380813924430958,0.0005660301970378082,0.0,0.0,0.0,0.0,0.0,0.0,0.0,0.0,0.0,0.009206233746877793,-0.272237391017877,9.810015727267363,0.0,0.0,0.0,0.0,0.0,0.0,0.0,0.0,0.0
2025/04/09 08:48:24.500371862,1744181304,498468890,mA1/imu,0.7114706446431427,0.7027154590802767,0.00025252258798305215,0.0006645396975299448,0.0,0.0,0.0,0.0,0.0,0.0,0.0,0.0,0.0,0.002427748694471632,-0.0011402148428835222,0.0005852758634358702,0.0,0.0,0.0,0.0,0.0,0.0,0.0,0.0,0.0,0.009274734925898514,0.042906068491293387,9.810837024665718,0.0,0.0,0.0,0.0,0.0,0.0,0.0,0.0,0.0
2025/04/09 08:48:24.550092820,1744181304,548281857,mA1/imu,0.711481402683564,0.7027046142879845,0.00017959858295240775,0.0006375250209976432,0.0,0.0,0.0,0.0,0.0,0.0,0.0,0.0,0.0,0.0034238230064962847,-0.0014199820029810928,0.0006263707607493298,0.0,0.0,0.0,0.0,0.0,0.0,0.0,0.0,0.0,0.009004737125670795,-0.4228687926802746,9.811066849355388,0.0,0.0,0.0,0.0,0.0,0.0,0.0,0.0,0.0
2025/04/09 08:48:24.602693242,1744181304,599288586,mA1/imu,0.7114928594590191,0.7026930596983085,9.364466037149668e-05,0.0006049969713368757,0.0,0.0,0.0,0.0,0.0,0.0,0.0,0.0,0.0,0.004536689065232686,-0.0016013004474618481,0.0006635398687188607,0.0,0.0,0.0,0.0,0.0,0.0,0.0,0.0,0.0,0.00839639093636474,-0.482993753896305,9.810416028373897,0.0,0.0,0.0,0.0,0.0,0.0,0.0,0.0,0.0
2025/04/09 08:48:24.651476392,1744181304,649089527,mA1/imu,0.711505162561875,0.702680640414894,-3.0442618319381906e-06,0.0005667668363253487,0.0,0.0,0.0,0.0,0.0,0.0,0.0,0.0,0.0,0.0041833658222453505,-0.0017156379557311814,0.0007193183326393016,0.0,0.0,0.0,0.0,0.0,0.0,0.0,0.0,0.0,0.009307460897024285,0.11868681313672942,9.812039369838349,0.0,0.0,0.0,0.0,0.0,0.0,0.0,0.0,0.0
2025/04/09 08:48:24.701326523,1744181304,700108891,mA1/imu,0.711518512565987,0.7026671467380332,-0.00010431298426533201,0.0005256326835199617,0.0,0.0,0.0,0.0,0.0,0.0,0.0,0.0,0.0,0.00355612894475757,-0.0017229166773129335,0.0007811410143228354,0.0,0.0,0.0,0.0,0.0,0.0,0.0,0.0,0.0,0.008930200887437706,0.20006105505627428,9.811645879956112,0.0,0.0,0.0,0.0,0.0,0.0,0.0,0.0,0.0
2025/04/09 08:48:24.755208202,1744181304,749943054,mA1/imu,0.7115330433876463,0.7026524446487359,-0.00021513795022881754,0.00047319375653927974,0.0,0.0,0.0,0.0,0.0,0.0,0.0,0.0,0.0,0.005495604425006453,-0.001637583992088802,0.0008531152878256457,0.0,0.0,0.0,0.0,0.0,0.0,0.0,0.0,0.0,0.00792234020594281,-0.4478437864190298,9.811336012620027,0.0,0.0,0.0,0.0,0.0,0.0,0.0,0.0,0.0
2025/04/09 08:48:24.803107198,1744181304,801551978,mA1/imu,0.7115487052797945,0.7026365784212399,-0.00032402584208887273,0.00041675699696697946,0.0,0.0,0.0,0.0,0.0,0.0,0.0,0.0,0.0,0.0047332801665796445,-0.0014367728645308343,0.0009142819625645935,0.0,0.0,0.0,0.0,0.0,0.0,0.0,0.0,0.0,0.007954553152436377,-0.06334752815734393,9.81141222407933,0.0,0.0,0.0,0.0,0.0,0.0,0.0,0.0,0.0
2025/04/09 08:48:24.856229002,1744181304,852297161,mA1/imu,-0.7115657234305746,-0.702619320389742,0.00043252494331878246,-0.00035323639914054065,0.0,0.0,0.0,0.0,0.0,0.0,0.0,0.0,0.0,0.005076974415611015,-0.001192963406968304,0.0010023091166577376,0.0,0.0,0.0,0.0,0.0,0.0,0.0,0.0,0.0,0.007892891146495974,-0.2900874145359098,9.810148861196055,0.0,0.0,0.0,0.0,0.0,0.0,0.0,0.0,0.0
2025/04/09 08:48:24.908580589,1744181304,904463476,mA1/imu,-0.7115843523750044,-0.70260041507945,0.0005318935646775263,-0.00028857315558189186,0.0,0.0,0.0,0.0,0.0,0.0,0.0,0.0,0.0,0.0036615083754027574,-0.0008831547584408614,0.0010979178715456166,0.0,0.0,0.0,0.0,0.0,0.0,0.0,0.0,0.0,0.008857843375179801,0.5693758687423892,9.81121739389712,0.0,0.0,0.0,0.0,0.0,0.0,0.0,0.0,0.0
2025/04/09 08:48:24.956481261,1744181304,955104761,mA1/imu,-0.7116047281798478,-0.7025797285222372,0.000622297720246234,-0.00022056122000485922,0.0,0.0,0.0,0.0,0.0,0.0,0.0,0.0,0.0,0.004738232879843137,-0.0005149942135567134,0.0011956045730108597,0.0,0.0,0.0,0.0,0.0,0.0,0.0,0.0,0.0,0.007561156438920751,0.02386876105633746,9.810518733478654,0.0,0.0,0.0,0.0,0.0,0.0,0.0,0.0,0.0
2025/04/09 08:48:25.8881425,1744181305,6045300,mA1/imu,-0.7116267650349827,-0.7025573592244121,0.0006918994909164583,-0.00015987670384333283,0.0,0.0,0.0,0.0,0.0,0.0,0.0,0.0,0.0,0.0034252328091958105,-0.0001230442737387222,0.0012923001984104395,0.0,0.0,0.0,0.0,0.0,0.0,0.0,0.0,0.0,0.008366153145352873,0.25316757239735854,9.810364722770405,0.0,0.0,0.0,0.0,0.0,0.0,0.0,0.0,0.0
2025/04/09 08:48:25.48389448,1744181305,46638292,mA1/imu,-0.7116505369841566,-0.7025332371878141,0.0007436880079327257,-0.00010384950148164998,0.0,0.0,0.0,0.0,0.0,0.0,0.0,0.0,0.0,0.0029816687429750632,0.0002595916028708658,0.0013922482621456323,0.0,0.0,0.0,0.0,0.0,0.0,0.0,0.0,0.0,0.007800969512588036,0.14802863537409394,9.809493704918218,0.0,0.0,0.0,0.0,0.0,0.0,0.0,0.0,0.0
2025/04/09 08:48:25.97719955,1744181305,96706159,mA1/imu,-0.711676088489992,-0.7025073292481657,0.0007706423418178664,-5.9452293125928355e-05,0.0,0.0,0.0,0.0,0.0,0.0,0.0,0.0,0.0,0.0034090160204300526,0.0006195411661565765,0.0014946865877224597,0.0,0.0,0.0,0.0,0.0,0.0,0.0,0.0,0.0,0.007885083440419369,-0.3845083585223334,9.80778305751651,0.0,0.0,0.0,0.0,0.0,0.0,0.0,0.0,0.0
2025/04/09 08:48:25.147939325,1744181305,146740389,mA1/imu,-0.7117036201004425,-0.7024794393332452,0.0007703820925243954,-3.1006548516256214e-05,0.0,0.0,0.0,0.0,0.0,0.0,0.0,0.0,0.0,0.0022161945113721208,0.0009136218765903623,0.0016122361900027258,0.0,0.0,0.0,0.0,0.0,0.0,0.0,0.0,0.0,0.008714956258895604,-0.3981373286807031,9.806897374650838,0.0,0.0,0.0,0.0,0.0,0.0,0.0,0.0,0.0
2025/04/09 08:48:25.200517413,1744181305,197773088,mA1/imu,-0.7117329545071712,-0.7024497459950069,0.0007453853457298607,-1.4856961323041185e-05,0.0,0.0,0.0,0.0,0.0,0.0,0.0,0.0,0.0,0.0003302091479574132,0.0012660515714373645,0.00170985135106547,0.0,0.0,0.0,0.0,0.0,0.0,0.0,0.0,0.0,0.008154185828788236,-0.4529719337701459,9.808446568604081,0.0,0.0,0.0,0.0,0.0,0.0,0.0,0.0,0.0
2025/04/09 08:48:25.248556566,1744181305,247642788,mA1/imu,-0.7117641958934369,-0.7024181345027705,0.0007026322894508575,-8.58388288140356e-06,0.0,0.0,0.0,0.0,0.0,0.0,0.0,0.0,0.0,-0.0009390574777124842,0.0014597835566291613,0.0018229044794977054,0.0,0.0,0.0,0.0,0.0,0.0,0.0,0.0,0.0,0.009651103510792517,0.1604500494872092,9.809147951726246,0.0,0.0,0.0,0.0,0.0,0.0,0.0,0.0,0.0
2025/04/09 08:48:25.299539907,1744181305,298548515,mA1/imu,-0.7117973579287785,-0.7023845952288454,0.0006333119112973658,-2.338470329327978e-05,0.0,0.0,0.0,0.0,0.0,0.0,0.0,0.0,0.0,-0.003144719061486139,0.0016025432517527255,0.0019273215707852522,0.0,0.0,0.0,0.0,0.0,0.0,0.0,0.0,0.0,0.008700402893750589,0.7114856172106895,9.80760749790236,0.0,0.0,0.0,0.0,0.0,0.0,0.0,0.0,0.0
2025/04/09 08:48:25.350153768,1744181305,348382286,mA1/imu,-0.7118322348220663,-0.7023493213977217,0.0005450751431738756,-5.561898102742066e-05,0.0,0.0,0.0,0.0,0.0,0.0,0.0,0.0,0.0,-0.00434847332230275,0.0016158332450550265,0.002024190589414329,0.0,0.0,0.0,0.0,0.0,0.0,0.0,0.0,0.0,0.009135985418802273,0.6919007885418007,9.807793903409145,0.0,0.0,0.0,0.0,0.0,0.0,0.0,0.0,0.0
2025/04/09 08:48:25.401150473,1744181305,399341465,mA1/imu,-0.7118691239841527,-0.7023119960218926,0.0004479862651213674,-9.93483082430165e-05,0.0,0.0,0.0,0.0,0.0,0.0,0.0,0.0,0.0,-0.0039194919550371065,0.0014861928619449875,0.0021441537146458752,0.0,0.0,0.0,0.0,0.0,0.0,0.0,0.0,0.0,0.010223040160871775,0.14687045153237333,9.80716865269064,0.0,0.0,0.0,0.0,0.0,0.0,0.0,0.0,0.0
2025/04/09 08:48:25.451454826,1744181305,449526666,mA1/imu,-0.7119080133838198,-0.7022726265456818,0.00033213169490745693,-0.00016784835284049026,0.0,0.0,0.0,0.0,0.0,0.0,0.0,0.0,0.0,-0.0045917044497606335,0.0012727116167994092,0.0022580593526038703,0.0,0.0,0.0,0.0,0.0,0.0,0.0,0.0,0.0,0.00993555158224543,0.13733729459536387,9.81149024667641,0.0,0.0,0.0,0.0,0.0,0.0,0.0,0.0,0.0
2025/04/09 08:48:25.502534006,1744181305,500507361,mA1/imu,0.7119488724148063,0.7022312271794484,-0.0002195392589166341,0.0002417516195383065,0.0,0.0,0.0,0.0,0.0,0.0,0.0,0.0,0.0,-0.003635259057598424,0.0010164050243916401,0.0023758957080141216,0.0,0.0,0.0,0.0,0.0,0.0,0.0,0.0,0.0,0.010664957123508498,-0.3942840163895247,9.807573017186105,0.0,0.0,0.0,0.0,0.0,0.0,0.0,0.0,0.0
2025/04/09 08:48:25.555299328,1744181305,550941988,mA1/imu,0.7119941308575825,0.7021853316548925,-9.792923859357639e-05,0.00032869884174925617,0.0,0.0,0.0,0.0,0.0,0.0,0.0,0.0,0.0,-0.006286673674055834,0.001077757722260591,0.0027628482237910612,0.0,0.0,0.0,0.0,0.0,0.0,0.0,0.0,0.0,-0.0028598997153466265,0.5025875144140528,9.810083102492348,0.0,0.0,0.0,0.0,0.0,0.0,0.0,0.0,0.0
2025/04/09 08:48:25.604157606,1744181305,601986944,mA1/imu,0.7120475089839254,0.7021311655417224,2.462628261245986e-05,0.0004131807776057372,0.0,0.0,0.0,0.0,0.0,0.0,0.0,0.0,0.0,-0.00661946786843559,0.001148432626260507,0.00321839765716037,0.0,0.0,0.0,0.0,0.0,0.0,0.0,0.0,0.0,-0.0035855395772562,0.6595832580042407,9.810614391592384,0.0,0.0,0.0,0.0,0.0,0.0,0.0,0.0,0.0
2025/04/09 08:48:25.653065860,1744181305,651784832,mA1/imu,0.712108470335986,0.7020692728965492,0.00014370984894235871,0.0004918106668955539,0.0,0.0,0.0,0.0,0.0,0.0,0.0,0.0,0.0,-0.006033532138588427,0.001175606980866557,0.003651122774551616,0.0,0.0,0.0,0.0,0.0,0.0,0.0,0.0,0.0,-0.002559788956913076,0.45348838341493525,9.8118375447168,0.0,0.0,0.0,0.0,0.0,0.0,0.0,0.0,0.0
2025/04/09 08:48:25.704395765,1744181305,702742395,mA1/imu,0.7121773271421445,0.7019993402251543,0.0002543351814574603,0.0005624426497484463,0.0,0.0,0.0,0.0,0.0,0.0,0.0,0.0,0.0,-0.004739533971533195,0.001164576144179475,0.004108305896931871,0.0,0.0,0.0,0.0,0.0,0.0,0.0,0.0,0.0,-0.003078176258345823,-0.1990890930468044,9.809111367037948,0.0,0.0,0.0,0.0,0.0,0.0,0.0,0.0,0.0
2025/04/09 08:48:25.753414587,1744181305,752625802,mA1/imu,0.7122543553060205,0.7019210898566777,0.0003545326462251804,0.0006255146853174348,0.0,0.0,0.0,0.0,0.0,0.0,0.0,0.0,0.0,-0.0033808827297572936,0.001014355431064532,0.0045767245593909675,0.0,0.0,0.0,0.0,0.0,0.0,0.0,0.0,0.0,-0.0037218050261541326,-0.48196945534554786,9.811473279802003,0.0,0.0,0.0,0.0,0.0,0.0,0.0,0.0,0.0
2025/04/09 08:48:25.805570273,1744181305,803548392,mA1/imu,0.712337042511011,0.7018370830496171,0.0004336594531293508,0.0006772462990214475,0.0,0.0,0.0,0.0,0.0,0.0,0.0,0.0,0.0,-0.002804130475961253,0.0005293542508957625,0.0047324896605486656,0.0,0.0,0.0,0.0,0.0,0.0,0.0,0.0,0.0,0.013505384217229913,0.13159265304677656,9.81030035055022,0.0,0.0,0.0,0.0,0.0,0.0,0.0,0.0,0.0
2025/04/09 08:48:25.854286067,1744181305,853397259,mA1/imu,0.7124195125244775,0.7017532776042913,0.0004908456773318474,0.0007311747679038907,0.0,0.0,0.0,0.0,0.0,0.0,0.0,0.0,0.0,-0.0035624109679873233,-0.00014655473602347531,0.004679284511370281,0.0,0.0,0.0,0.0,0.0,0.0,0.0,0.0,0.0,0.011456835506810644,0.47210047594828575,9.8111901694199,0.0,0.0,0.0,0.0,0.0,0.0,0.0,0.0,0.0
2025/04/09 08:48:25.908366416,1744181305,904457212,mA1/imu,0.7125006040722808,0.7016708895848919,0.0005099187341727925,0.0007693430094959805,0.0,0.0,0.0,0.0,0.0,0.0,0.0,0.0,0.0,-0.0011597420096234384,-0.0007467759250842815,0.004587276068705144,0.0,0.0,0.0,0.0,0.0,0.0,0.0,0.0,0.0,0.009680235894649624,0.12884668000915678,9.812693431680646,0.0,0.0,0.0,0.0,0.0,0.0,0.0,0.0,0.0
2025/04/09 08:48:25.955897423,1744181305,954457760,mA1/imu,0.7125775527618002,0.7015927065434475,0.0005035815521906477,0.000807360306316891,0.0,0.0,0.0,0.0,0.0,0.0,0.0,0.0,0.0,-0.0009326117754972604,-0.001611742414940522,0.004206026966239809,0.0,0.0,0.0,0.0,0.0,0.0,0.0,0.0,0.0,0.02195655684445599,0.033473798832808044,9.813954640296961,0.0,0.0,0.0,0.0,0.0,0.0,0.0,0.0,0.0
2025/04/09 08:48:26.7008426,1744181306,5328812,mA1/imu,0.7126500855274716,0.7015190302775829,0.00046097449646797205,0.000832621523166845,0.0,0.0,0.0,0.0,0.0,0.0,0.0,0.0,0.0,0.0008944103988983127,-0.0021072835371057225,0.0040997674220392966,0.0,0.0,0.0,0.0,0.0,0.0,0.0,0.0,0.0,0.009723559910120215,-0.5568878503331344,9.812318551842191,0.0,0.0,0.0,0.0,0.0,0.0,0.0,0.0,0.0
2025/04/09 08:48:26.58467796,1744181306,55386743,mA1/imu,0.7127246522336643,0.7014433117363648,0.0003891039778581714,0.0008361320575761379,0.0,0.0,0.0,0.0,0.0,0.0,0.0,0.0,0.0,0.0022108243633341402,-0.00214644121060383,0.004391026419386597,0.0,0.0,0.0,0.0,0.0,0.0,0.0,0.0,0.0,0.0022807784448961844,-0.10632143850527928,9.812324529176806,0.0,0.0,0.0,0.0,0.0,0.0,0.0,0.0,0.0
2025/04/09 08:48:26.107970359,1744181306,106370467,mA1/imu,0.7128042397483957,0.7013624955942261,0.0002989108348862976,0.0008223277107619685,0.0,0.0,0.0,0.0,0.0,0.0,0.0,0.0,0.0,0.0032867228336126595,-0.002245356552952899,0.004584283517333854,0.0,0.0,0.0,0.0,0.0,0.0,0.0,0.0,0.0,0.009021663371768138,0.08583403344713772,9.811358631334775,0.0,0.0,0.0,0.0,0.0,0.0,0.0,0.0,0.0
2025/04/09 08:48:26.147030967,1744181306,146041521,mA1/imu,0.7128858501404562,0.7012796134089541,0.0001913906106348015,0.0007948937921949227,0.0,0.0,0.0,0.0,0.0,0.0,0.0,0.0,0.0,0.003803099418128245,-0.0023118271469599974,0.004688432927983434,0.0,0.0,0.0,0.0,0.0,0.0,0.0,0.0,0.0,0.009486145780553472,0.6914280892032398,9.811382678425147,0.0,0.0,0.0,0.0,0.0,0.0,0.0,0.0,0.0
2025/04/09 08:48:26.200367298,1744181306,197381759,mA1/imu,0.7129685077548521,0.7011956326599182,8.028810199964004e-05,0.0007650113052760072,0.0,0.0,0.0,0.0,0.0,0.0,0.0,0.0,0.0,0.002904078973610709,-0.002326959253248456,0.004724537844488756,0.0,0.0,0.0,0.0,0.0,0.0,0.0,0.0,0.0,0.01133798483895585,0.5843111046961766,9.811248728771108,0.0,0.0,0.0,0.0,0.0,0.0,0.0,0.0,0.0
2025/04/09 08:48:26.248012114,1744181306,247153386,mA1/imu,0.7130543546771331,0.7011083898960009,-4.444028297569797e-05,0.0007147856151289965,0.0,0.0,0.0,0.0,0.0,0.0,0.0,0.0,0.0,0.004693967895333051,-0.001967532895998095,0.005052810869096567,0.0,0.0,0.0,0.0,0.0,0.0,0.0,0.0,0.0,0.0005764091944262372,-0.25210678575479745,9.810521268478656,0.0,0.0,0.0,0.0,0.0,0.0,0.0,0.0,0.0
2025/04/09 08:48:26.299753713,1744181306,298043888,mA1/imu,0.7131448392517855,0.701016392321949,-0.00016768335774242917,0.0006540846702891719,0.0,0.0,0.0,0.0,0.0,0.0,0.0,0.0,0.0,0.004428005244820418,-0.0017009314626219307,0.0052294283045285,0.0,0.0,0.0,0.0,0.0,0.0,0.0,0.0,0.0,0.008337845084712421,-0.09045365983136235,9.80990738021438,0.0,0.0,0.0,0.0,0.0,0.0,0.0,0.0,0.0
2025/04/09 08:48:26.348936002,1744181306,348008299,mA1/imu,0.7132348004253973,0.7009248822367198,-0.0002916667990615063,0.0005863907081519184,0.0,0.0,0.0,0.0,0.0,0.0,0.0,0.0,0.0,0.005318076289964153,-0.0016130736637391778,0.004987423591728002,0.0,0.0,0.0,0.0,0.0,0.0,0.0,0.0,0.0,0.018815860925530933,0.08508174682996097,9.805602594520948,0.0,0.0,0.0,0.0,0.0,0.0,0.0,0.0,0.0
2025/04/09 08:48:26.400931988,1744181306,398871553,mA1/imu,0.713318368367713,0.7008398284331703,-0.0004068205282357696,0.000524145061682267,0.0,0.0,0.0,0.0,0.0,0.0,0.0,0.0,0.0,0.0048920595823083645,-0.0014398306793538698,0.004657453514948126,0.0,0.0,0.0,0.0,0.0,0.0,0.0,0.0,0.0,0.010170880385775367,0.7152605290655435,9.809512000171411,0.0,0.0,0.0,0.0,0.0,0.0,0.0,0.0,0.0
2025/04/09 08:48:26.449741210,1744181306,448700979,mA1/imu,-0.7134008431842833,-0.7007558534979669,0.0004991644390311296,-0.000470709201612171,0.0,0.0,0.0,0.0,0.0,0.0,0.0,0.0,0.0,0.003812496492583615,-0.0009165960351898331,0.004767289853580032,0.0,0.0,0.0,0.0,0.0,0.0,0.0,0.0,0.0,0.007629824515175519,0.15107100134530008,9.808844049194576,0.0,0.0,0.0,0.0,0.0,0.0,0.0,0.0,0.0
2025/04/09 08:48:26.503442264,1744181306,499632165,mA1/imu,-0.713484835032482,-0.7006703132714135,0.0005753913197414974,-0.00041376761657730896,0.0,0.0,0.0,0.0,0.0,0.0,0.0,0.0,0.0,0.0032232451467151643,-0.0003462400335951487,0.004809831960439708,0.0,0.0,0.0,0.0,0.0,0.0,0.0,0.0,0.0,0.008779999880683452,0.10843569596626094,9.807619791850492,0.0,0.0,0.0,0.0,0.0,0.0,0.0,0.0,0.0
2025/04/09 08:48:26.550922827,1744181306,549462587,mA1/imu,-0.7135722942516421,-0.7005812306698077,0.0006261968313990738,-0.0003577529231042681,0.0,0.0,0.0,0.0,0.0,0.0,0.0,0.0,0.0,0.0032855284348900604,0.00046093319816213645,0.005159929915997431,0.0,0.0,0.0,0.0,0.0,0.0,0.0,0.0,0.0,0.00020844612067529543,-0.38910882459061796,9.806161919449547,0.0,0.0,0.0,0.0,0.0,0.0,0.0,0.0,0.0
2025/04/09 08:48:26.605352100,1744181306,601122484,mA1/imu,-0.713664714825738,-0.7004870897394738,0.0006458696605320629,-0.00030785289017278645,0.0,0.0,0.0,0.0,0.0,0.0,0.0,0.0,0.0,0.0029113649349593465,0.0010722578850448359,0.00535484260583046,0.0,0.0,0.0,0.0,0.0,0.0,0.0,0.0,0.0,0.006645467229333476,-0.42473932401070114,9.80832467091416,0.0,0.0,0.0,0.0,0.0,0.0,0.0,0.0,0.0
2025/04/09 08:48:26.654691738,1744181306,653087104,mA1/imu,-0.7137604654529339,-0.7003895536108234,0.0006287506530025201,-0.00027535769303071533,0.0,0.0,0.0,0.0,0.0,0.0,0.0,0.0,0.0,0.0001898248422358497,0.0015930058457756934,0.005545383251629072,0.0,0.0,0.0,0.0,0.0,0.0,0.0,0.0,0.0,0.007674903685711291,0.054968739133660516,9.806318505550651,0.0,0.0,0.0,0.0,0.0,0.0,0.0,0.0,0.0
2025/04/09 08:48:26.705671664,1744181306,704546856,mA1/imu,-0.7138593860657527,-0.7002887752856672,0.0005871451036337791,-0.0002517843408095019,0.0,0.0,0.0,0.0,0.0,0.0,0.0,0.0,0.0,-0.0008051964949441505,0.0019765188742561744,0.005703690201994434,0.0,0.0,0.0,0.0,0.0,0.0,0.0,0.0,0.0,0.01261141678859464,-0.560486647366804,9.807715741162014,0.0,0.0,0.0,0.0,0.0,0.0,0.0,0.0,0.0
2025/04/09 08:48:26.755565476,1744181306,754430419,mA1/imu,-0.7139598921572484,-0.7001863587847496,0.0005275251208425922,-0.0002389138152869264,0.0,0.0,0.0,0.0,0.0,0.0,0.0,0.0,0.0,-0.0011850809055975907,0.0021153889626329076,0.005764576274440707,0.0,0.0,0.0,0.0,0.0,0.0,0.0,0.0,0.0,0.012632679945790818,-0.36665767476673045,9.808836866419922,0.0,0.0,0.0,0.0,0.0,0.0,0.0,0.0,0.0
2025/04/09 08:48:26.808384041,1744181306,805818689,mA1/imu,-0.7140616831255165,-0.7000826063419155,0.0004416169330458521,-0.0002489255896138343,0.0,0.0,0.0,0.0,0.0,0.0,0.0,0.0,0.0,-0.0024408408273037456,0.0021870081635293245,0.005847949409969501,0.0,0.0,0.0,0.0,0.0,0.0,0.0,0.0,0.0,0.01264500188878891,-0.0611572106111665,9.808491580162833,0.0,0.0,0.0,0.0,0.0,0.0,0.0,0.0,0.0
2025/04/09 08:48:26.856706786,1744181306,855543633,mA1/imu,-0.7141648896440004,-0.6999773707450186,0.0003336954568921629,-0.0002819432662880711,0.0,0.0,0.0,0.0,0.0,0.0,0.0,0.0,0.0,-0.005219303395230512,0.002125221730203161,0.005930300207803667,0.0,0.0,0.0,0.0,0.0,0.0,0.0,0.0,0.0,0.01329736631481038,0.4542335383208818,9.809749704048272,0.0,0.0,0.0,0.0,0.0,0.0,0.0,0.0,0.0
2025/04/09 08:48:26.898873157,1744181306,897035935,mA1/imu,0.7142694824769388,0.6998706684562657,-0.0002238051644366131,0.0003220992926850043,0.0,0.0,0.0,0.0,0.0,0.0,0.0,0.0,0.0,-0.0036943667975772873,0.001938105619372883,0.0060101017774811276,0.0,0.0,0.0,0.0,0.0,0.0,0.0,0.0,0.0,0.013381484361212684,-0.4962250664233089,9.810123418786205,0.0,0.0,0.0,0.0,0.0,0.0,0.0,0.0,0.0
2025/04/09 08:48:26.950657925,1744181306,948679370,mA1/imu,0.714375445747992,0.6997625062590828,-0.00010151218305126883,0.0003834600909799336,0.0,0.0,0.0,0.0,0.0,0.0,0.0,0.0,0.0,-0.003906987832955526,0.0016334680147992388,0.006091419323188777,0.0,0.0,0.0,0.0,0.0,0.0,0.0,0.0,0.0,0.014250969410727253,-0.4767286476134062,9.809896314066808,0.0,0.0,0.0,0.0,0.0,0.0,0.0,0.0,0.0
2025/04/09 08:48:27.3298414,1744181306,999908550,mA1/imu,0.7144827798689778,0.6996528751093719,2.3191858929957367e-05,0.0004594388157161944,0.0,0.0,0.0,0.0,0.0,0.0,0.0,0.0,0.0,-0.006029165374423631,0.0012747162912291456,0.006170261636296734,0.0,0.0,0.0,0.0,0.0,0.0,0.0,0.0,0.0,0.014098927544259766,0.02888635247170028,9.810260363211972,0.0,0.0,0.0,0.0,0.0,0.0,0.0,0.0,0.0
2025/04/09 08:48:27.51066838,1744181307,49736158,mA1/imu,0.7145909851833026,0.6995422811191313,0.000144219698988886,0.0005477427113580956,0.0,0.0,0.0,0.0,0.0,0.0,0.0,0.0,0.0,-0.007749220287389176,0.000788454718270898,0.0061955712330073725,0.0,0.0,0.0,0.0,0.0,0.0,0.0,0.0,0.0,0.016312794288781476,0.5158955486781023,9.811513565433064,0.0,0.0,0.0,0.0,0.0,0.0,0.0,0.0,0.0
2025/04/09 08:48:27.102932712,1744181307,101012961,mA1/imu,0.714699987809751,0.6994308129558837,0.0002471849992194793,0.0006357768393380698,0.0,0.0,0.0,0.0,0.0,0.0,0.0,0.0,0.0,-0.0059934551399730834,0.00029189414954134654,0.006265740705564389,0.0,0.0,0.0,0.0,0.0,0.0,0.0,0.0,0.0,0.013929291258951107,0.020730961438010287,9.812432730064787,0.0,0.0,0.0,0.0,0.0,0.0,0.0,0.0,0.0
2025/04/09 08:48:27.151647225,1744181307,150738796,mA1/imu,0.7148101502278151,0.6993181005545744,0.0003371782386182217,0.0007277903993861062,0.0,0.0,0.0,0.0,0.0,0.0,0.0,0.0,0.0,-0.00432515293938566,-0.00020153796514030736,0.006332922880107097,0.0,0.0,0.0,0.0,0.0,0.0,0.0,0.0,0.0,0.013789006240474033,0.16450654263739062,9.813597867220512,0.0,0.0,0.0,0.0,0.0,0.0,0.0,0.0,0.0
2025/04/09 08:48:27.206157387,1744181307,201710330,mA1/imu,0.7149214595966303,0.6992041587831126,0.0004149955360563349,0.0008238490932505312,0.0,0.0,0.0,0.0,0.0,0.0,0.0,0.0,0.0,-0.0038049168731392607,-0.0006498378460814561,0.006398482835316584,0.0,0.0,0.0,0.0,0.0,0.0,0.0,0.0,0.0,0.012758869017026395,-0.198486162842109,9.810742919449972,0.0,0.0,0.0,0.0,0.0,0.0,0.0,0.0,0.0
2025/04/09 08:48:27.254397586,1744181307,252577810,mA1/imu,0.715033931619415,0.6990890015523729,0.00046721991171698674,0.0009089812662649473,0.0,0.0,0.0,0.0,0.0,0.0,0.0,0.0,0.0,-0.002251079036826246,-0.001059466755504552,0.006465872205245095,0.0,0.0,0.0,0.0,0.0,0.0,0.0,0.0,0.0,0.013017115400917365,-0.264466949087818,9.811417901872774,0.0,0.0,0.0,0.0,0.0,0.0,0.0,0.0,0.0
2025/04/09 08:48:27.307433867,1744181307,305632429,mA1/imu,0.7151475396350192,0.6989726437045323,0.0005054111340118453,0.0009922027320106823,0.0,0.0,0.0,0.0,0.0,0.0,0.0,0.0,0.0,-0.003047604212257123,-0.0013692784150640767,0.006531048640346112,0.0,0.0,0.0,0.0,0.0,0.0,0.0,0.0,0.0,0.01226778175113102,0.023357895286046863,9.811674483199537,0.0,0.0,0.0,0.0,0.0,0.0,0.0,0.0,0.0
2025/04/09 08:48:27.359226742,1744181307,355930654,mA1/imu,0.7152592761267705,0.6988581980634239,0.0005147076480896706,0.0010592403831292427,0.0,0.0,0.0,0.0,0.0,0.0,0.0,0.0,0.0,-0.0019868726795630766,-0.0018037552087311213,0.006252721294289684,0.0,0.0,0.0,0.0,0.0,0.0,0.0,0.0,0.0,0.01959600335280011,0.01732753887636838,9.811872770859281,0.0,0.0,0.0,0.0,0.0,0.0,0.0,0.0,0.0
2025/04/09 08:48:27.397489988,1744181307,396657412,mA1/imu,0.7153646974460502,0.6987502217071715,0.0004946355625302823,0.0011102467113686917,0.0,0.0,0.0,0.0,0.0,0.0,0.0,0.0,0.0,0.0005075551336349659,-0.002089701497660931,0.005927962286747765,0.0,0.0,0.0,0.0,0.0,0.0,0.0,0.0,0.0,0.008423789403870164,-0.5100341037893765,9.810340608669298,0.0,0.0,0.0,0.0,0.0,0.0,0.0,0.0,0.0
2025/04/09 08:48:27.448231481,1744181307,446793705,mA1/imu,0.7154675721516953,0.6986448576266983,0.00045568197085642064,0.0011438815807587762,0.0,0.0,0.0,0.0,0.0,0.0,0.0,0.0,0.0,0.0015017144079722104,-0.002023963807701903,0.005858939304493383,0.0,0.0,0.0,0.0,0.0,0.0,0.0,0.0,0.0,0.008365126965253523,-0.5208210335927995,9.809907254322692,0.0,0.0,0.0,0.0,0.0,0.0,0.0,0.0,0.0
2025/04/09 08:48:27.503181281,1744181307,497827874,mA1/imu,0.7155697191547475,0.6985402433621232,0.00040503868231634885,0.0011581778997983175,0.0,0.0,0.0,0.0,0.0,0.0,0.0,0.0,0.0,0.0006290072267951246,-0.0017337778085664594,0.005837521059874234,0.0,0.0,0.0,0.0,0.0,0.0,0.0,0.0,0.0,0.00622353273612361,0.5929494283090919,9.810702038525246,0.0,0.0,0.0,0.0,0.0,0.0,0.0,0.0,0.0
2025/04/09 08:48:27.549506999,1744181307,547756943,mA1/imu,0.7156741529256869,0.6984333061733665,0.000341702250558634,0.0011431978888192483,0.0,0.0,0.0,0.0,0.0,0.0,0.0,0.0,0.0,0.001708834081983015,-0.001147066995514341,0.006111752651696692,0.0,0.0,0.0,0.0,0.0,0.0,0.0,0.0,0.0,-0.002171688497814999,-0.17869179512708808,9.80942286229559,0.0,0.0,0.0,0.0,0.0,0.0,0.0,0.0,0.0
2025/04/09 08:48:27.600379050,1744181307,598639233,mA1/imu,0.7157823833940749,0.6983225069702476,0.0002599013461246563,0.0010901067730009015,0.0,0.0,0.0,0.0,0.0,0.0,0.0,0.0,0.0,0.0020757151385887656,-0.0006502320067022758,0.006243290735025214,0.0,0.0,0.0,0.0,0.0,0.0,0.0,0.0,0.0,0.004844908489757332,0.5524597318042233,9.808461949315046,0.0,0.0,0.0,0.0,0.0,0.0,0.0,0.0,0.0
2025/04/09 08:48:27.651194785,1744181307,649338052,mA1/imu,0.7158954492164308,0.6982067247107239,0.00018090625069870327,0.0010210939509226618,0.0,0.0,0.0,0.0,0.0,0.0,0.0,0.0,0.0,0.004518034790500425,-7.12243855456758e-05,0.006652735842165245,0.0,0.0,0.0,0.0,0.0,0.0,0.0,0.0,0.0,-0.0014788358465849284,0.6780778144718607,9.809897802914971,0.0,0.0,0.0,0.0,0.0,0.0,0.0,0.0,0.0
2025/04/09 08:48:27.702749291,1744181307,700280166,mA1/imu,0.7160134013591303,0.6980858968436696,0.00010535682520091934,0.0009373377396007102,0.0,0.0,0.0,0.0,0.0,0.0,0.0,0.0,0.0,0.005255721133914543,0.0003117588849627959,0.006808711454978123,0.0,0.0,0.0,0.0,0.0,0.0,0.0,0.0,0.0,0.009797177376721384,0.06508107464638262,9.808637905969487,0.0,0.0,0.0,0.0,0.0,0.0,0.0,0.0,0.0
2025/04/09 08:48:27.750678781,1744181307,749996516,mA1/imu,0.7161331104295751,0.6979632196456531,3.077537456295089e-05,0.0008433393220366189,0.0,0.0,0.0,0.0,0.0,0.0,0.0,0.0,0.0,0.005650541119445519,0.0005758161929401922,0.006883419023816893,0.0,0.0,0.0,0.0,0.0,0.0,0.0,0.0,0.0,0.010264588166485263,-0.5558585904156337,9.80694958620017,0.0,0.0,0.0,0.0,0.0,0.0,0.0,0.0,0.0
2025/04/09 08:48:27.803346655,1744181307,801341367,mA1/imu,0.716254069651304,0.6978392088777989,-4.65092540330192e-05,0.0007376297456692111,0.0,0.0,0.0,0.0,0.0,0.0,0.0,0.0,0.0,0.006089563420666954,0.0008213543458822006,0.006955354620133729,0.0,0.0,0.0,0.0,0.0,0.0,0.0,0.0,0.0,0.010074863735160675,-0.528586539116107,9.806793919722102,0.0,0.0,0.0,0.0,0.0,0.0,0.0,0.0,0.0
2025/04/09 08:48:27.852660377,1744181307,851057509,mA1/imu,0.7163727466333354,0.6977174752910739,-0.000121151986521814,0.0006307746483254651,0.0,0.0,0.0,0.0,0.0,0.0,0.0,0.0,0.0,0.006109152958623945,0.0007386376633553257,0.006617296831066869,0.0,0.0,0.0,0.0,0.0,0.0,0.0,0.0,0.0,0.022781732505921644,-0.431745386443967,9.808989261563893,0.0,0.0,0.0,0.0,0.0,0.0,0.0,0.0,0.0
2025/04/09 08:48:27.904376396,1744181307,902036632,mA1/imu,0.7164877183795777,0.697599476855504,-0.00018689044761249183,0.0005332673951819654,0.0,0.0,0.0,0.0,0.0,0.0,0.0,0.0,0.0,0.005069060442096408,0.0008734814728875042,0.0065719187630445,0.0,0.0,0.0,0.0,0.0,0.0,0.0,0.0,0.0,0.010900396755603324,-0.37177647594959695,9.810149981611668,0.0,0.0,0.0,0.0,0.0,0.0,0.0,0.0,0.0
2025/04/09 08:48:27.953522403,1744181307,952596442,mA1/imu,0.7166053036878776,0.6974787358613277,-0.0002401776758871682,0.0004405251104134077,0.0,0.0,0.0,0.0,0.0,0.0,0.0,0.0,0.0,0.0054467267623021605,0.0011951972826274896,0.006924555141703252,0.0,0.0,0.0,0.0,0.0,0.0,0.0,0.0,0.0,6.838837445345691e-05,-0.48571950704507866,9.80724040832608,0.0,0.0,0.0,0.0,0.0,0.0,0.0,0.0,0.0
2025/04/09 08:48:28.6291266,1744181308,3510885,mA1/imu,0.7167308303106296,0.6973497788532143,-0.0002630639835994461,0.00036553105116501905,0.0,0.0,0.0,0.0,0.0,0.0,0.0,0.0,0.0,0.0030589675858031682,0.0014882518761572738,0.007345719669717733,0.0,0.0,0.0,0.0,0.0,0.0,0.0,0.0,0.0,0.00832141789573129,-0.5962037630239545,9.807146855858196,0.0,0.0,0.0,0.0,0.0,0.0,0.0,0.0,0.0
2025/04/09 08:48:28.58902950,1744181308,55763047,mA1/imu,0.7168611188287197,0.6972158714583148,-0.00028477654660192587,0.0002894832938838753,0.0,0.0,0.0,0.0,0.0,0.0,0.0,0.0,0.0,-0.00021743991507842576,0.0015058708903732422,0.00754601874493574,0.0,0.0,0.0,0.0,0.0,0.0,0.0,0.0,0.0,0.009715187993416264,0.5093035453673193,9.809181115307053,0.0,0.0,0.0,0.0,0.0,0.0,0.0,0.0,0.0
2025/04/09 08:48:28.97948816,1744181308,96809323,mA1/imu,-0.7169951607164308,-0.6970780452030348,0.0002866470969371595,-0.0002371467417444705,0.0,0.0,0.0,0.0,0.0,0.0,0.0,0.0,0.0,0.0016434852063988779,0.0013465619283621756,0.00775774201356176,0.0,0.0,0.0,0.0,0.0,0.0,0.0,0.0,0.0,0.01294657551808951,0.14937786732758535,9.809441630717801,0.0,0.0,0.0,0.0,0.0,0.0,0.0,0.0,0.0
2025/04/09 08:48:28.148987469,1744181308,147750593,mA1/imu,-0.7171282023813583,-0.6969411900524602,0.00025989149875598106,-0.0002267464462788421,0.0,0.0,0.0,0.0,0.0,0.0,0.0,0.0,0.0,-0.0014805356118817647,0.0008135953613096609,0.007482873022451087,0.0,0.0,0.0,0.0,0.0,0.0,0.0,0.0,0.0,0.022142180558526826,-0.059278996988149785,9.814358081898273,0.0,0.0,0.0,0.0,0.0,0.0,0.0,0.0,0.0
2025/04/09 08:48:28.200704666,1744181308,198751543,mA1/imu,-0.7172545264962067,-0.6968111896189721,0.00024234233006830094,-0.00022696407244475556,0.0,0.0,0.0,0.0,0.0,0.0,0.0,0.0,0.0,-0.002565317802170733,0.0003831701604146116,0.007145118302628656,0.0,0.0,0.0,0.0,0.0,0.0,0.0,0.0,0.0,0.012811345288036805,0.3555672743677835,9.810109990928446,0.0,0.0,0.0,0.0,0.0,0.0,0.0,0.0,0.0
2025/04/09 08:48:28.249730431,1744181308,248832084,mA1/imu,0.7173789299477965,0.696683114692272,-0.00020274597720489675,0.0002597377478515409,0.0,0.0,0.0,0.0,0.0,0.0,0.0,0.0,0.0,-0.001951150707855462,0.00014289177036715255,0.007151194010733029,0.0,0.0,0.0,0.0,0.0,0.0,0.0,0.0,0.0,0.008902862416620406,0.06414115351009685,9.811846982085079,0.0,0.0,0.0,0.0,0.0,0.0,0.0,0.0,0.0
2025/04/09 08:48:28.303785497,1744181308,299784745,mA1/imu,0.717503655702523,0.6965546517531672,-0.00014777108222686339,0.00031517970535627676,0.0,0.0,0.0,0.0,0.0,0.0,0.0,0.0,0.0,-0.004478705874338741,-4.7010908097391865e-05,0.007172109086149289,0.0,0.0,0.0,0.0,0.0,0.0,0.0,0.0,0.0,0.009601336711536401,0.36189517571572916,9.81391251363774,0.0,0.0,0.0,0.0,0.0,0.0,0.0,0.0,0.0
2025/04/09 08:48:28.352586116,1744181308,351397854,mA1/imu,0.7176287908817767,0.6964257052551801,-8.595149956730827e-05,0.0003849282059618232,0.0,0.0,0.0,0.0,0.0,0.0,0.0,0.0,0.0,-0.005451714583905991,-0.00022303592767022165,0.0071988345971677,0.0,0.0,0.0,0.0,0.0,0.0,0.0,0.0,0.0,0.008347552190576573,0.5675169491896022,9.810753249695765,0.0,0.0,0.0,0.0,0.0,0.0,0.0,0.0,0.0
2025/04/09 08:48:28.406883517,1744181308,402398320,mA1/imu,0.7177543624637105,0.6962962398186997,-1.5128534730184253e-05,0.0004704782458963466,0.0,0.0,0.0,0.0,0.0,0.0,0.0,0.0,0.0,-0.004452951913756688,-0.0004148136821422641,0.007226114327768492,0.0,0.0,0.0,0.0,0.0,0.0,0.0,0.0,0.0,0.008613835266520629,0.044838184157868485,9.810454058604796,0.0,0.0,0.0,0.0,0.0,0.0,0.0,0.0,0.0
2025/04/09 08:48:28.453689950,1744181308,452410752,mA1/imu,0.7178831005401993,0.6961634379017901,6.270671496884817e-05,0.0005636979850118618,0.0,0.0,0.0,0.0,0.0,0.0,0.0,0.0,0.0,-0.004326440815240766,-0.00030696486480341346,0.007567002891080097,0.0,0.0,0.0,0.0,0.0,0.0,0.0,0.0,0.0,-0.0007196483740125248,0.0765078085499403,9.810349731003782,0.0,0.0,0.0,0.0,0.0,0.0,0.0,0.0,0.0
2025/04/09 08:48:28.506925861,1744181308,503669596,mA1/imu,0.7180164704068108,0.6960257791730161,0.00014847255395565145,0.0006640083146878187,0.0,0.0,0.0,0.0,0.0,0.0,0.0,0.0,0.0,-0.004604394701695796,-0.00036847145556445063,0.0077355269971128736,0.0,0.0,0.0,0.0,0.0,0.0,0.0,0.0,0.0,0.006565561995499482,-0.45739421307786554,9.810749539398401,0.0,0.0,0.0,0.0,0.0,0.0,0.0,0.0,0.0
2025/04/09 08:48:28.555253084,1744181308,554038579,mA1/imu,0.71815282897926,0.6958849533585153,0.0002354925157505169,0.0007684149775294897,0.0,0.0,0.0,0.0,0.0,0.0,0.0,0.0,0.0,-0.005476000792679716,-0.0004260839646133432,0.007913233668642222,0.0,0.0,0.0,0.0,0.0,0.0,0.0,0.0,0.0,0.006126781557835092,-0.081684471695212,9.811639986064328,0.0,0.0,0.0,0.0,0.0,0.0,0.0,0.0,0.0
2025/04/09 08:48:28.607047089,1744181308,605029748,mA1/imu,0.7182911703109902,0.6957420127045137,0.00031196739505492726,0.0008654984024094794,0.0,0.0,0.0,0.0,0.0,0.0,0.0,0.0,0.0,-0.00382182439622643,-0.0005618537454510331,0.007988486370927342,0.0,0.0,0.0,0.0,0.0,0.0,0.0,0.0,0.0,0.010011815543068715,-0.5282686312380076,9.809283612147599,0.0,0.0,0.0,0.0,0.0,0.0,0.0,0.0,0.0
2025/04/09 08:48:28.655899077,1744181308,654874907,mA1/imu,0.7184336362868567,0.6955947435261296,0.00038379877495767575,0.0009569372824983566,0.0,0.0,0.0,0.0,0.0,0.0,0.0,0.0,0.0,-0.0029353227751692497,-0.0004340775233902606,0.008405787654536473,0.0,0.0,0.0,0.0,0.0,0.0,0.0,0.0,0.0,0.0008116753275545863,-0.5067656572465714,9.809751536193495,0.0,0.0,0.0,0.0,0.0,0.0,0.0,0.0,0.0
2025/04/09 08:48:28.708031197,1744181308,705837558,mA1/imu,0.7185808361711238,0.6954425180642354,0.00044842866019969646,0.0010415698827953934,0.0,0.0,0.0,0.0,0.0,0.0,0.0,0.0,0.0,-0.0031880881970856203,-0.0005755849819027674,0.00851687432748247,0.0,0.0,0.0,0.0,0.0,0.0,0.0,0.0,0.0,0.011970264317027725,-0.5687707928692554,9.810600668613256,0.0,0.0,0.0,0.0,0.0,0.0,0.0,0.0,0.0
2025/04/09 08:48:28.757274393,1744181308,755708728,mA1/imu,0.7187323543558053,0.6952857799712918,0.0004996238166912814,0.0011123614139065259,0.0,0.0,0.0,0.0,0.0,0.0,0.0,0.0,0.0,-0.0033885471231017636,-0.0005041536280700674,0.008853335743751968,0.0,0.0,0.0,0.0,0.0,0.0,0.0,0.0,0.0,0.012106244926485838,-0.2379612179619399,9.81051846924566,0.0,0.0,0.0,0.0,0.0,0.0,0.0,0.0,0.0
2025/04/09 08:48:28.799697696,1744181308,796592568,mA1/imu,0.7188876865902135,0.6951250751018143,0.0005260984836188784,0.0011607127350371695,0.0,0.0,0.0,0.0,0.0,0.0,0.0,0.0,0.0,-0.0026912804394217163,-0.0006469192632578656,0.008998825311523469,0.0,0.0,0.0,0.0,0.0,0.0,0.0,0.0,0.0,0.013658992351737915,-0.033063860929860106,9.810980284637743,0.0,0.0,0.0,0.0,0.0,0.0,0.0,0.0,0.0
2025/04/09 08:48:28.848600795,1744181308,846865886,mA1/imu,0.7190455258114599,0.6949617356287828,0.0005354816345693547,0.0011962782995501387,0.0,0.0,0.0,0.0,0.0,0.0,0.0,0.0,0.0,-0.0007577760016644555,-0.0007667281536590932,0.009144704759678384,0.0,0.0,0.0,0.0,0.0,0.0,0.0,0.0,0.0,0.012845542820815577,0.031370838602933146,9.809839937509048,0.0,0.0,0.0,0.0,0.0,0.0,0.0,0.0,0.0
2025/04/09 08:48:28.903033245,1744181308,898211171,mA1/imu,0.7192058817250436,0.6947957598251074,0.0005256526300514118,0.0012147059177298868,0.0,0.0,0.0,0.0,0.0,0.0,0.0,0.0,0.0,0.0011329325230083084,-0.0008252055865071765,0.009287378096775968,0.0,0.0,0.0,0.0,0.0,0.0,0.0,0.0,0.0,0.01189668666162549,-0.029221085587012,9.8083535495697,0.0,0.0,0.0,0.0,0.0,0.0,0.0,0.0,0.0
2025/04/09 08:48:28.949853252,1744181308,947914028,mA1/imu,0.7193686306698172,0.6946272679663471,0.0004999017163026854,0.0012173348409163212,0.0,0.0,0.0,0.0,0.0,0.0,0.0,0.0,0.0,0.0014926461270589858,-0.0008383327591615346,0.009422702516066365,0.0,0.0,0.0,0.0,0.0,0.0,0.0,0.0,0.0,0.01303492119539109,0.03653206951331048,9.808349094874774,0.0,0.0,0.0,0.0,0.0,0.0,0.0,0.0,0.0
2025/04/09 08:48:29.137882,1744181308,998933935,mA1/imu,0.719533712662324,0.6944563181223329,0.0004590315603846666,0.0012032673733505894,0.0,0.0,0.0,0.0,0.0,0.0,0.0,0.0,0.0,0.0005470672823026699,-0.0007714564076582634,0.009556725335470206,0.0,0.0,0.0,0.0,0.0,0.0,0.0,0.0,0.0,0.012595426887924702,0.1450067560265954,9.808827800962352,0.0,0.0,0.0,0.0,0.0,0.0,0.0,0.0,0.0
2025/04/09 08:48:29.50615157,1744181309,48729487,mA1/imu,0.7196985150468548,0.694285622328088,0.0003971272107082639,0.0011680572889300714,0.0,0.0,0.0,0.0,0.0,0.0,0.0,0.0,0.0,0.0032154366646846688,-0.000853713096580193,0.009392531816133963,0.0,0.0,0.0,0.0,0.0,0.0,0.0,0.0,0.0,0.017539380736710925,-0.6001419083047477,9.807900831336918,0.0,0.0,0.0,0.0,0.0,0.0,0.0,0.0,0.0
2025/04/09 08:48:29.102004199,1744181309,99697556,mA1/imu,0.7198621658624197,0.6941160684844058,0.0003201164417819321,0.0011149695430389872,0.0,0.0,0.0,0.0,0.0,0.0,0.0,0.0,0.0,0.004711526178873559,-0.0006726597873930681,0.009450641462363421,0.0,0.0,0.0,0.0,0.0,0.0,0.0,0.0,0.0,0.00894677434397695,-0.2857616920893533,9.808108177571807,0.0,0.0,0.0,0.0,0.0,0.0,0.0,0.0,0.0
2025/04/09 08:48:29.152326059,1744181309,150000734,mA1/imu,0.7200272194976846,0.693944978267383,0.00024369909264532712,0.0010540069575503117,0.0,0.0,0.0,0.0,0.0,0.0,0.0,0.0,0.0,0.0032815980958181387,-0.00040209520049663816,0.009543480822874135,0.0,0.0,0.0,0.0,0.0,0.0,0.0,0.0,0.0,0.009326420594929078,0.5762706723764903,9.809964163550113,0.0,0.0,0.0,0.0,0.0,0.0,0.0,0.0,0.0
2025/04/09 08:48:29.203402417,1744181309,200946488,mA1/imu,0.7201938280917107,0.6937721994798647,0.00016344818238397783,0.0009790261332685778,0.0,0.0,0.0,0.0,0.0,0.0,0.0,0.0,0.0,0.004898857282125905,-0.00012505413638556822,0.009634411040131487,0.0,0.0,0.0,0.0,0.0,0.0,0.0,0.0,0.0,0.009373059237215433,-0.5976936487034317,9.80952794662122,0.0,0.0,0.0,0.0,0.0,0.0,0.0,0.0,0.0
2025/04/09 08:48:29.252836040,1744181309,250867935,mA1/imu,0.720364938061629,0.6935946611892836,8.686225470773591e-05,0.0008913114702080804,0.0,0.0,0.0,0.0,0.0,0.0,0.0,0.0,0.0,0.004498090655938896,0.00047229142429364233,0.010064926296905653,0.0,0.0,0.0,0.0,0.0,0.0,0.0,0.0,0.0,-0.0016628788936997544,-0.6342665692311088,9.808502420611548,0.0,0.0,0.0,0.0,0.0,0.0,0.0,0.0,0.0
2025/04/09 08:48:29.305312006,1744181309,301923111,mA1/imu,0.7205421096420993,0.6934107339389951,1.2023257162166836e-05,0.0007887624093128847,0.0,0.0,0.0,0.0,0.0,0.0,0.0,0.0,0.0,0.005409423747411089,0.0008196903987609612,0.01031397827521258,0.0,0.0,0.0,0.0,0.0,0.0,0.0,0.0,0.0,0.006711188376566894,-0.5690316780794081,9.808975028332268,0.0,0.0,0.0,0.0,0.0,0.0,0.0,0.0,0.0
2025/04/09 08:48:29.352542022,1744181309,351678754,mA1/imu,0.7207235158440843,0.6932222834653637,-4.802509596220437e-05,0.0006907314954934089,0.0,0.0,0.0,0.0,0.0,0.0,0.0,0.0,0.0,0.003754767720282444,0.0010816054810448429,0.010555933260348507,0.0,0.0,0.0,0.0,0.0,0.0,0.0,0.0,0.0,0.00822864463028884,0.5977447165974153,9.81142572903139,0.0,0.0,0.0,0.0,0.0,0.0,0.0,0.0,0.0
2025/04/09 08:48:29.413193384,1744181309,403832492,mA1/imu,0.7209079051397586,0.6930306065378714,-9.447041097650438e-05,0.0006014849094465665,0.0,0.0,0.0,0.0,0.0,0.0,0.0,0.0,0.0,0.003046858225315927,0.0011573268616059979,0.010691296293436563,0.0,0.0,0.0,0.0,0.0,0.0,0.0,0.0,0.0,0.012116737752360721,-0.04161392287672257,9.812085044215566,0.0,0.0,0.0,0.0,0.0,0.0,0.0,0.0,0.0
2025/04/09 08:48:29.455010374,1744181309,454073339,mA1/imu,0.7210916035024432,0.692839527229128,-0.00013508887092122176,0.0005202097562140794,0.0,0.0,0.0,0.0,0.0,0.0,0.0,0.0,0.0,0.0015435396875324082,0.0009912647093680367,0.010488987815130218,0.0,0.0,0.0,0.0,0.0,0.0,0.0,0.0,0.0,0.01966279275226803,0.5301238070242081,9.810584680669939,0.0,0.0,0.0,0.0,0.0,0.0,0.0,0.0,0.0
2025/04/09 08:48:29.507867465,1744181309,505414990,mA1/imu,0.7212735315828297,0.6926501698155068,-0.00016416125345491132,0.00045600840526069364,0.0,0.0,0.0,0.0,0.0,0.0,0.0,0.0,0.0,0.0016826056443269132,0.0009258052465719277,0.010511345528742588,0.0,0.0,0.0,0.0,0.0,0.0,0.0,0.0,0.0,0.012413716363486427,0.4919757861285109,9.811671959235335,0.0,0.0,0.0,0.0,0.0,0.0,0.0,0.0,0.0
2025/04/09 08:48:29.558052693,1744181309,555331055,mA1/imu,0.721456109852099,0.6924600231329338,-0.0001801174456689988,0.0004067892805767749,0.0,0.0,0.0,0.0,0.0,0.0,0.0,0.0,0.0,0.00190500887815902,0.0008759528799150751,0.010573609952863777,0.0,0.0,0.0,0.0,0.0,0.0,0.0,0.0,0.0,0.010387786485575675,0.05083773461645414,9.811680058844273,0.0,0.0,0.0,0.0,0.0,0.0,0.0,0.0,0.0
2025/04/09 08:48:29.607344334,1744181309,606301412,mA1/imu,0.7216399718490386,0.692268427569867,-0.00017718533517908035,0.0003792426919228527,0.0,0.0,0.0,0.0,0.0,0.0,0.0,0.0,0.0,0.001093108524452382,0.000815097904351297,0.010650355017222354,0.0,0.0,0.0,0.0,0.0,0.0,0.0,0.0,0.0,0.009670595512358833,-0.05377829264881748,9.810854411653644,0.0,0.0,0.0,0.0,0.0,0.0,0.0,0.0,0.0
2025/04/09 08:48:29.647009068,1744181309,645994092,mA1/imu,0.7218227283182449,0.692077874810625,-0.00016025570341507948,0.0003720200580201958,0.0,0.0,0.0,0.0,0.0,0.0,0.0,0.0,0.0,-0.0003899528947874579,0.0005929757631346932,0.01049537689710591,0.0,0.0,0.0,0.0,0.0,0.0,0.0,0.0,0.0,0.0121204042489754,0.031021754022872324,9.81179905452326,0.0,0.0,0.0,0.0,0.0,0.0,0.0,0.0,0.0
2025/04/09 08:48:29.699168970,1744181309,697107012,mA1/imu,0.722004332140251,0.6918884139999809,-0.0001258317965987341,0.00038872826040932087,0.0,0.0,0.0,0.0,0.0,0.0,0.0,0.0,0.0,-0.002140401452796513,0.0004896588855911687,0.01050944333324546,0.0,0.0,0.0,0.0,0.0,0.0,0.0,0.0,0.0,0.008277245016185913,-0.02118188698556433,9.811494201586221,0.0,0.0,0.0,0.0,0.0,0.0,0.0,0.0,0.0
2025/04/09 08:48:29.749554439,1744181309,748236801,mA1/imu,0.7221892979553785,0.6916953354826634,-7.918217134386787e-05,0.00041775642061515406,0.0,0.0,0.0,0.0,0.0,0.0,0.0,0.0,0.0,-0.0015053058963473004,0.0005900709414760515,0.010882304451828664,0.0,0.0,0.0,0.0,0.0,0.0,0.0,0.0,0.0,-0.0005172846627682836,-0.5457473536239247,9.811066616998867,0.0,0.0,0.0,0.0,0.0,0.0,0.0,0.0,0.0
2025/04/09 08:48:29.800520000,1744181309,799160438,mA1/imu,0.7223819324376252,0.6914941273204306,-1.136526012819776e-05,0.00046415500547784924,0.0,0.0,0.0,0.0,0.0,0.0,0.0,0.0,0.0,-0.0040014345634889785,0.0006575338585524446,0.011289401242399525,0.0,0.0,0.0,0.0,0.0,0.0,0.0,0.0,0.0,0.007835833604219588,-0.2737567457744728,9.811626997064307,0.0,0.0,0.0,0.0,0.0,0.0,0.0,0.0,0.0
2025/04/09 08:48:29.858100161,1744181309,852047461,mA1/imu,0.7225793819674504,0.6912877555893334,6.276664903233925e-05,0.0005213330483275064,0.0,0.0,0.0,0.0,0.0,0.0,0.0,0.0,0.0,-0.0054341705823544,0.0004901107893862809,0.011513616392164666,0.0,0.0,0.0,0.0,0.0,0.0,0.0,0.0,0.0,0.008619159712534644,0.4722676366751241,9.810212748453557,0.0,0.0,0.0,0.0,0.0,0.0,0.0,0.0,0.0
2025/04/09 08:48:29.904961817,1744181309,903667091,mA1/imu,0.7227805902062885,0.6910773107850492,0.00014121920188086518,0.0005907590801863382,0.0,0.0,0.0,0.0,0.0,0.0,0.0,0.0,0.0,-0.004435184787725954,0.00024253345188908493,0.011716730667948072,0.0,0.0,0.0,0.0,0.0,0.0,0.0,0.0,0.0,0.011815766206526475,0.01982375100143918,9.808800779210234,0.0,0.0,0.0,0.0,0.0,0.0,0.0,0.0,0.0
2025/04/09 08:48:29.955222843,1744181309,953101237,mA1/imu,0.7229874378736054,0.690860811510706,0.00022750464035186115,0.0006723372419977719,0.0,0.0,0.0,0.0,0.0,0.0,0.0,0.0,0.0,-0.005091673068067409,0.0002436209180262889,0.012194068364280799,0.0,0.0,0.0,0.0,0.0,0.0,0.0,0.0,0.0,0.0028003696754977866,0.1089810738557263,9.80881226448648,0.0,0.0,0.0,0.0,0.0,0.0,0.0,0.0,0.0
2025/04/09 08:48:30.17910,1744181309,996512645,mA1/imu,0.7232035876706869,0.6906344135907506,0.0003178134173276077,0.0007593016784154155,0.0,0.0,0.0,0.0,0.0,0.0,0.0,0.0,0.0,-0.004671432677833586,0.0001399760934633807,0.012714651938847512,0.0,0.0,0.0,0.0,0.0,0.0,0.0,0.0,0.0,0.011147711839385191,-0.1437196295384056,9.80736841184438,0.0,0.0,0.0,0.0,0.0,0.0,0.0,0.0,0.0
2025/04/09 08:48:30.48884974,1744181310,48077824,mA1/imu,0.7234268586879945,0.6904003965398406,0.00039887526201800346,0.0008446803991911502,0.0,0.0,0.0,0.0,0.0,0.0,0.0,0.0,0.0,-0.004677278769641792,-5.561961421493801e-05,0.013158223824747824,0.0,0.0,0.0,0.0,0.0,0.0,0.0,0.0,0.0,0.0012407483149747059,0.015590044983256758,9.810899869467717,0.0,0.0,0.0,0.0,0.0,0.0,0.0,0.0,0.0
2025/04/09 08:48:30.100966832,1744181310,99099565,mA1/imu,0.7236578698620539,0.6901580944975003,0.0004734028164726612,0.0009315986623838138,0.0,0.0,0.0,0.0,0.0,0.0,0.0,0.0,0.0,-0.004460963645407072,-0.00039126172625846917,0.013535827134260148,0.0,0.0,0.0,0.0,0.0,0.0,0.0,0.0,0.0,0.010741504999871192,0.005063491271467421,9.811151243077799,0.0,0.0,0.0,0.0,0.0,0.0,0.0,0.0,0.0
2025/04/09 08:48:30.150592173,1744181310,149214020,mA1/imu,0.723894587765715,0.6899096323164555,0.000535925635917769,0.0010187365664348484,0.0,0.0,0.0,0.0,0.0,0.0,0.0,0.0,0.0,-0.0031873803229014244,-0.0007808180182735044,0.013831967338323965,0.0,0.0,0.0,0.0,0.0,0.0,0.0,0.0,0.0,0.015913786693518048,-0.20425005054990716,9.80689634770519,0.0,0.0,0.0,0.0,0.0,0.0,0.0,0.0,0.0
2025/04/09 08:48:30.203214296,1744181310,200104563,mA1/imu,0.7241354573829735,0.6896566379777234,0.0005831299105216346,0.0011049948067252543,0.0,0.0,0.0,0.0,0.0,0.0,0.0,0.0,0.0,-0.0033142309083409706,-0.0011964841711947624,0.01406438364789111,0.0,0.0,0.0,0.0,0.0,0.0,0.0,0.0,0.0,0.015480556986931598,0.004692716492442621,9.807319769442511,0.0,0.0,0.0,0.0,0.0,0.0,0.0,0.0,0.0
2025/04/09 08:48:30.251856336,1744181310,250710415,mA1/imu,0.7243830415087532,0.6893964431918039,0.0006093061680698935,0.0011755998516266991,0.0,0.0,0.0,0.0,0.0,0.0,0.0,0.0,0.0,-0.0028479932423897698,-0.0011833672941942072,0.014612035839619847,0.0,0.0,0.0,0.0,0.0,0.0,0.0,0.0,0.0,0.00487456433053338,-0.023391783449866307,9.807235543941978,0.0,0.0,0.0,0.0,0.0,0.0,0.0,0.0,0.0
2025/04/09 08:48:30.305381791,1744181310,301724816,mA1/imu,0.7246385534092536,0.6891277493478573,0.0006219389600509765,0.0012349832512190215,0.0,0.0,0.0,0.0,0.0,0.0,0.0,0.0,0.0,-0.0035497492968733016,-0.001355892970262882,0.014961326083955485,0.0,0.0,0.0,0.0,0.0,0.0,0.0,0.0,0.0,0.01685719364212238,0.4923558913932609,9.809126421922885,0.0,0.0,0.0,0.0,0.0,0.0,0.0,0.0,0.0
2025/04/09 08:48:30.352693284,1744181310,351455972,mA1/imu,0.7248989833829972,0.6888537381475275,0.0006075504903041654,0.0012736612094523207,0.0,0.0,0.0,0.0,0.0,0.0,0.0,0.0,0.0,-0.001016386343222401,-0.0015694942845268407,0.015225179968241985,0.0,0.0,0.0,0.0,0.0,0.0,0.0,0.0,0.0,0.01507209561283584,-0.02579544108928541,9.809054143084786,0.0,0.0,0.0,0.0,0.0,0.0,0.0,0.0,0.0
2025/04/09 08:48:30.407748842,1744181310,402466340,mA1/imu,0.7251638060110001,0.6885749411297644,0.0005719383681522485,0.0012952938991557768,0.0,0.0,0.0,0.0,0.0,0.0,0.0,0.0,0.0,0.0010583929787801264,-0.001676897440643663,0.015482445718153258,0.0,0.0,0.0,0.0,0.0,0.0,0.0,0.0,0.0,0.014365368267146655,0.045047632958393154,9.810751336312135,0.0,0.0,0.0,0.0,0.0,0.0,0.0,0.0,0.0
2025/04/09 08:48:30.453493047,1744181310,452344554,mA1/imu,0.7254329019030525,0.688291450595057,0.0005256478961560239,0.001306739667110657,0.0,0.0,0.0,0.0,0.0,0.0,0.0,0.0,0.0,0.002014201727639727,-0.0016835444630601906,0.01573109667028572,0.0,0.0,0.0,0.0,0.0,0.0,0.0,0.0,0.0,0.014861184584062876,0.01882539062650783,9.810729488353967,0.0,0.0,0.0,0.0,0.0,0.0,0.0,0.0,0.0
2025/04/09 08:48:30.507398925,1744181310,503305674,mA1/imu,0.7257061507683293,0.6880034023887905,0.0004631825104194994,0.0012986533119973816,0.0,0.0,0.0,0.0,0.0,0.0,0.0,0.0,0.0,0.003148922390180138,-0.0015531125459442043,0.015976156410948926,0.0,0.0,0.0,0.0,0.0,0.0,0.0,0.0,0.0,0.013107957385402358,-0.2384356130901858,9.810090081559805,0.0,0.0,0.0,0.0,0.0,0.0,0.0,0.0,0.0
2025/04/09 08:48:30.554497005,1744181310,553112448,mA1/imu,0.7259805037539306,0.687713984075688,0.00039088298511172126,0.0012772965299007915,0.0,0.0,0.0,0.0,0.0,0.0,0.0,0.0,0.0,0.002173340324174035,-0.0014769790048635894,0.015876637808217894,0.0,0.0,0.0,0.0,0.0,0.0,0.0,0.0,0.0,0.015857021267833164,0.5694007773494956,9.809209284637394,0.0,0.0,0.0,0.0,0.0,0.0,0.0,0.0,0.0
2025/04/09 08:48:30.607014026,1744181310,604134618,mA1/imu,0.7262556020853916,0.6874235652411895,0.0003142783077054627,0.0012424249765792686,0.0,0.0,0.0,0.0,0.0,0.0,0.0,0.0,0.0,0.0025291930800610046,-0.0011347864535084544,0.016078185242946946,0.0,0.0,0.0,0.0,0.0,0.0,0.0,0.0,0.0,0.011015952604527918,0.32059426679598474,9.81174229765063,0.0,0.0,0.0,0.0,0.0,0.0,0.0,0.0,0.0
2025/04/09 08:48:30.655156121,1744181310,653942030,mA1/imu,0.7265340591898952,0.6871293981498312,0.0002279988344244031,0.0011828152163741309,0.0,0.0,0.0,0.0,0.0,0.0,0.0,0.0,0.0,0.004459496178533323,-0.000717444192805702,0.016277737545317056,0.0,0.0,0.0,0.0,0.0,0.0,0.0,0.0,0.0,0.010512107838691562,-0.30641435748982565,9.811986127497901,0.0,0.0,0.0,0.0,0.0,0.0,0.0,0.0,0.0
2025/04/09 08:48:30.707922427,1744181310,705089574,mA1/imu,0.7268157580272231,0.6868315624935085,0.00014667474183751303,0.0011122646082418202,0.0,0.0,0.0,0.0,0.0,0.0,0.0,0.0,0.0,0.0050969052046979275,-0.00025472590365098935,0.016471663825393407,0.0,0.0,0.0,0.0,0.0,0.0,0.0,0.0,0.0,0.009682702924888691,0.056834493674685516,9.810991007788475,0.0,0.0,0.0,0.0,0.0,0.0,0.0,0.0,0.0
2025/04/09 08:48:30.757422394,1744181310,754962012,mA1/imu,0.7271033969229621,0.6865271877756488,7.669925207936628e-05,0.0010318649007252758,0.0,0.0,0.0,0.0,0.0,0.0,0.0,0.0,0.0,0.003573454363795796,0.0004748062566183293,0.016976530972354426,0.0,0.0,0.0,0.0,0.0,0.0,0.0,0.0,0.0,0.002024889926733218,0.5771947420996195,9.81167075864756,0.0,0.0,0.0,0.0,0.0,0.0,0.0,0.0,0.0
2025/04/09 08:48:30.807420090,1744181310,806091651,mA1/imu,0.7273981307713178,0.6862150317038704,1.9675918865828996e-05,0.000942988285875554,0.0,0.0,0.0,0.0,0.0,0.0,0.0,0.0,0.0,0.003475180005826537,0.0009470346027802152,0.0172839565711205,0.0,0.0,0.0,0.0,0.0,0.0,0.0,0.0,0.0,0.012369577809013058,-0.05049313019673919,9.813169235314579,0.0,0.0,0.0,0.0,0.0,0.0,0.0,0.0,0.0
2025/04/09 08:48:30.846975328,1744181310,845852437,mA1/imu,0.7276970763436525,0.6858981307303419,-3.0308163624734796e-05,0.0008475983354048932,0.0,0.0,0.0,0.0,0.0,0.0,0.0,0.0,0.0,0.004679095273929927,0.0012724708852776103,0.017517391463735207,0.0,0.0,0.0,0.0,0.0,0.0,0.0,0.0,0.0,0.011776674263397631,-0.5712955229924581,9.812212509937103,0.0,0.0,0.0,0.0,0.0,0.0,0.0,0.0,0.0
2025/04/09 08:48:30.897893251,1744181310,897261098,mA1/imu,0.7279998127252341,0.6855769073590244,-6.604031397400458e-05,0.0007565756649766267,0.0,0.0,0.0,0.0,0.0,0.0,0.0,0.0,0.0,0.003987855109268823,0.0015439570322249663,0.01774456557035873,0.0,0.0,0.0,0.0,0.0,0.0,0.0,0.0,0.0,0.011671336810670313,0.04873130559266055,9.810850683444782,0.0,0.0,0.0,0.0,0.0,0.0,0.0,0.0,0.0
2025/04/09 08:48:30.948488468,1744181310,947157288,mA1/imu,0.7283062562009085,0.6852514348625314,-8.150999664495716e-05,0.0006793773466923165,0.0,0.0,0.0,0.0,0.0,0.0,0.0,0.0,0.0,0.0017062827340059016,0.0017285313507653679,0.017970256085495663,0.0,0.0,0.0,0.0,0.0,0.0,0.0,0.0,0.0,0.01226180808514441,0.5682458312272515,9.811348753399383,0.0,0.0,0.0,0.0,0.0,0.0,0.0,0.0,0.0
2025/04/09 08:48:31.2085361,1744181310,998743202,mA1/imu,0.7286163227992533,0.6849218019550843,-8.578705775855086e-05,0.0006099161215120984,0.0,0.0,0.0,0.0,0.0,0.0,0.0,0.0,0.0,0.0012203371098160503,0.0017981006581213545,0.018188847920559012,0.0,0.0,0.0,0.0,0.0,0.0,0.0,0.0,0.0,0.012988281257746427,-0.04061308776652012,9.811599964470286,0.0,0.0,0.0,0.0,0.0,0.0,0.0,0.0,0.0
2025/04/09 08:48:31.50019164,1744181311,49257962,mA1/imu,0.7289269497008416,0.6845912578112369,-7.960097569742911e-05,0.000552622783058752,0.0,0.0,0.0,0.0,0.0,0.0,0.0,0.0,0.0,0.0018064483694249691,0.0016477004696453677,0.01805263430986456,0.0,0.0,0.0,0.0,0.0,0.0,0.0,0.0,0.0,0.01892075949715076,-0.3399853486186988,9.811732157616339,0.0,0.0,0.0,0.0,0.0,0.0,0.0,0.0,0.0
2025/04/09 08:48:31.102258169,1744181311,100212925,mA1/imu,0.7292375492332902,0.6842604215370706,-5.4759008032643515e-05,0.0005189485391751947,0.0,0.0,0.0,0.0,0.0,0.0,0.0,0.0,0.0,-0.0008256444562414164,0.0016182960916402843,0.018217820830179757,0.0,0.0,0.0,0.0,0.0,0.0,0.0,0.0,0.0,0.011200788778837286,0.5770116988555867,9.809404734999482,0.0,0.0,0.0,0.0,0.0,0.0,0.0,0.0,0.0
2025/04/09 08:48:31.151964191,1744181311,149915912,mA1/imu,0.7295507753818135,0.6839264681480549,-1.79980092144358e-05,0.000501978479577929,0.0,0.0,0.0,0.0,0.0,0.0,0.0,0.0,0.0,-0.0014798834438500528,0.00148289477064359,0.01838043917888064,0.0,0.0,0.0,0.0,0.0,0.0,0.0,0.0,0.0,0.010853084402814746,0.5975585441187392,9.809408805588468,0.0,0.0,0.0,0.0,0.0,0.0,0.0,0.0,0.0
2025/04/09 08:48:31.206029140,1744181311,202008812,mA1/imu,0.7298665510902693,0.683589467464387,3.242221161720645e-05,0.000506478184509906,0.0,0.0,0.0,0.0,0.0,0.0,0.0,0.0,0.0,-0.0008782053684373543,0.0012451884898968112,0.018536699928073577,0.0,0.0,0.0,0.0,0.0,0.0,0.0,0.0,0.0,0.011051008664021252,-0.2858104330056658,9.80869078641441,0.0,0.0,0.0,0.0,0.0,0.0,0.0,0.0,0.0
2025/04/09 08:48:31.253423947,1744181311,251815015,mA1/imu,0.7301856792831845,0.6832485535516029,9.210731447967311e-05,0.0005285410482168606,0.0,0.0,0.0,0.0,0.0,0.0,0.0,0.0,0.0,-0.001442072532899806,0.0010615827651239303,0.01878681415118581,0.0,0.0,0.0,0.0,0.0,0.0,0.0,0.0,0.0,0.007201093406188087,-0.23593365667506333,9.807899784459796,0.0,0.0,0.0,0.0,0.0,0.0,0.0,0.0,0.0
2025/04/09 08:48:31.306067067,1744181311,302773497,mA1/imu,0.730508110960826,0.6829037590657755,0.00016489467310660071,0.0005731352595533163,0.0,0.0,0.0,0.0,0.0,0.0,0.0,0.0,0.0,-0.0032566991952274853,0.0007714627156674165,0.01894623568312011,0.0,0.0,0.0,0.0,0.0,0.0,0.0,0.0,0.0,0.010985023456867717,0.006917458158198038,9.807327578260109,0.0,0.0,0.0,0.0,0.0,0.0,0.0,0.0,0.0
2025/04/09 08:48:31.356214455,1744181311,353875253,mA1/imu,0.7308356244447201,0.6825531772979008,0.00023964033919144815,0.0006267180742412666,0.0,0.0,0.0,0.0,0.0,0.0,0.0,0.0,0.0,-0.0037311809593398135,0.0007058956471258917,0.019403195526731674,0.0,0.0,0.0,0.0,0.0,0.0,0.0,0.0,0.0,0.001367118120699823,-0.15536603493151802,9.80714601571663,0.0,0.0,0.0,0.0,0.0,0.0,0.0,0.0,0.0
2025/04/09 08:48:31.409081236,1744181311,404886237,mA1/imu,0.7311718529683789,0.6821928952113899,0.00031835899840934487,0.0006883294537170742,0.0,0.0,0.0,0.0,0.0,0.0,0.0,0.0,0.0,-0.0037121570167259624,0.0004887429919640956,0.01987823398898831,0.0,0.0,0.0,0.0,0.0,0.0,0.0,0.0,0.0,0.01421515345424933,0.1113585079473472,9.807515115553375,0.0,0.0,0.0,0.0,0.0,0.0,0.0,0.0,0.0
2025/04/09 08:48:31.457763744,1744181311,454728950,mA1/imu,0.7315129795701326,0.6818269657881862,0.00039942949806273285,0.0007680498540328085,0.0,0.0,0.0,0.0,0.0,0.0,0.0,0.0,0.0,-0.005411526221770724,-1.3725755435314267e-05,0.020099114763802862,0.0,0.0,0.0,0.0,0.0,0.0,0.0,0.0,0.0,0.013847859350535697,0.4117454858041755,9.807164296314685,0.0,0.0,0.0,0.0,0.0,0.0,0.0,0.0,0.0
2025/04/09 08:48:31.506853771,1744181311,505772027,mA1/imu,0.7318576476630042,0.6814568464027172,0.0004690185830917191,0.0008544411075104257,0.0,0.0,0.0,0.0,0.0,0.0,0.0,0.0,0.0,-0.005118230030641163,-0.0005348407892275408,0.020320809056572624,0.0,0.0,0.0,0.0,0.0,0.0,0.0,0.0,0.0,0.013554487996809306,0.06422624843494572,9.808384333330054,0.0,0.0,0.0,0.0,0.0,0.0,0.0,0.0,0.0
2025/04/09 08:48:31.548418491,1744181311,546238569,mA1/imu,0.7322084602155783,0.6810797309503586,0.0005295803793036939,0.0009436217150034831,0.0,0.0,0.0,0.0,0.0,0.0,0.0,0.0,0.0,-0.004354957861868238,-0.0007194078281766281,0.020837774971373853,0.0,0.0,0.0,0.0,0.0,0.0,0.0,0.0,0.0,0.003210025221607006,-0.00933939965157481,9.80924868867287,0.0,0.0,0.0,0.0,0.0,0.0,0.0,0.0,0.0
