time,header_stamp_secs,header_stamp_nsecs,header_frame_id,orientation_x,orientation_y,orientation_z,orientation_w,orientation_covariance_0,orientation_covariance_1,orientation_covariance_2,orientation_covariance_3,orientation_covariance_4,orientation_covariance_5,orientation_covariance_6,orientation_covariance_7,orientation_covariance_8,angular_velocity_x,angular_velocity_y,angular_velocity_z,angular_velocity_covariance_0,angular_velocity_covariance_1,angular_velocity_covariance_2,angular_velocity_covariance_3,angular_velocity_covariance_4,angular_velocity_covariance_5,angular_velocity_covariance_6,angular_velocity_covariance_7,angular_velocity_covariance_8,linear_acceleration_x,linear_acceleration_y,linear_acceleration_z,linear_acceleration_covariance_0,linear_acceleration_covariance_1,linear_acceleration_covariance_2,linear_acceleration_covariance_3,linear_acceleration_covariance_4,linear_acceleration_covariance_5,linear_acceleration_covariance_6,linear_acceleration_covariance_7,linear_acceleration_covariance_8
2025/05/21 12:43:13.678718178,1747824193,677734970,mA1/imu,0.8495394183410353,0.5275234100835262,-0.00044948154344565745,0.0012753293555583958,0.0,0.0,0.0,0.0,0.0,0.0,0.0,0.0,0.0,-0.0007288124447986715,-0.00356998390758014,0.02573798996487582,0.0,0.0,0.0,0.0,0.0,0.0,0.0,0.0,0.0,0.058517860728885124,0.04288799670386681,9.807408649221811,0.0,0.0,0.0,0.0,0.0,0.0,0.0,0.0,0.0
2025/05/21 12:43:13.730281535,1747824193,728701833,mA1/imu,0.8498710556486065,0.526988725420933,-0.0005139292733864903,0.0013445916278652774,0.0,0.0,0.0,0.0,0.0,0.0,0.0,0.0,0.0,-0.001101585917234759,-0.0035549264502072477,0.02489023397048505,0.0,0.0,0.0,0.0,0.0,0.0,0.0,0.0,0.0,0.031650789150241936,0.5858518146997195,9.809937102614484,0.0,0.0,0.0,0.0,0.0,0.0,0.0,0.0,0.0
2025/05/21 12:43:13.779967457,1747824193,778578795,mA1/imu,0.8501945697416439,0.5264664407556555,-0.0005736847265194278,0.0013968628163294745,0.0,0.0,0.0,0.0,0.0,0.0,0.0,0.0,0.0,-0.0003262418485567118,-0.0027233843417792795,0.024438843477656347,0.0,0.0,0.0,0.0,0.0,0.0,0.0,0.0,0.0,0.0097343782384429,0.008868485506292222,9.806855232997375,0.0,0.0,0.0,0.0,0.0,0.0,0.0,0.0,0.0
2025/05/21 12:43:13.830721426,1747824193,829761050,mA1/imu,0.8505141186717627,0.5259499192565944,-0.0006084983046824321,0.001430420843567939,0.0,0.0,0.0,0.0,0.0,0.0,0.0,0.0,0.0,0.0008731719248290737,-0.001397138490273978,0.024191935367508643,0.0,0.0,0.0,0.0,0.0,0.0,0.0,0.0,0.0,0.014943998172310985,-0.5590142745972062,9.810683291075714,0.0,0.0,0.0,0.0,0.0,0.0,0.0,0.0,0.0
2025/05/21 12:43:13.880540024,1747824193,879515788,mA1/imu,0.8508304214012326,0.5254380335658978,-0.0006162596196994537,0.0014446884386282433,0.0,0.0,0.0,0.0,0.0,0.0,0.0,0.0,0.0,0.0011733318039141346,-0.0001231982166989094,0.023989149319608882,0.0,0.0,0.0,0.0,0.0,0.0,0.0,0.0,0.0,0.017984692248716377,-0.5581877388551194,9.80787718900864,0.0,0.0,0.0,0.0,0.0,0.0,0.0,0.0,0.0
2025/05/21 12:43:13.932399829,1747824193,931254079,mA1/imu,0.8511440141047757,0.5249299576079397,-0.0006025475500087106,0.0014296138590800494,0.0,0.0,0.0,0.0,0.0,0.0,0.0,0.0,0.0,0.0005812618495083297,0.0012804126471139608,0.02379835319130586,0.0,0.0,0.0,0.0,0.0,0.0,0.0,0.0,0.0,0.01089462599037712,0.02335508813784965,9.807001963824055,0.0,0.0,0.0,0.0,0.0,0.0,0.0,0.0,0.0
2025/05/21 12:43:13.981993704,1747824193,981094731,mA1/imu,0.8514546253915398,0.5244261100080888,-0.0005617698142857488,0.001400162780616272,0.0,0.0,0.0,0.0,0.0,0.0,0.0,0.0,0.0,0.00020222884732745835,0.0024591785806216547,0.023600516562804118,0.0,0.0,0.0,0.0,0.0,0.0,0.0,0.0,0.0,0.011321808138861023,-0.015344728229939554,9.806590086826116,0.0,0.0,0.0,0.0,0.0,0.0,0.0,0.0,0.0
2025/05/21 12:43:14.33639831,1747824194,32409397,mA1/imu,0.8517625031166621,0.5239261074360996,-0.0005014152258926566,0.0013493754354158352,0.0,0.0,0.0,0.0,0.0,0.0,0.0,0.0,0.0,0.0010601184753263604,0.003506330565273491,0.023420827750194582,0.0,0.0,0.0,0.0,0.0,0.0,0.0,0.0,0.0,0.014580046433936511,-0.2225003695179598,9.811585891204716,0.0,0.0,0.0,0.0,0.0,0.0,0.0,0.0,0.0
2025/05/21 12:43:14.82896368,1747824194,82029625,mA1/imu,0.8520677222082313,0.5234298232434317,-0.00042670055397319405,0.0012786073922700426,0.0,0.0,0.0,0.0,0.0,0.0,0.0,0.0,0.0,0.0027552305533542903,0.00425198906252737,0.023225263919942462,0.0,0.0,0.0,0.0,0.0,0.0,0.0,0.0,0.0,0.0203198976080455,-0.5022029424052087,9.809565550783278,0.0,0.0,0.0,0.0,0.0,0.0,0.0,0.0,0.0
2025/05/21 12:43:14.134231463,1747824194,132936242,mA1/imu,0.8523706698730106,0.5229365951789198,-0.00033316218712983595,0.0012031483162849854,0.0,0.0,0.0,0.0,0.0,0.0,0.0,0.0,0.0,0.001369921970339362,0.004910594594007906,0.023085974309372908,0.0,0.0,0.0,0.0,0.0,0.0,0.0,0.0,0.0,0.015786685328455445,0.02706195099884967,9.806895219096136,0.0,0.0,0.0,0.0,0.0,0.0,0.0,0.0,0.0
2025/05/21 12:43:14.183699186,1747824194,182803945,mA1/imu,0.8526711749958422,0.522446693716531,-0.00023008788199900716,0.0011254401102784085,0.0,0.0,0.0,0.0,0.0,0.0,0.0,0.0,0.0,-0.00019360506768540948,0.0052098795150504985,0.02293073137647565,0.0,0.0,0.0,0.0,0.0,0.0,0.0,0.0,0.0,0.015892885336686875,-0.08762514289120343,9.806410714161839,0.0,0.0,0.0,0.0,0.0,0.0,0.0,0.0,0.0
2025/05/21 12:43:14.235274342,1747824194,233709743,mA1/imu,0.8529694151543026,0.5219598657137366,-0.00013765470830975126,0.0010278358849084152,0.0,0.0,0.0,0.0,0.0,0.0,0.0,0.0,0.0,0.0004593894180049419,0.005167214153417928,0.02278722241694844,0.0,0.0,0.0,0.0,0.0,0.0,0.0,0.0,0.0,0.024938038690430042,-0.05641386558782559,9.810933822675192,0.0,0.0,0.0,0.0,0.0,0.0,0.0,0.0,0.0
2025/05/21 12:43:14.285194293,1747824194,283715236,mA1/imu,0.8532653568432705,0.5214761247937323,-4.8375848950270566e-05,0.0009379451025005854,0.0,0.0,0.0,0.0,0.0,0.0,0.0,0.0,0.0,0.0021010495381627637,0.004702046302756739,0.022621565638507143,0.0,0.0,0.0,0.0,0.0,0.0,0.0,0.0,0.0,0.022432105043618873,0.014571370287921834,9.812070788335777,0.0,0.0,0.0,0.0,0.0,0.0,0.0,0.0,0.0
2025/05/21 12:43:14.336721560,1747824194,335064992,mA1/imu,0.853559009478837,0.5209954582985401,3.5508887752278495e-05,0.0008651640999324177,0.0,0.0,0.0,0.0,0.0,0.0,0.0,0.0,0.0,5.806653747523868e-05,0.004059061365830468,0.02246738212763877,0.0,0.0,0.0,0.0,0.0,0.0,0.0,0.0,0.0,0.020024655743100514,0.5079427334152656,9.80852433901906,0.0,0.0,0.0,0.0,0.0,0.0,0.0,0.0,0.0
2025/05/21 12:43:14.385470800,1747824194,384591317,mA1/imu,0.8538502818810699,0.5205180495892365,0.00010232486232187465,0.0008035627276677494,0.0,0.0,0.0,0.0,0.0,0.0,0.0,0.0,0.0,-0.0009207727839060103,0.0032418227554326558,0.02232101477095403,0.0,0.0,0.0,0.0,0.0,0.0,0.0,0.0,0.0,0.016194486383147168,0.48127992481476495,9.809668815537151,0.0,0.0,0.0,0.0,0.0,0.0,0.0,0.0,0.0
2025/05/21 12:43:14.426972546,1747824194,425954355,mA1/imu,0.8541396624430576,0.5200431330457679,0.00014319908126300394,0.0007458603249266535,0.0,0.0,0.0,0.0,0.0,0.0,0.0,0.0,0.0,0.00034525437760216516,0.002202204672488605,0.022200467656205196,0.0,0.0,0.0,0.0,0.0,0.0,0.0,0.0,0.0,0.023982764194799822,-0.04042726580550228,9.812239212287729,0.0,0.0,0.0,0.0,0.0,0.0,0.0,0.0,0.0
2025/05/21 12:43:14.479028125,1747824194,476129969,mA1/imu,0.8544270993215184,0.5195707808143204,0.00016788988961622875,0.0007123777077553664,0.0,0.0,0.0,0.0,0.0,0.0,0.0,0.0,0.0,0.0009816813062093691,0.0010708683117916715,0.022064696897338257,0.0,0.0,0.0,0.0,0.0,0.0,0.0,0.0,0.0,0.021837623523862613,0.017866646954179482,9.812827470244786,0.0,0.0,0.0,0.0,0.0,0.0,0.0,0.0,0.0
2025/05/21 12:43:14.527623906,1747824194,526856712,mA1/imu,0.8547124881218835,0.519101194290751,0.00017019678225183658,0.0006955339462596192,0.0,0.0,0.0,0.0,0.0,0.0,0.0,0.0,0.0,0.00016080511223799348,9.493927674045524e-06,0.021929494025077618,0.0,0.0,0.0,0.0,0.0,0.0,0.0,0.0,0.0,0.011988558094276593,0.6111129998969087,9.814138295831073,0.0,0.0,0.0,0.0,0.0,0.0,0.0,0.0,0.0
2025/05/21 12:43:14.577712103,1747824194,576734451,mA1/imu,0.8549823694083537,0.5186565420475743,0.0001252128538914077,0.0007236807800949019,0.0,0.0,0.0,0.0,0.0,0.0,0.0,0.0,0.0,-0.0002660712017093629,-0.004061248297170792,0.019708994905584698,0.0,0.0,0.0,0.0,0.0,0.0,0.0,0.0,0.0,0.13601307569376309,0.19047454457452445,9.809221663064834,0.0,0.0,0.0,0.0,0.0,0.0,0.0,0.0,0.0
2025/05/21 12:43:14.628712909,1747824194,627697544,mA1/imu,0.8552160606196276,0.5182709983371094,-1.9510425388731057e-05,0.0008133635377182917,0.0,0.0,0.0,0.0,0.0,0.0,0.0,0.0,0.0,-0.001101733173540822,-0.008539779868372574,0.016931851186966253,0.0,0.0,0.0,0.0,0.0,0.0,0.0,0.0,0.0,0.12779413294555225,0.5530718335978405,9.814618451998962,0.0,0.0,0.0,0.0,0.0,0.0,0.0,0.0,0.0
2025/05/21 12:43:14.678757065,1747824194,677634165,mA1/imu,0.8554141171768737,0.517943714569432,-0.00024374799966246733,0.0009681216046311646,0.0,0.0,0.0,0.0,0.0,0.0,0.0,0.0,0.0,-0.0012349267923983788,-0.012232075237315844,0.014222745426380183,0.0,0.0,0.0,0.0,0.0,0.0,0.0,0.0,0.0,0.11999538297054049,0.5716095985302901,9.815308695452563,0.0,0.0,0.0,0.0,0.0,0.0,0.0,0.0,0.0
2025/05/21 12:43:14.730066787,1747824194,728673649,mA1/imu,0.8555782293325135,0.5176719467831773,-0.0005297364711307777,0.0011697799910240928,0.0,0.0,0.0,0.0,0.0,0.0,0.0,0.0,0.0,0.0001922465679674125,-0.014952174469474163,0.011679078374383083,0.0,0.0,0.0,0.0,0.0,0.0,0.0,0.0,0.0,0.11489913887854039,-0.5713991876208784,9.805957753850421,0.0,0.0,0.0,0.0,0.0,0.0,0.0,0.0,0.0
2025/05/21 12:43:14.779951988,1747824194,778514634,mA1/imu,0.8557109336839146,0.5174515483206328,-0.0008518787732503612,0.0014026464053863217,0.0,0.0,0.0,0.0,0.0,0.0,0.0,0.0,0.0,-0.0007443066912607095,-0.016304173758914,0.009358328313468433,0.0,0.0,0.0,0.0,0.0,0.0,0.0,0.0,0.0,0.1050647883899094,0.00278070430887189,9.814556286260615,0.0,0.0,0.0,0.0,0.0,0.0,0.0,0.0,0.0
2025/05/21 12:43:14.830768719,1747824194,829534714,mA1/imu,0.8558140007998933,0.5172796739814228,-0.0011827077469858062,0.0016541230118189715,0.0,0.0,0.0,0.0,0.0,0.0,0.0,0.0,0.0,-0.0007418572389448558,-0.016667856056454322,0.0070741032214284,0.0,0.0,0.0,0.0,0.0,0.0,0.0,0.0,0.0,0.0930113590428092,-0.6033296915262707,9.813851215405734,0.0,0.0,0.0,0.0,0.0,0.0,0.0,0.0,0.0
2025/05/21 12:43:14.880291931,1747824194,879326660,mA1/imu,0.8558920316544647,0.5171489149083274,-0.0014915238887628006,0.0018987669739685476,0.0,0.0,0.0,0.0,0.0,0.0,0.0,0.0,0.0,-0.0033330302522453737,-0.014662230609979492,0.005566585905494256,0.0,0.0,0.0,0.0,0.0,0.0,0.0,0.0,0.0,0.04752970005758567,-0.1447030487495252,9.807952227206927,0.0,0.0,0.0,0.0,0.0,0.0,0.0,0.0,0.0
2025/05/21 12:43:14.931883105,1747824194,930764416,mA1/imu,0.8559535864277872,0.5170454922673727,-0.0017550694142429964,0.0020824357733918385,0.0,0.0,0.0,0.0,0.0,0.0,0.0,0.0,0.0,-0.0024557261466984083,-0.011363477262358713,0.004327280207123514,0.0,0.0,0.0,0.0,0.0,0.0,0.0,0.0,0.0,0.03480262903946275,0.5503830986353458,9.81129750606997,0.0,0.0,0.0,0.0,0.0,0.0,0.0,0.0,0.0
2025/05/21 12:43:14.981516036,1747824194,980051715,mA1/imu,0.8559995384959449,0.5169681252157384,-0.0019261670841496125,0.0022444344539115217,0.0,0.0,0.0,0.0,0.0,0.0,0.0,0.0,0.0,-0.0005460231445519447,-0.007686217168175551,0.0031293293558117153,0.0,0.0,0.0,0.0,0.0,0.0,0.0,0.0,0.0,0.03610322073926088,0.05409541308441264,9.80771520571363,0.0,0.0,0.0,0.0,0.0,0.0,0.0,0.0,0.0
2025/05/21 12:43:15.32122618,1747824195,31174003,mA1/imu,0.8560306403432775,0.5169158365717396,-0.0020138190549847095,0.002346322149767057,0.0,0.0,0.0,0.0,0.0,0.0,0.0,0.0,0.0,-0.0005448513613926871,-0.003407613487131322,0.001965901800538304,0.0,0.0,0.0,0.0,0.0,0.0,0.0,0.0,0.0,0.03006524147199907,0.088081156538861,9.810904810331804,0.0,0.0,0.0,0.0,0.0,0.0,0.0,0.0,0.0
2025/05/21 12:43:15.82945368,1747824195,81022523,mA1/imu,0.8560474439780225,0.5168877995803398,-0.0020039766866864848,0.0024000794003846545,0.0,0.0,0.0,0.0,0.0,0.0,0.0,0.0,0.0,5.103892093885735e-05,0.0008678120480307907,0.0008623895943620753,0.0,0.0,0.0,0.0,0.0,0.0,0.0,0.0,0.0,0.04177656973468517,-0.5615516682433898,9.809210730117757,0.0,0.0,0.0,0.0,0.0,0.0,0.0,0.0,0.0
2025/05/21 12:43:15.133325710,1747824195,132352443,mA1/imu,0.8560507440668367,0.5168827717842044,-0.001905334333428558,0.0023861090443387007,0.0,0.0,0.0,0.0,0.0,0.0,0.0,0.0,0.0,-0.00216607329086762,0.005340993297539216,-0.00017570675153495577,0.0,0.0,0.0,0.0,0.0,0.0,0.0,0.0,0.0,0.0508320631323793,-0.5342691828323355,9.808234687621436,0.0,0.0,0.0,0.0,0.0,0.0,0.0,0.0,0.0
2025/05/21 12:43:15.183086287,1747824195,181946539,mA1/imu,0.856041035913378,0.5168998426392876,-0.0017271167690392415,0.0023053371762881236,0.0,0.0,0.0,0.0,0.0,0.0,0.0,0.0,0.0,-0.0019633915351572485,0.00946006112248172,-0.0011216530835968972,0.0,0.0,0.0,0.0,0.0,0.0,0.0,0.0,0.0,0.030273505910471055,-0.09873248727992225,9.80776260220096,0.0,0.0,0.0,0.0,0.0,0.0,0.0,0.0,0.0
2025/05/21 12:43:15.233963437,1747824195,232985217,mA1/imu,0.8560197667897279,0.5169364449573576,-0.0014720616165541471,0.0021688187351267115,0.0,0.0,0.0,0.0,0.0,0.0,0.0,0.0,0.0,-0.0010364623302564146,0.012874279799696303,-0.0020345681430936863,0.0,0.0,0.0,0.0,0.0,0.0,0.0,0.0,0.0,0.04562812068557947,-0.06485223371823216,9.804819621838277,0.0,0.0,0.0,0.0,0.0,0.0,0.0,0.0,0.0
2025/05/21 12:43:15.283760601,1747824195,282893482,mA1/imu,0.8559865974170081,0.5169928857818522,-0.0011574618366566173,0.0019903204521670896,0.0,0.0,0.0,0.0,0.0,0.0,0.0,0.0,0.0,-0.0017380359934715617,0.015505197799956212,-0.0029565699686889555,0.0,0.0,0.0,0.0,0.0,0.0,0.0,0.0,0.0,0.03586151994598061,0.493163392179027,9.808111599279334,0.0,0.0,0.0,0.0,0.0,0.0,0.0,0.0,0.0
2025/05/21 12:43:15.335534963,1747824195,334392680,mA1/imu,0.8559415642483447,0.5170688894937804,-0.0008103506579368854,0.001773539279684695,0.0,0.0,0.0,0.0,0.0,0.0,0.0,0.0,0.0,0.0010983502541985796,0.016935299272282395,-0.0038506328155193123,0.0,0.0,0.0,0.0,0.0,0.0,0.0,0.0,0.0,0.045990584979492245,-0.5425133291130116,9.807429300168968,0.0,0.0,0.0,0.0,0.0,0.0,0.0,0.0,0.0
2025/05/21 12:43:15.384685344,1747824195,383795099,mA1/imu,0.8558859125689993,0.517162197190129,-0.000443298790026644,0.0015394640599998323,0.0,0.0,0.0,0.0,0.0,0.0,0.0,0.0,0.0,0.0012990047936945381,0.01763595663543788,-0.004632248135466272,0.0,0.0,0.0,0.0,0.0,0.0,0.0,0.0,0.0,0.04319009853081151,-0.18393869320025222,9.807253188107886,0.0,0.0,0.0,0.0,0.0,0.0,0.0,0.0,0.0
2025/05/21 12:43:15.437230072,1747824195,435262584,mA1/imu,0.8558196474774684,0.5172726878088303,-7.800591467588074e-05,0.0013005205294944163,0.0,0.0,0.0,0.0,0.0,0.0,0.0,0.0,0.0,0.002329123438537245,0.01716808613380267,-0.005451248753773015,0.0,0.0,0.0,0.0,0.0,0.0,0.0,0.0,0.0,0.053368047181048955,-0.5642432225838784,9.805455889875251,0.0,0.0,0.0,0.0,0.0,0.0,0.0,0.0,0.0
2025/05/21 12:43:15.485550618,1747824195,484607670,mA1/imu,0.8557427583448679,0.5174003577182607,0.00026007270709440676,0.0010647701724122067,0.0,0.0,0.0,0.0,0.0,0.0,0.0,0.0,0.0,0.0013747346304434326,0.015838833660128993,-0.006268253805182437,0.0,0.0,0.0,0.0,0.0,0.0,0.0,0.0,0.0,0.052718865085039715,-0.38507242054806085,9.810838801779369,0.0,0.0,0.0,0.0,0.0,0.0,0.0,0.0,0.0
2025/05/21 12:43:15.537005554,1747824195,535829014,mA1/imu,0.8556554943607018,0.5175448331539231,0.0005528773577986957,0.0008455605527824692,0.0,0.0,0.0,0.0,0.0,0.0,0.0,0.0,0.0,0.0015669091369076476,0.013577520494634137,-0.007059515288050945,0.0,0.0,0.0,0.0,0.0,0.0,0.0,0.0,0.0,0.06300366828075794,-0.67105203359063,9.809560491839555,0.0,0.0,0.0,0.0,0.0,0.0,0.0,0.0,0.0
2025/05/21 12:43:15.587034901,1747824195,585343794,mA1/imu,0.8555574330908394,0.5177069124962942,0.0007801576013323324,0.0006502235656009468,0.0,0.0,0.0,0.0,0.0,0.0,0.0,0.0,0.0,0.0013477114504790416,0.01058882409511133,-0.007884878002446567,0.0,0.0,0.0,0.0,0.0,0.0,0.0,0.0,0.0,0.061341360503713374,-0.06236834373366626,9.806601829035666,0.0,0.0,0.0,0.0,0.0,0.0,0.0,0.0,0.0
2025/05/21 12:43:15.628064229,1747824195,626726314,mA1/imu,0.8554488859005299,0.5178861682182706,0.000935082184994995,0.0004959849258135481,0.0,0.0,0.0,0.0,0.0,0.0,0.0,0.0,0.0,0.0013214708992097962,0.007084789246583992,-0.00869679054585955,0.0,0.0,0.0,0.0,0.0,0.0,0.0,0.0,0.0,0.05791509588756555,0.562242925201327,9.811795001255378,0.0,0.0,0.0,0.0,0.0,0.0,0.0,0.0,0.0
2025/05/21 12:43:15.677440638,1747824195,676131875,mA1/imu,0.8553296488649759,0.5180830164833136,0.001012874358787113,0.00039228765062904956,0.0,0.0,0.0,0.0,0.0,0.0,0.0,0.0,0.0,0.0014826103752438023,0.0033283897722416874,-0.009539761198042472,0.0,0.0,0.0,0.0,0.0,0.0,0.0,0.0,0.0,0.05643074586952696,0.5721570923833147,9.812199667994078,0.0,0.0,0.0,0.0,0.0,0.0,0.0,0.0,0.0
2025/05/21 12:43:15.728626252,1747824195,727690871,mA1/imu,0.8552000313355161,0.5182969939446683,0.0010088658608138025,0.00033861678532942435,0.0,0.0,0.0,0.0,0.0,0.0,0.0,0.0,0.0,0.003177436858799787,-0.0005540101326936816,-0.010318106568054316,0.0,0.0,0.0,0.0,0.0,0.0,0.0,0.0,0.0,0.05776544412443124,-0.5686527573480923,9.806468818407376,0.0,0.0,0.0,0.0,0.0,0.0,0.0,0.0,0.0
2025/05/21 12:43:15.779678974,1747824195,777609151,mA1/imu,0.8550603483113338,0.5185275577068681,0.0009269535754269178,0.00033675112476114346,0.0,0.0,0.0,0.0,0.0,0.0,0.0,0.0,0.0,0.003061647331279121,-0.004257157382698519,-0.011102028875210342,0.0,0.0,0.0,0.0,0.0,0.0,0.0,0.0,0.0,0.05739424142814894,-0.5766945187111092,9.8104626379607,0.0,0.0,0.0,0.0,0.0,0.0,0.0,0.0,0.0
2025/05/21 12:43:15.831004115,1747824195,828909784,mA1/imu,0.8549105674783266,0.5187746892856654,0.0007732930231316099,0.00038129823922133027,0.0,0.0,0.0,0.0,0.0,0.0,0.0,0.0,0.0,0.00185373529531046,-0.007435545332007277,-0.011859212631073654,0.0,0.0,0.0,0.0,0.0,0.0,0.0,0.0,0.0,0.04944481475644527,-0.004267390397261109,9.814114997331606,0.0,0.0,0.0,0.0,0.0,0.0,0.0,0.0,0.0
2025/05/21 12:43:15.879570752,1747824195,878545737,mA1/imu,0.854751240144717,0.5190373524998502,0.0005637407918372907,0.0004757912717509873,0.0,0.0,0.0,0.0,0.0,0.0,0.0,0.0,0.0,6.506828615805814e-05,-0.010132585295015538,-0.012583106008561749,0.0,0.0,0.0,0.0,0.0,0.0,0.0,0.0,0.0,0.04732952783965742,0.520557765791558,9.814720036875542,0.0,0.0,0.0,0.0,0.0,0.0,0.0,0.0,0.0
2025/05/21 12:43:15.930922804,1747824195,929648052,mA1/imu,0.8545826281081318,0.5193150055166729,0.0003064331824234677,0.0006023949876565746,0.0,0.0,0.0,0.0,0.0,0.0,0.0,0.0,0.0,0.0010480949392385741,-0.012155032042458944,-0.013277925417877206,0.0,0.0,0.0,0.0,0.0,0.0,0.0,0.0,0.0,0.045135268311916624,-0.5418104201084999,9.808289288986408,0.0,0.0,0.0,0.0,0.0,0.0,0.0,0.0,0.0
2025/05/21 12:43:15.980491676,1747824195,979360851,mA1/imu,0.8544049567318445,0.5196071556806425,2.10977627376367e-05,0.0007571211341766122,0.0,0.0,0.0,0.0,0.0,0.0,0.0,0.0,0.0,0.00029899074593219135,-0.013357426474889484,-0.013942371419944132,0.0,0.0,0.0,0.0,0.0,0.0,0.0,0.0,0.0,0.039548687045247645,-0.04218594077880884,9.810348683466215,0.0,0.0,0.0,0.0,0.0,0.0,0.0,0.0,0.0
2025/05/21 12:43:16.33094613,1747824196,31024540,mA1/imu,0.8542192316184335,0.5199120857179805,-0.00027272166750072344,0.000923623562196692,0.0,0.0,0.0,0.0,0.0,0.0,0.0,0.0,0.0,0.0006148086376662519,-0.013457223260317973,-0.014521538171000544,0.0,0.0,0.0,0.0,0.0,0.0,0.0,0.0,0.0,0.02882110642916525,-0.09914265487172803,9.810409976223253,0.0,0.0,0.0,0.0,0.0,0.0,0.0,0.0,0.0
2025/05/21 12:43:16.82819505,1747824196,80802934,mA1/imu,0.8540258251496703,0.5202291689729194,-0.0005525739727822989,0.0010937957647780437,0.0,0.0,0.0,0.0,0.0,0.0,0.0,0.0,0.0,-0.00016464381001886886,-0.012735877067981606,-0.015096582676658418,0.0,0.0,0.0,0.0,0.0,0.0,0.0,0.0,0.0,0.0269127962725896,0.13085671589135084,9.810307415497075,0.0,0.0,0.0,0.0,0.0,0.0,0.0,0.0,0.0
2025/05/21 12:43:16.133248071,1747824196,132238953,mA1/imu,0.8538249754191005,0.5205580473510799,-0.0008005327881637351,0.0012608869332410863,0.0,0.0,0.0,0.0,0.0,0.0,0.0,0.0,0.0,-0.0015017362812874894,-0.011321398180192436,-0.015641573249692967,0.0,0.0,0.0,0.0,0.0,0.0,0.0,0.0,0.0,0.02509010489297709,0.1823937525600796,9.81103254543992,0.0,0.0,0.0,0.0,0.0,0.0,0.0,0.0,0.0
2025/05/21 12:43:16.182951612,1747824196,181655173,mA1/imu,0.8536166368396387,0.5208988778261374,-0.0010089138306713544,0.0014065855599526274,0.0,0.0,0.0,0.0,0.0,0.0,0.0,0.0,0.0,-4.382287183511942e-05,-0.009310916815326599,-0.016220699185144138,0.0,0.0,0.0,0.0,0.0,0.0,0.0,0.0,0.0,0.026460460948430416,-0.6036480329629866,9.810785769947504,0.0,0.0,0.0,0.0,0.0,0.0,0.0,0.0,0.0
2025/05/21 12:43:16.234650661,1747824196,233316041,mA1/imu,0.8534007386759984,0.5212518506191961,-0.0011616174929546755,0.0015290840800038761,0.0,0.0,0.0,0.0,0.0,0.0,0.0,0.0,0.0,-0.000622829270169532,-0.006719824654973664,-0.016778271482147306,0.0,0.0,0.0,0.0,0.0,0.0,0.0,0.0,0.0,0.024779634731492584,-0.6268985336567066,9.812206899998952,0.0,0.0,0.0,0.0,0.0,0.0,0.0,0.0,0.0
2025/05/21 12:43:16.283866533,1747824196,282570688,mA1/imu,0.8531775358661354,0.5216166176922787,-0.0012530255326850296,0.001620607192006769,0.0,0.0,0.0,0.0,0.0,0.0,0.0,0.0,0.0,-0.002596029048462704,-0.0038094051258366476,-0.01731313129062453,0.0,0.0,0.0,0.0,0.0,0.0,0.0,0.0,0.0,0.020428943185605883,0.518912344609666,9.810165646841401,0.0,0.0,0.0,0.0,0.0,0.0,0.0,0.0,0.0
2025/05/21 12:43:16.335365221,1747824196,334458801,mA1/imu,0.8529470421179842,0.521993195332187,-0.0012796283344018863,0.0016762817187648124,0.0,0.0,0.0,0.0,0.0,0.0,0.0,0.0,0.0,-0.0028200673353672694,-0.0008139771592630228,-0.017869538409923107,0.0,0.0,0.0,0.0,0.0,0.0,0.0,0.0,0.0,0.020997773254423292,0.5150993600684153,9.808994756003043,0.0,0.0,0.0,0.0,0.0,0.0,0.0,0.0,0.0
2025/05/21 12:43:16.384938087,1747824196,383368227,mA1/imu,0.8527095365580646,0.5223811274992383,-0.0012416225816795213,0.0016918241397834758,0.0,0.0,0.0,0.0,0.0,0.0,0.0,0.0,0.0,-0.0011984033492216848,0.002199001970191055,-0.018401731465312425,0.0,0.0,0.0,0.0,0.0,0.0,0.0,0.0,0.0,0.020116039315735735,0.006275686780646984,9.808211684988194,0.0,0.0,0.0,0.0,0.0,0.0,0.0,0.0,0.0
2025/05/21 12:43:16.435663171,1747824196,434582281,mA1/imu,0.8524649058570579,0.5227805371821252,-0.0011413474403649758,0.001670793735320056,0.0,0.0,0.0,0.0,0.0,0.0,0.0,0.0,0.0,0.0005646646075717167,0.004929866996789851,-0.018959780036912264,0.0,0.0,0.0,0.0,0.0,0.0,0.0,0.0,0.0,0.023214745072788756,-0.4940886173027542,9.807747248919112,0.0,0.0,0.0,0.0,0.0,0.0,0.0,0.0,0.0
2025/05/21 12:43:16.485459155,1747824196,484411963,mA1/imu,0.8522178592421883,0.523183673931664,-0.0009635695318803904,0.001623346477332698,0.0,0.0,0.0,0.0,0.0,0.0,0.0,0.0,0.0,-0.0005606598566867484,0.00856021388743921,-0.01875372443156188,0.0,0.0,0.0,0.0,0.0,0.0,0.0,0.0,0.0,-0.018174278477220418,-0.5850192448523043,9.808892487689386,0.0,0.0,0.0,0.0,0.0,0.0,0.0,0.0,0.0
2025/05/21 12:43:16.537415411,1747824196,536177376,mA1/imu,0.8519758718106961,0.5235783683420094,-0.0007188944802166456,0.0015130259250238746,0.0,0.0,0.0,0.0,0.0,0.0,0.0,0.0,0.0,-0.0013398661993660695,0.011937940839598746,-0.01835086911197885,0.0,0.0,0.0,0.0,0.0,0.0,0.0,0.0,0.0,-0.015541992462167434,-0.3522979440103126,9.810995432032573,0.0,0.0,0.0,0.0,0.0,0.0,0.0,0.0,0.0
2025/05/21 12:43:16.578124340,1747824196,576182992,mA1/imu,0.851738735337885,0.5239647944178843,-0.00041726189240767243,0.0013589805582394292,0.0,0.0,0.0,0.0,0.0,0.0,0.0,0.0,0.0,-0.0023975680573993527,0.014476933533184109,-0.017965752933084618,0.0,0.0,0.0,0.0,0.0,0.0,0.0,0.0,0.0,-0.013634734183573978,0.5146988631752216,9.808000724198154,0.0,0.0,0.0,0.0,0.0,0.0,0.0,0.0,0.0
2025/05/21 12:43:16.628148961,1747824196,626729263,mA1/imu,0.8515060646777891,0.5243434401553216,-7.878290687577034e-05,0.0011714846482501953,0.0,0.0,0.0,0.0,0.0,0.0,0.0,0.0,0.0,-0.00034842561707276346,0.016044074788252066,-0.017620114500587165,0.0,0.0,0.0,0.0,0.0,0.0,0.0,0.0,0.0,-0.006511507827863619,-0.3167486952644969,9.809103892613486,0.0,0.0,0.0,0.0,0.0,0.0,0.0,0.0,0.0
2025/05/21 12:43:16.677173454,1747824196,676157797,mA1/imu,0.8512776728799148,0.5247144924994827,0.0002824322516076352,0.0009722392658912554,0.0,0.0,0.0,0.0,0.0,0.0,0.0,0.0,0.0,-0.0013897741898449057,0.016666775695738236,-0.017278531900192996,0.0,0.0,0.0,0.0,0.0,0.0,0.0,0.0,0.0,-0.004091454852612043,-0.0830866449976175,9.810377927719125,0.0,0.0,0.0,0.0,0.0,0.0,0.0,0.0,0.0
2025/05/21 12:43:16.728022232,1747824196,727140142,mA1/imu,0.8510533203269571,0.525078360408814,0.0006298404119622243,0.000751459851899833,0.0,0.0,0.0,0.0,0.0,0.0,0.0,0.0,0.0,0.0006683490446230674,0.016253388753383363,-0.016951657913384276,0.0,0.0,0.0,0.0,0.0,0.0,0.0,0.0,0.0,0.001975139147261488,-0.3403803590419932,9.809393033487694,0.0,0.0,0.0,0.0,0.0,0.0,0.0,0.0,0.0
2025/05/21 12:43:16.778885310,1747824196,777268126,mA1/imu,0.8508330140946172,0.5254350248759536,0.0009583707865137817,0.0005461553904271921,0.0,0.0,0.0,0.0,0.0,0.0,0.0,0.0,0.0,0.0006946569752388477,0.01487060871951775,-0.016624696411283786,0.0,0.0,0.0,0.0,0.0,0.0,0.0,0.0,0.0,0.005753535424679721,0.00599762166136077,9.808477300839845,0.0,0.0,0.0,0.0,0.0,0.0,0.0,0.0,0.0
2025/05/21 12:43:16.828556442,1747824196,827958915,mA1/imu,0.8506167762193373,0.5257845940003045,0.0012389330031103364,0.00035464231372738463,0.0,0.0,0.0,0.0,0.0,0.0,0.0,0.0,0.0,0.00012183219732022767,0.012638202795830842,-0.01629895394130472,0.0,0.0,0.0,0.0,0.0,0.0,0.0,0.0,0.0,0.007283935244761699,0.25212927571632904,9.808014162990913,0.0,0.0,0.0,0.0,0.0,0.0,0.0,0.0,0.0
2025/05/21 12:43:16.879206693,1747824196,877962278,mA1/imu,0.8504043066796403,0.5261276884883411,0.0014611710777886078,0.00018858875041267585,0.0,0.0,0.0,0.0,0.0,0.0,0.0,0.0,0.0,0.00034622373421982746,0.009953174857064285,-0.01601907174779553,0.0,0.0,0.0,0.0,0.0,0.0,0.0,0.0,0.0,0.0019864227364051155,0.5705644006175408,9.812055356089607,0.0,0.0,0.0,0.0,0.0,0.0,0.0,0.0,0.0
2025/05/21 12:43:16.930608748,1747824196,929765518,mA1/imu,0.8501954948310735,0.526464624557992,0.0016173799984292745,6.115471518546164e-05,0.0,0.0,0.0,0.0,0.0,0.0,0.0,0.0,0.0,0.001254252441632369,0.00668372803582947,-0.015733044431491934,0.0,0.0,0.0,0.0,0.0,0.0,0.0,0.0,0.0,0.00242057456456804,0.42817317463823495,9.81161850233224,0.0,0.0,0.0,0.0,0.0,0.0,0.0,0.0,0.0
2025/05/21 12:43:16.980929297,1747824196,978886616,mA1/imu,0.8499903530714515,0.5267955119114365,0.0016993442536260527,-2.333547389511497e-05,0.0,0.0,0.0,0.0,0.0,0.0,0.0,0.0,0.0,0.001518113968743057,0.0031425530369788633,-0.015452618887924109,0.0,0.0,0.0,0.0,0.0,0.0,0.0,0.0,0.0,0.0032950734295463004,-0.4930217270271117,9.81096993473611,0.0,0.0,0.0,0.0,0.0,0.0,0.0,0.0,0.0
2025/05/21 12:43:17.30972261,1747824197,29959625,mA1/imu,0.8497890690502942,0.527120146248706,0.0016984113618322228,-7.028672105920326e-05,0.0,0.0,0.0,0.0,0.0,0.0,0.0,0.0,0.0,0.0022412611529774892,-0.00048097837145856157,-0.015165841984446204,0.0,0.0,0.0,0.0,0.0,0.0,0.0,0.0,0.0,0.0039531060550661926,-0.6003246116337987,9.811048564371387,0.0,0.0,0.0,0.0,0.0,0.0,0.0,0.0,0.0
2025/05/21 12:43:17.81003321,1747824197,79745740,mA1/imu,0.8495913285819509,0.5274390287655443,0.0016251205045703047,-6.570053970424378e-05,0.0,0.0,0.0,0.0,0.0,0.0,0.0,0.0,0.0,0.0017514576552490238,-0.0039410770955198475,-0.01490491449317563,0.0,0.0,0.0,0.0,0.0,0.0,0.0,0.0,0.0,0.0010326062243423452,-0.6346712635828318,9.81221394916072,0.0,0.0,0.0,0.0,0.0,0.0,0.0,0.0,0.0
2025/05/21 12:43:17.131906546,1747824197,131075656,mA1/imu,0.8493970813902165,0.5277522233193191,0.0014793111946455376,-2.3359938712188416e-05,0.0,0.0,0.0,0.0,0.0,0.0,0.0,0.0,0.0,0.000869272750692875,-0.007044186710846319,-0.014640253524444454,0.0,0.0,0.0,0.0,0.0,0.0,0.0,0.0,0.0,-0.00010020542570072025,-0.069462187213721,9.811789561113578,0.0,0.0,0.0,0.0,0.0,0.0,0.0,0.0,0.0
2025/05/21 12:43:17.182534859,1747824197,180859498,mA1/imu,0.8492061702845856,0.5280598947234558,0.001274534432161271,5.9137309895186674e-05,0.0,0.0,0.0,0.0,0.0,0.0,0.0,0.0,0.0,0.0006071747404942654,-0.00968685110572271,-0.014385277641587828,0.0,0.0,0.0,0.0,0.0,0.0,0.0,0.0,0.0,-0.004925687504973953,-0.07751646263167748,9.80966219682605,0.0,0.0,0.0,0.0,0.0,0.0,0.0,0.0,0.0
2025/05/21 12:43:17.233386523,1747824197,231801240,mA1/imu,0.8490184006667415,0.5283622677630655,0.0010201208025537396,0.0001693726870068443,0.0,0.0,0.0,0.0,0.0,0.0,0.0,0.0,0.0,0.0006564303219292485,-0.011675485138973308,-0.01414455399270493,0.0,0.0,0.0,0.0,0.0,0.0,0.0,0.0,0.0,-0.011240081742678654,0.4929888290201062,9.810454095896354,0.0,0.0,0.0,0.0,0.0,0.0,0.0,0.0,0.0
2025/05/21 12:43:17.282887387,1747824197,281622799,mA1/imu,0.8488336925080983,0.5286593723622134,0.0007344680732289681,0.00030171726384650173,0.0,0.0,0.0,0.0,0.0,0.0,0.0,0.0,0.0,0.0011706820261666783,-0.012919660418317644,-0.013906915247015678,0.0,0.0,0.0,0.0,0.0,0.0,0.0,0.0,0.0,-0.011839908132600798,0.3747709848440538,9.812865757259734,0.0,0.0,0.0,0.0,0.0,0.0,0.0,0.0,0.0
2025/05/21 12:43:17.334392574,1747824197,333102908,mA1/imu,0.8486520953974068,0.5289510516938646,0.0004414866489110636,0.00045932459581592865,0.0,0.0,0.0,0.0,0.0,0.0,0.0,0.0,0.0,0.0012610373639186162,-0.013397155670158476,-0.013648874742275626,0.0,0.0,0.0,0.0,0.0,0.0,0.0,0.0,0.0,-0.015308567676411991,-0.1027238985705086,9.810389994771624,0.0,0.0,0.0,0.0,0.0,0.0,0.0,0.0,0.0
2025/05/21 12:43:17.384139845,1747824197,382460708,mA1/imu,0.8484734943529455,0.5292374866186179,0.00015185943645207038,0.0006237602277868266,0.0,0.0,0.0,0.0,0.0,0.0,0.0,0.0,0.0,-0.00039916628204764696,-0.013098874223323686,-0.013419769846422125,0.0,0.0,0.0,0.0,0.0,0.0,0.0,0.0,0.0,-0.018935749332998027,0.14447017620948524,9.80994031800597,0.0,0.0,0.0,0.0,0.0,0.0,0.0,0.0,0.0
2025/05/21 12:43:17.435195619,1747824197,433498378,mA1/imu,0.8482976045609645,0.5295191676417104,-0.00011941265702377821,0.0007816244477514183,0.0,0.0,0.0,0.0,0.0,0.0,0.0,0.0,0.0,0.0009863046674053661,-0.012057713264045741,-0.013202395736799195,0.0,0.0,0.0,0.0,0.0,0.0,0.0,0.0,0.0,-0.018874319825222974,-0.5943840115799456,9.810674564412153,0.0,0.0,0.0,0.0,0.0,0.0,0.0,0.0,0.0
2025/05/21 12:43:17.484831683,1747824197,483295548,mA1/imu,0.8481242979440812,0.5297963661526873,-0.00035465015096281427,0.000927292584530366,0.0,0.0,0.0,0.0,0.0,0.0,0.0,0.0,0.0,0.0003820536174911791,-0.010349388097043308,-0.01300692459478886,0.0,0.0,0.0,0.0,0.0,0.0,0.0,0.0,0.0,-0.0170577646568165,-0.613731227136672,9.810492192150742,0.0,0.0,0.0,0.0,0.0,0.0,0.0,0.0,0.0
2025/05/21 12:43:17.535529316,1747824197,534382348,mA1/imu,0.8479536766773454,0.53006901460125,-0.0005418005626309951,0.0010528158347837286,0.0,0.0,0.0,0.0,0.0,0.0,0.0,0.0,0.0,-0.0008639917202141004,-0.008065179051611021,-0.01277998354708817,0.0,0.0,0.0,0.0,0.0,0.0,0.0,0.0,0.0,-0.020069760610214104,-0.045843389851600726,9.808869294100758,0.0,0.0,0.0,0.0,0.0,0.0,0.0,0.0,0.0
2025/05/21 12:43:17.585838450,1747824197,584230642,mA1/imu,0.847785901356123,0.5303369574653025,-0.0006708545506930209,0.001151938541621503,0.0,0.0,0.0,0.0,0.0,0.0,0.0,0.0,0.0,-0.002880465048232095,-0.0053626086756716805,-0.012563742175482265,0.0,0.0,0.0,0.0,0.0,0.0,0.0,0.0,0.0,-0.020682165487672096,0.46699243557715425,9.811264633375282,0.0,0.0,0.0,0.0,0.0,0.0,0.0,0.0,0.0
2025/05/21 12:43:17.637011813,1747824197,636039767,mA1/imu,0.8476204600219,0.5306011097865786,-0.0007465026910337942,0.0012086270086943765,0.0,0.0,0.0,0.0,0.0,0.0,0.0,0.0,0.0,-0.00023214329634891652,-0.002569916434823639,-0.012392691598963133,0.0,0.0,0.0,0.0,0.0,0.0,0.0,0.0,0.0,-0.025945574195921264,0.6736551685761993,9.8080179942783,0.0,0.0,0.0,0.0,0.0,0.0,0.0,0.0,0.0
2025/05/21 12:43:17.685934616,1747824197,685064706,mA1/imu,0.8474574522942283,0.5308613319474799,-0.0007455895579439324,0.001247754036000962,0.0,0.0,0.0,0.0,0.0,0.0,0.0,0.0,0.0,-0.00022438258818326167,0.0003333070287125344,-0.012198650026195178,0.0,0.0,0.0,0.0,0.0,0.0,0.0,0.0,0.0,-0.018048785993058928,0.05203853908850747,9.808734255771595,0.0,0.0,0.0,0.0,0.0,0.0,0.0,0.0,0.0
2025/05/21 12:43:17.727925480,1747824197,726316323,mA1/imu,0.8472970289850411,0.5311174238597896,-0.0006869152500343604,0.0012469535285000236,0.0,0.0,0.0,0.0,0.0,0.0,0.0,0.0,0.0,-0.0004367902195543007,0.003111978051530814,-0.012008400201142614,0.0,0.0,0.0,0.0,0.0,0.0,0.0,0.0,0.0,-0.019555685619668944,0.05213265503103064,9.805760912459617,0.0,0.0,0.0,0.0,0.0,0.0,0.0,0.0,0.0
2025/05/21 12:43:17.778316846,1747824197,776194702,mA1/imu,0.8471387915625527,0.531369963805032,-0.0005605277719639163,0.0012309363890846852,0.0,0.0,0.0,0.0,0.0,0.0,0.0,0.0,0.0,-0.001353518491814676,0.005515326843070827,-0.011872302909339771,0.0,0.0,0.0,0.0,0.0,0.0,0.0,0.0,0.0,-0.011480583259779614,-0.6407042856179386,9.810704549730774,0.0,0.0,0.0,0.0,0.0,0.0,0.0,0.0,0.0
2025/05/21 12:43:17.827940513,1747824197,827040213,mA1/imu,0.8469824641503433,0.5316194003602218,-0.0004004377781991111,0.0011654321244562581,0.0,0.0,0.0,0.0,0.0,0.0,0.0,0.0,0.0,-0.002579559638065094,0.00763341039119799,-0.011711248402618342,0.0,0.0,0.0,0.0,0.0,0.0,0.0,0.0,0.0,-0.00743681807044546,-0.09142755079420874,9.808303176736537,0.0,0.0,0.0,0.0,0.0,0.0,0.0,0.0,0.0
2025/05/21 12:43:17.877958647,1747824197,876888968,mA1/imu,0.8468280374326855,0.5318656471730627,-0.00020104353826520094,0.0010807203991922893,0.0,0.0,0.0,0.0,0.0,0.0,0.0,0.0,0.0,-0.0012905300456627813,0.009128288176991727,-0.011551856970996813,0.0,0.0,0.0,0.0,0.0,0.0,0.0,0.0,0.0,-0.008515030064369492,-0.5726648100840673,9.8081645734724,0.0,0.0,0.0,0.0,0.0,0.0,0.0,0.0,0.0
2025/05/21 12:43:17.929777256,1747824197,927837012,mA1/imu,0.8466757387773091,0.5321082881591274,2.307398475906474e-05,0.0009810738260141254,0.0,0.0,0.0,0.0,0.0,0.0,0.0,0.0,0.0,-0.00044138867343645094,0.01002231143286493,-0.011386981966727537,0.0,0.0,0.0,0.0,0.0,0.0,0.0,0.0,0.0,-0.003996090343558497,-0.5780080346045514,9.808772858447274,0.0,0.0,0.0,0.0,0.0,0.0,0.0,0.0,0.0
2025/05/21 12:43:17.979725018,1747824197,977804633,mA1/imu,0.846527853412625,0.5323436583385293,0.00026299015319847187,0.0008681356711986456,0.0,0.0,0.0,0.0,0.0,0.0,0.0,0.0,0.0,-0.00019094696234256203,0.010876355020896122,-0.010839205209743718,0.0,0.0,0.0,0.0,0.0,0.0,0.0,0.0,0.0,-0.026665341685583266,-0.5782558450896861,9.808065554338153,0.0,0.0,0.0,0.0,0.0,0.0,0.0,0.0,0.0
2025/05/21 12:43:18.31083886,1747824198,29531138,mA1/imu,0.8463845173956949,0.5325715189226117,0.0005062634723767682,0.0007547467227983039,0.0,0.0,0.0,0.0,0.0,0.0,0.0,0.0,0.0,-0.0011835023150681822,0.010403268941430748,-0.010709885126843139,0.0,0.0,0.0,0.0,0.0,0.0,0.0,0.0,0.0,0.004278571506651015,-0.08366678724325805,9.812539860060957,0.0,0.0,0.0,0.0,0.0,0.0,0.0,0.0,0.0
2025/05/21 12:43:18.79787621,1747824198,78614378,mA1/imu,0.8462427338435012,0.5327966673675536,0.000727546946755746,0.000646014354138879,0.0,0.0,0.0,0.0,0.0,0.0,0.0,0.0,0.0,-0.002879886321294802,0.00937501941177772,-0.010580246113837207,0.0,0.0,0.0,0.0,0.0,0.0,0.0,0.0,0.0,0.0038266138504011848,0.4763582580273494,9.810564173288848,0.0,0.0,0.0,0.0,0.0,0.0,0.0,0.0,0.0
2025/05/21 12:43:18.130720017,1747824198,129834602,mA1/imu,0.8461022208324483,0.5330196156403273,0.0009097022348614942,0.0005419288517022098,0.0,0.0,0.0,0.0,0.0,0.0,0.0,0.0,0.0,-0.0008746990484196483,0.007727205356361355,-0.010485676596026196,0.0,0.0,0.0,0.0,0.0,0.0,0.0,0.0,0.0,0.008244884709717444,-0.03530401651142795,9.809641968992024,0.0,0.0,0.0,0.0,0.0,0.0,0.0,0.0,0.0
2025/05/21 12:43:18.181525473,1747824198,179479401,mA1/imu,0.8459631367579572,0.5332401451405381,0.0010516941391557335,0.0004612987897195624,0.0,0.0,0.0,0.0,0.0,0.0,0.0,0.0,0.0,8.003400800386897e-06,0.005694452912373214,-0.010378302991563197,0.0,0.0,0.0,0.0,0.0,0.0,0.0,0.0,0.0,0.007934664249191356,0.2793355500447853,9.810389291398472,0.0,0.0,0.0,0.0,0.0,0.0,0.0,0.0,0.0
2025/05/21 12:43:18.233002010,1747824198,231460725,mA1/imu,0.8458255620394441,0.5334581816571452,0.001148049499865203,0.0004111034618690177,0.0,0.0,0.0,0.0,0.0,0.0,0.0,0.0,0.0,0.00023763722629603054,0.0034024156984957055,-0.010267153965234766,0.0,0.0,0.0,0.0,0.0,0.0,0.0,0.0,0.0,0.0070689088281797145,-0.04550229562546256,9.810283254708262,0.0,0.0,0.0,0.0,0.0,0.0,0.0,0.0,0.0
2025/05/21 12:43:18.281969884,1747824198,281026567,mA1/imu,0.8456895659205087,0.5336736878633723,0.0011866660261464802,0.0003805249424802349,0.0,0.0,0.0,0.0,0.0,0.0,0.0,0.0,0.0,0.0002486775506740979,0.0009919462031461855,-0.010153038062903968,0.0,0.0,0.0,0.0,0.0,0.0,0.0,0.0,0.0,0.007316576334044984,-0.022813556283354054,9.813758083672138,0.0,0.0,0.0,0.0,0.0,0.0,0.0,0.0,0.0
2025/05/21 12:43:18.333491878,1747824198,332176319,mA1/imu,0.8455551502280868,0.5338866688426043,0.0011706431383559878,0.00037729238972365915,0.0,0.0,0.0,0.0,0.0,0.0,0.0,0.0,0.0,0.0005913965987090255,-0.0014230843553338203,-0.010029096758143098,0.0,0.0,0.0,0.0,0.0,0.0,0.0,0.0,0.0,0.005965520724386943,-0.019473204450486916,9.81473058284541,0.0,0.0,0.0,0.0,0.0,0.0,0.0,0.0,0.0
2025/05/21 12:43:18.383500324,1747824198,382024254,mA1/imu,0.8454222897855135,0.5340971638404084,0.0011011445778935408,0.00039873809703719814,0.0,0.0,0.0,0.0,0.0,0.0,0.0,0.0,0.0,0.0008789395956590296,-0.003685074959423337,-0.009903913554582271,0.0,0.0,0.0,0.0,0.0,0.0,0.0,0.0,0.0,0.004692327009538857,-0.015388345915661985,9.810517121940025,0.0,0.0,0.0,0.0,0.0,0.0,0.0,0.0,0.0
2025/05/21 12:43:18.435284129,1747824198,433018164,mA1/imu,0.8452909628140454,0.5343051786905214,0.0009839067254040965,0.000442873514507152,0.0,0.0,0.0,0.0,0.0,0.0,0.0,0.0,0.0,0.0011077213276861001,-0.005656549283227089,-0.009791569556088434,0.0,0.0,0.0,0.0,0.0,0.0,0.0,0.0,0.0,0.0019012434311134526,-0.015040099215811807,9.809855916811824,0.0,0.0,0.0,0.0,0.0,0.0,0.0,0.0,0.0
2025/05/21 12:43:18.485064979,1747824198,482997516,mA1/imu,0.8451611638168853,0.5345106799319139,0.0008269902591763925,0.0005062623058250916,0.0,0.0,0.0,0.0,0.0,0.0,0.0,0.0,0.0,0.0012804581811516058,-0.007255852126261304,-0.009681460731291693,0.0,0.0,0.0,0.0,0.0,0.0,0.0,0.0,0.0,0.0008372616331658173,-0.014964828593062524,9.81005564823337,0.0,0.0,0.0,0.0,0.0,0.0,0.0,0.0,0.0
2025/05/21 12:43:18.527990671,1747824198,526178762,mA1/imu,0.845032847237664,0.5347136947526979,0.0006405535888458266,0.0005843153472923355,0.0,0.0,0.0,0.0,0.0,0.0,0.0,0.0,0.0,0.0013888482559636477,-0.008369107216196322,-0.00957242649692711,0.0,0.0,0.0,0.0,0.0,0.0,0.0,0.0,0.0,-0.0025393821203154496,-0.015125352966392929,9.80917201269065,0.0,0.0,0.0,0.0,0.0,0.0,0.0,0.0,0.0
2025/05/21 12:43:18.576529488,1747824198,575767148,mA1/imu,0.8449059635487962,0.5349142655107255,0.0004359419325474457,0.0006717644178191888,0.0,0.0,0.0,0.0,0.0,0.0,0.0,0.0,0.0,0.0014346095798724561,-0.008985636934742646,-0.009464551287435376,0.0,0.0,0.0,0.0,0.0,0.0,0.0,0.0,0.0,-0.002975274781478659,-0.017612142231453885,9.812390315483164,0.0,0.0,0.0,0.0,0.0,0.0,0.0,0.0,0.0
2025/05/21 12:43:18.628156952,1747824198,627091108,mA1/imu,0.8447804691316004,0.5351124425978245,0.00022536083364733738,0.0007628651767764564,0.0,0.0,0.0,0.0,0.0,0.0,0.0,0.0,0.0,0.0014126407321782407,-0.009039534396868706,-0.009348283191791469,0.0,0.0,0.0,0.0,0.0,0.0,0.0,0.0,0.0,-0.006148392711288111,-0.01784108530745762,9.812818131435114,0.0,0.0,0.0,0.0,0.0,0.0,0.0,0.0,0.0
2025/05/21 12:43:18.677524619,1747824198,676596787,mA1/imu,0.8446563047328379,0.5353083229380322,2.0773628503622328e-05,0.0008519605595797958,0.0,0.0,0.0,0.0,0.0,0.0,0.0,0.0,0.0,0.0013289388401767676,-0.008591700995985376,-0.009232983561723123,0.0,0.0,0.0,0.0,0.0,0.0,0.0,0.0,0.0,-0.006856626950459374,-0.015105350712722287,9.808219578101955,0.0,0.0,0.0,0.0,0.0,0.0,0.0,0.0,0.0
2025/05/21 12:43:18.728675603,1747824198,727566667,mA1/imu,0.8445334452863991,0.5355019705165168,-0.00016639651612390135,0.0009336368736073844,0.0,0.0,0.0,0.0,0.0,0.0,0.0,0.0,0.0,0.0011818364052715163,-0.007651684339256912,-0.009132168653415712,0.0,0.0,0.0,0.0,0.0,0.0,0.0,0.0,0.0,-0.009038332272156517,-0.015201760679876865,9.80734358599626,0.0,0.0,0.0,0.0,0.0,0.0,0.0,0.0,0.0
2025/05/21 12:43:18.779113629,1747824198,777455125,mA1/imu,0.8444119062112646,0.5356934009362403,-0.0003262327936135045,0.0010032019673264618,0.0,0.0,0.0,0.0,0.0,0.0,0.0,0.0,0.0,0.0009853474715784476,-0.006319334421798293,-0.009034560310354909,0.0,0.0,0.0,0.0,0.0,0.0,0.0,0.0,0.0,-0.008935801829631832,-0.0152466781647287,9.807531126137015,0.0,0.0,0.0,0.0,0.0,0.0,0.0,0.0,0.0
2025/05/21 12:43:18.830084555,1747824198,828518268,mA1/imu,0.8442920641468534,0.5358820679776116,-0.00045059472902000654,0.001056694409113383,0.0,0.0,0.0,0.0,0.0,0.0,0.0,0.0,0.0,0.0007599654672163945,-0.004653812084872272,-0.008865353782240923,0.0,0.0,0.0,0.0,0.0,0.0,0.0,0.0,0.0,-0.009677171308585582,-0.012061263816742777,9.807209202754176,0.0,0.0,0.0,0.0,0.0,0.0,0.0,0.0,0.0
2025/05/21 12:43:18.879747570,1747824198,878304413,mA1/imu,0.844175124333704,0.5360661191182591,-0.0005339084755362591,0.0010910230994967203,0.0,0.0,0.0,0.0,0.0,0.0,0.0,0.0,0.0,0.0005188774914941416,-0.002783211309250593,-0.008634495843719375,0.0,0.0,0.0,0.0,0.0,0.0,0.0,0.0,0.0,-0.008922340679408107,-0.01287136561994254,9.809075998071933,0.0,0.0,0.0,0.0,0.0,0.0,0.0,0.0,0.0
2025/05/21 12:43:18.930239137,1747824198,929397154,mA1/imu,0.8440611849621598,0.5362454357227057,-0.0005729136577768003,0.0011047519091243437,0.0,0.0,0.0,0.0,0.0,0.0,0.0,0.0,0.0,0.0002581366244928545,-0.0008179971390452057,-0.008412540175414355,0.0,0.0,0.0,0.0,0.0,0.0,0.0,0.0,0.0,-0.00796456696914043,-0.013075466793853218,9.81009225964218,0.0,0.0,0.0,0.0,0.0,0.0,0.0,0.0,0.0
2025/05/21 12:43:18.979958738,1747824198,979060768,mA1/imu,0.8439502631592829,0.536420008589458,-0.0005703182880114172,0.0010965561150725364,0.0,0.0,0.0,0.0,0.0,0.0,0.0,0.0,0.0,9.7919705362424e-05,0.0009856072009335208,-0.008182041607884782,0.0,0.0,0.0,0.0,0.0,0.0,0.0,0.0,0.0,-0.002927788425229092,-0.005075303704473419,9.807686484909235,0.0,0.0,0.0,0.0,0.0,0.0,0.0,0.0,0.0
2025/05/21 12:43:19.31574141,1747824199,30410510,mA1/imu,0.8438423089425988,0.5365899099563997,-0.0005267202671313264,0.0010717915686688252,0.0,0.0,0.0,0.0,0.0,0.0,0.0,0.0,0.0,-0.00023877867136957968,0.002666278669864282,-0.007962940683132571,0.0,0.0,0.0,0.0,0.0,0.0,0.0,0.0,0.0,-0.000945736389351786,-0.00993351543544501,9.80768779930508,0.0,0.0,0.0,0.0,0.0,0.0,0.0,0.0,0.0
2025/05/21 12:43:19.81579848,1747824199,80055103,mA1/imu,0.8437371848448605,0.5367553418225526,-0.00044625039330724043,0.0010328579818507802,0.0,0.0,0.0,0.0,0.0,0.0,0.0,0.0,0.0,-0.000761317062294614,0.004119973492483218,-0.007752716870455932,0.0,0.0,0.0,0.0,0.0,0.0,0.0,0.0,0.0,0.00042335003699433757,0.5999035540626373,9.809289099587225,0.0,0.0,0.0,0.0,0.0,0.0,0.0,0.0,0.0
2025/05/21 12:43:19.132544821,1747824199,131154608,mA1/imu,0.843634849183421,0.5369163450178712,-0.00033417778010083745,0.0009838806473272945,0.0,0.0,0.0,0.0,0.0,0.0,0.0,0.0,0.0,-0.00020324831273414222,0.005275296395944887,-0.0075436618266716505,0.0,0.0,0.0,0.0,0.0,0.0,0.0,0.0,0.0,0.002302566759832647,0.029100062992548928,9.808800663046114,0.0,0.0,0.0,0.0,0.0,0.0,0.0,0.0,0.0
2025/05/21 12:43:19.182243420,1747824199,181074211,mA1/imu,0.8435352843253007,0.5370729216696032,-0.00019751386766154354,0.000928383424308565,0.0,0.0,0.0,0.0,0.0,0.0,0.0,0.0,0.0,-0.0006327470069869496,0.006095276604600781,-0.007336554861927592,0.0,0.0,0.0,0.0,0.0,0.0,0.0,0.0,0.0,0.004499075064707184,-0.10541685475085945,9.810432153527954,0.0,0.0,0.0,0.0,0.0,0.0,0.0,0.0,0.0
2025/05/21 12:43:19.233905607,1747824199,232175266,mA1/imu,0.843438431112272,0.5372251477906,-4.746899187830936e-05,0.0008667473286141565,0.0,0.0,0.0,0.0,0.0,0.0,0.0,0.0,0.0,-0.0016065735109168395,0.006531143253347772,-0.007131059741196332,0.0,0.0,0.0,0.0,0.0,0.0,0.0,0.0,0.0,0.006724560568480458,-0.04557331323717843,9.811972068970142,0.0,0.0,0.0,0.0,0.0,0.0,0.0,0.0,0.0
2025/05/21 12:43:19.282864122,1747824199,281821736,mA1/imu,0.843344230093982,0.5373730997392867,0.00010884539921349916,0.0008058513872061252,0.0,0.0,0.0,0.0,0.0,0.0,0.0,0.0,0.0,-0.003206057795707088,0.006584896453596417,-0.006930617740002628,0.0,0.0,0.0,0.0,0.0,0.0,0.0,0.0,0.0,0.006831906960804237,0.48239407095271786,9.811504937777336,0.0,0.0,0.0,0.0,0.0,0.0,0.0,0.0,0.0
2025/05/21 12:43:19.334127142,1747824199,333084811,mA1/imu,0.8432525920010122,0.537516930101202,0.00025680326325218275,0.0007416132671370778,0.0,0.0,0.0,0.0,0.0,0.0,0.0,0.0,0.0,-0.0017293724281512962,0.006207284997592442,-0.0067393108061404045,0.0,0.0,0.0,0.0,0.0,0.0,0.0,0.0,0.0,0.009610047823005952,-0.04482469236475965,9.81060396832235,0.0,0.0,0.0,0.0,0.0,0.0,0.0,0.0,0.0
2025/05/21 12:43:19.383775277,1747824199,382715982,mA1/imu,0.8431634475125658,0.5376567427862738,0.0003941465317121026,0.0006872871968206201,0.0,0.0,0.0,0.0,0.0,0.0,0.0,0.0,0.0,-0.0014336784084508399,0.005497760920903544,-0.00655339698588879,0.0,0.0,0.0,0.0,0.0,0.0,0.0,0.0,0.0,0.00994603996015496,0.6022275065515253,9.812299697116854,0.0,0.0,0.0,0.0,0.0,0.0,0.0,0.0,0.0
2025/05/21 12:43:19.436013925,1747824199,433820145,mA1/imu,0.8430767078145148,0.5377926934842473,0.0005140151276242785,0.0006475832351904001,0.0,0.0,0.0,0.0,0.0,0.0,0.0,0.0,0.0,-0.00022625088318342312,0.00446879539031454,-0.0063764185791342475,0.0,0.0,0.0,0.0,0.0,0.0,0.0,0.0,0.0,0.01048167855035139,-0.18773224046181128,9.810868574151206,0.0,0.0,0.0,0.0,0.0,0.0,0.0,0.0,0.0
2025/05/21 12:43:19.484639977,1747824199,483535470,mA1/imu,0.8429923034563102,0.5379249243877139,0.0006070390170951693,0.0006193056825026184,0.0,0.0,0.0,0.0,0.0,0.0,0.0,0.0,0.0,-0.00032007169994776284,0.0032343782280033384,-0.006205027076505248,0.0,0.0,0.0,0.0,0.0,0.0,0.0,0.0,0.0,0.011175027323757983,0.035555698684992726,9.812933616542564,0.0,0.0,0.0,0.0,0.0,0.0,0.0,0.0,0.0
2025/05/21 12:43:19.535862199,1747824199,534788429,mA1/imu,0.8429101296128397,0.5380536096607329,0.0006731213165435895,0.000611093130842157,0.0,0.0,0.0,0.0,0.0,0.0,0.0,0.0,0.0,1.2747334462954806e-05,0.0018334926946273694,-0.006042210650462164,0.0,0.0,0.0,0.0,0.0,0.0,0.0,0.0,0.0,0.010889018217115937,-0.5790448106096855,9.812203614247812,0.0,0.0,0.0,0.0,0.0,0.0,0.0,0.0,0.0
2025/05/21 12:43:19.585661377,1747824199,584545726,mA1/imu,0.8428300781753664,0.5381789619700619,0.0007011421501686052,0.000610422327105615,0.0,0.0,0.0,0.0,0.0,0.0,0.0,0.0,0.0,0.0006076005567506985,0.0003683968892777569,-0.005887363700589024,0.0,0.0,0.0,0.0,0.0,0.0,0.0,0.0,0.0,0.010888269678662575,-0.4160099422563232,9.811273608446315,0.0,0.0,0.0,0.0,0.0,0.0,0.0,0.0,0.0
2025/05/21 12:43:19.636692571,1747824199,635579264,mA1/imu,0.8427520611776264,0.5383011060080433,0.0006989206299179846,0.0006278226922121542,0.0,0.0,0.0,0.0,0.0,0.0,0.0,0.0,0.0,-0.0007468809624614353,-0.0008542617609331586,-0.00575510982299497,0.0,0.0,0.0,0.0,0.0,0.0,0.0,0.0,0.0,-0.018700824107778742,0.5984897985309545,9.811659651129558,0.0,0.0,0.0,0.0,0.0,0.0,0.0,0.0,0.0
2025/05/21 12:43:19.676412693,1747824199,675420571,mA1/imu,0.8426858123543852,0.5384047919956926,0.000704431804024323,0.0006367012942608851,0.0,0.0,0.0,0.0,0.0,0.0,0.0,0.0,0.0,-0.0003646683884435316,0.0009858920647535694,-0.0041367849428287674,0.0,0.0,0.0,0.0,0.0,0.0,0.0,0.0,0.0,-0.10828138074106405,0.2127680938628661,9.813567288374355,0.0,0.0,0.0,0.0,0.0,0.0,0.0,0.0,0.0
2025/05/21 12:43:19.728065342,1747824199,726375607,mA1/imu,0.8426448372070666,0.5384688924179024,0.0007498584800182421,0.0006065795692700445,0.0,0.0,0.0,0.0,0.0,0.0,0.0,0.0,0.0,0.0007697137378232271,0.0030096402571432395,-0.002278984242771675,0.0,0.0,0.0,0.0,0.0,0.0,0.0,0.0,0.0,-0.1025868192739093,0.09502488821710017,9.813520008440502,0.0,0.0,0.0,0.0,0.0,0.0,0.0,0.0,0.0
2025/05/21 12:43:19.778841360,1747824199,776406799,mA1/imu,0.8426288365808559,0.5384938736944874,0.0008337370835419252,0.0005446451820014556,0.0,0.0,0.0,0.0,0.0,0.0,0.0,0.0,0.0,0.0007747082863658032,0.004844488135271487,-0.00040625080114399786,0.0,0.0,0.0,0.0,0.0,0.0,0.0,0.0,0.0,-0.10357552188407329,0.013459681100346139,9.805291223265339,0.0,0.0,0.0,0.0,0.0,0.0,0.0,0.0,0.0
2025/05/21 12:43:19.828442944,1747824199,827333936,mA1/imu,0.8426375031549214,0.5384801970094737,0.0009520898232860469,0.00045741714712855153,0.0,0.0,0.0,0.0,0.0,0.0,0.0,0.0,0.0,0.0006328289745119937,0.006459198838353265,0.0013789559064296365,0.0,0.0,0.0,0.0,0.0,0.0,0.0,0.0,0.0,-0.09745674774649385,-0.2988656826501262,9.806108046924278,0.0,0.0,0.0,0.0,0.0,0.0,0.0,0.0,0.0
2025/05/21 12:43:19.878916330,1747824199,876954046,mA1/imu,0.8426708130243988,0.5384278987325516,0.0010883185700134798,0.0003380916121498057,0.0,0.0,0.0,0.0,0.0,0.0,0.0,0.0,0.0,0.0016655922843731247,0.007491473212786457,0.003229823179333756,0.0,0.0,0.0,0.0,0.0,0.0,0.0,0.0,0.0,-0.09107292602215852,-0.1066534907028666,9.80972449792754,0.0,0.0,0.0,0.0,0.0,0.0,0.0,0.0,0.0
2025/05/21 12:43:19.929563419,1747824199,927894601,mA1/imu,0.8427272645488583,0.5383392787800589,0.001237942122428557,0.00021449444358960274,0.0,0.0,0.0,0.0,0.0,0.0,0.0,0.0,0.0,0.00022587863611904234,0.007751428329628647,0.0048876920450255205,0.0,0.0,0.0,0.0,0.0,0.0,0.0,0.0,0.0,-0.0819780110395534,-0.08161354185191619,9.812320378406802,0.0,0.0,0.0,0.0,0.0,0.0,0.0,0.0,0.0
2025/05/21 12:43:19.978631508,1747824199,977756089,mA1/imu,0.8428063577708217,0.53821514233075,0.0013774713430498083,8.024756253812132e-05,0.0,0.0,0.0,0.0,0.0,0.0,0.0,0.0,0.0,0.0017911593259728952,0.007431697552908737,0.006549567471111142,0.0,0.0,0.0,0.0,0.0,0.0,0.0,0.0,0.0,-0.0840110046554754,-0.6034251507072338,9.806359846721685,0.0,0.0,0.0,0.0,0.0,0.0,0.0,0.0,0.0
2025/05/21 12:43:20.30116702,1747824200,28887936,mA1/imu,0.8429069935698176,0.5380571869609226,0.001503858437195316,-4.648215942791936e-05,0.0,0.0,0.0,0.0,0.0,0.0,0.0,0.0,0.0,0.0016279002417449561,0.0065981524137210205,0.008129614306878115,0.0,0.0,0.0,0.0,0.0,0.0,0.0,0.0,0.0,-0.07732621799022377,-0.10268670384839775,9.808975357487615,0.0,0.0,0.0,0.0,0.0,0.0,0.0,0.0,0.0
2025/05/21 12:43:20.80114669,1747824200,78672250,mA1/imu,0.84302851859518,0.5378664453605899,0.001605742153452985,-0.00015931891424893197,0.0,0.0,0.0,0.0,0.0,0.0,0.0,0.0,0.0,0.0015833915326360852,0.005311969518574287,0.009661980148961734,0.0,0.0,0.0,0.0,0.0,0.0,0.0,0.0,0.0,-0.0761477080149455,1.7423698013682362e-05,9.808753639052773,0.0,0.0,0.0,0.0,0.0,0.0,0.0,0.0,0.0
2025/05/21 12:43:20.130992960,1747824200,130025740,mA1/imu,0.843170346062011,0.5376438364244657,0.001676298014461324,-0.0002504025110098532,0.0,0.0,0.0,0.0,0.0,0.0,0.0,0.0,0.0,0.0015030924665249323,0.0036380922651892463,0.01116197792871408,0.0,0.0,0.0,0.0,0.0,0.0,0.0,0.0,0.0,-0.07263022249993506,-0.0025401440589396217,9.807676068583383,0.0,0.0,0.0,0.0,0.0,0.0,0.0,0.0,0.0
2025/05/21 12:43:20.180602674,1747824200,179486854,mA1/imu,0.8433321442159324,0.5373898696357318,0.0017098243951024412,-0.00031471508844722006,0.0,0.0,0.0,0.0,0.0,0.0,0.0,0.0,0.0,0.001371990695584638,0.0017228284411740964,0.012637049362259577,0.0,0.0,0.0,0.0,0.0,0.0,0.0,0.0,0.0,-0.07174461670171674,-0.003272781583718881,9.807956839448003,0.0,0.0,0.0,0.0,0.0,0.0,0.0,0.0,0.0
2025/05/21 12:43:20.231669465,1747824200,230741457,mA1/imu,0.8435135686225901,0.5371050520713155,0.001703234515789675,-0.00034868501093845126,0.0,0.0,0.0,0.0,0.0,0.0,0.0,0.0,0.0,0.0011867530283807294,-0.0003242061261519676,0.014088831551770318,0.0,0.0,0.0,0.0,0.0,0.0,0.0,0.0,0.0,-0.07058730512102884,-0.0037663761432476343,9.808385284090845,0.0,0.0,0.0,0.0,0.0,0.0,0.0,0.0,0.0
2025/05/21 12:43:20.282758393,1747824200,280612537,mA1/imu,0.8437143132986423,0.536789801833825,0.0016562699573284135,-0.00035064516512800547,0.0,0.0,0.0,0.0,0.0,0.0,0.0,0.0,0.0,0.0009548502510697704,-0.0023624134124259222,0.01552186288923313,0.0,0.0,0.0,0.0,0.0,0.0,0.0,0.0,0.0,-0.07028568664814604,-0.0035864027932424655,9.809031213236498,0.0,0.0,0.0,0.0,0.0,0.0,0.0,0.0,0.0
2025/05/21 12:43:20.333233071,1747824200,332121556,mA1/imu,0.8439341422679583,0.5364444000745826,0.001569730177087415,-0.0003241762449423797,0.0,0.0,0.0,0.0,0.0,0.0,0.0,0.0,0.0,0.0007925823607874262,-0.004220005042024978,0.016944866554392254,0.0,0.0,0.0,0.0,0.0,0.0,0.0,0.0,0.0,-0.07101707247162412,0.003579870483080413,9.808771207416147,0.0,0.0,0.0,0.0,0.0,0.0,0.0,0.0,0.0
2025/05/21 12:43:20.383789296,1747824200,381473291,mA1/imu,0.8441734998769729,0.5360680186931169,0.0014522717584835685,-0.0002689733040326955,0.0,0.0,0.0,0.0,0.0,0.0,0.0,0.0,0.0,-0.00020958928481271382,-0.005592395281050389,0.018472199880302274,0.0,0.0,0.0,0.0,0.0,0.0,0.0,0.0,0.0,-0.08767424178885161,0.5863133076986692,9.81512914033839,0.0,0.0,0.0,0.0,0.0,0.0,0.0,0.0,0.0
2025/05/21 12:43:20.435175085,1747824200,433156437,mA1/imu,0.8444333169103767,0.5356590446958444,0.0013137327151594167,-0.00018770622787158466,0.0,0.0,0.0,0.0,0.0,0.0,0.0,0.0,0.0,-0.0002637471442462086,-0.006823148639107606,0.01998034404393884,0.0,0.0,0.0,0.0,0.0,0.0,0.0,0.0,0.0,-0.08949806808165012,0.6074110380678425,9.816146099291695,0.0,0.0,0.0,0.0,0.0,0.0,0.0,0.0,0.0
2025/05/21 12:43:20.484308839,1747824200,483082020,mA1/imu,0.844712879088219,0.5352184588293878,0.001159794764719163,-9.003827292095897e-05,0.0,0.0,0.0,0.0,0.0,0.0,0.0,0.0,0.0,-0.00010193533140098812,-0.007675164650847655,0.02142002286814549,0.0,0.0,0.0,0.0,0.0,0.0,0.0,0.0,0.0,-0.0720697678373285,0.0029093676427203712,9.811009954321298,0.0,0.0,0.0,0.0,0.0,0.0,0.0,0.0,0.0
2025/05/21 12:43:20.535296743,1747824200,534271934,mA1/imu,0.8450099879240172,0.5347495992607112,0.0009928743477436092,2.4488581542206833e-05,0.0,0.0,0.0,0.0,0.0,0.0,0.0,0.0,0.0,-0.00045645855315949686,-0.008333083890273318,0.022716131626388116,0.0,0.0,0.0,0.0,0.0,0.0,0.0,0.0,0.0,-0.07086025795717164,-0.00037894588762202655,9.809831200140714,0.0,0.0,0.0,0.0,0.0,0.0,0.0,0.0,0.0
2025/05/21 12:43:20.585193160,1747824200,583856901,mA1/imu,0.8453240016407897,0.5342533399689835,0.0008229505903433937,0.0001540594485464591,0.0,0.0,0.0,0.0,0.0,0.0,0.0,0.0,0.0,-0.0008303738014571625,-0.008602780634844508,0.024006577414631063,0.0,0.0,0.0,0.0,0.0,0.0,0.0,0.0,0.0,-0.07159942808462802,-0.005535113450248914,9.809310201349081,0.0,0.0,0.0,0.0,0.0,0.0,0.0,0.0,0.0
2025/05/21 12:43:20.637665482,1747824200,635075954,mA1/imu,0.8456548672322693,0.5337296497539599,0.0006532795260375513,0.0002823574844550437,0.0,0.0,0.0,0.0,0.0,0.0,0.0,0.0,0.0,-0.00013934116685483506,-0.008351899450052092,0.025302646775226666,0.0,0.0,0.0,0.0,0.0,0.0,0.0,0.0,0.0,-0.0719354716818276,-0.5735516206880397,9.809498465207898,0.0,0.0,0.0,0.0,0.0,0.0,0.0,0.0,0.0
2025/05/21 12:43:20.685761450,1747824200,684868373,mA1/imu,0.8460029505637499,0.5331778149496661,0.0005016993954217105,0.0004166301063919894,0.0,0.0,0.0,0.0,0.0,0.0,0.0,0.0,0.0,-0.001705846921657068,-0.007624115331526372,0.026623186634530716,0.0,0.0,0.0,0.0,0.0,0.0,0.0,0.0,0.0,-0.08042440006449146,-0.02735493176953293,9.813090913632173,0.0,0.0,0.0,0.0,0.0,0.0,0.0,0.0,0.0
2025/05/21 12:43:20.737835486,1747824200,736764430,mA1/imu,0.8463687247825502,0.5325969962630528,0.0003691747273938729,0.0005338460018680196,0.0,0.0,0.0,0.0,0.0,0.0,0.0,0.0,0.0,-0.0027183438992887353,-0.006495929964315973,0.027975509820918232,0.0,0.0,0.0,0.0,0.0,0.0,0.0,0.0,0.0,-0.07325658962421762,0.5031729738178448,9.813825271032838,0.0,0.0,0.0,0.0,0.0,0.0,0.0,0.0,0.0
2025/05/21 12:43:20.777649932,1747824200,775624922,mA1/imu,0.84675187676555,0.5319875768011951,0.0002653790463025519,0.0006378849216155011,0.0,0.0,0.0,0.0,0.0,0.0,0.0,0.0,0.0,-0.0019082782245785866,-0.0051085542305051536,0.029331841518123944,0.0,0.0,0.0,0.0,0.0,0.0,0.0,0.0,0.0,-0.07993261860378652,0.20237872903226642,9.810479474149414,0.0,0.0,0.0,0.0,0.0,0.0,0.0,0.0,0.0
2025/05/21 12:43:20.827288074,1747824200,826780213,mA1/imu,0.8471510563979952,0.5313515937408987,0.00019420034682709602,0.0007305881144346062,0.0,0.0,0.0,0.0,0.0,0.0,0.0,0.0,0.0,-0.0011124299484851499,-0.003909146374450978,0.030483201224670287,0.0,0.0,0.0,0.0,0.0,0.0,0.0,0.0,0.0,-0.06426135299935314,-0.15172194467405242,9.810924241046221,0.0,0.0,0.0,0.0,0.0,0.0,0.0,0.0,0.0
2025/05/21 12:43:20.878230779,1747824200,876785324,mA1/imu,0.8475645767820845,0.5306916515059277,0.0001472598092667993,0.0007984489123496643,0.0,0.0,0.0,0.0,0.0,0.0,0.0,0.0,0.0,-0.0012289422911920442,-0.0024497712395955347,0.03159990376322386,0.0,0.0,0.0,0.0,0.0,0.0,0.0,0.0,0.0,-0.06576904385882308,0.12144944208043047,9.81190920367775,0.0,0.0,0.0,0.0,0.0,0.0,0.0,0.0,0.0
2025/05/21 12:43:20.928557069,1747824200,927923146,mA1/imu,0.8479920406960887,0.5300082591129115,0.0001336958406456967,0.0008522403452238382,0.0,0.0,0.0,0.0,0.0,0.0,0.0,0.0,0.0,-0.000776583713391571,-0.0011019255725219146,0.03269117441225044,0.0,0.0,0.0,0.0,0.0,0.0,0.0,0.0,0.0,-0.057802808727039176,-0.5995752442599378,9.81114222459657,0.0,0.0,0.0,0.0,0.0,0.0,0.0,0.0,0.0
2025/05/21 12:43:20.979871195,1747824200,977728800,mA1/imu,0.8484335528093997,0.5293011573960057,0.00014013191207405755,0.0008784130665459154,0.0,0.0,0.0,0.0,0.0,0.0,0.0,0.0,0.0,-0.001051675536498651,0.00013133502034162362,0.03375572634093343,0.0,0.0,0.0,0.0,0.0,0.0,0.0,0.0,0.0,-0.05639085852540099,0.009999553108202563,9.8103884829129,0.0,0.0,0.0,0.0,0.0,0.0,0.0,0.0,0.0
2025/05/21 12:43:21.30254262,1747824201,28851864,mA1/imu,0.8488896045299549,0.5285694015712616,0.00018060685516245326,0.0008913050762083873,0.0,0.0,0.0,0.0,0.0,0.0,0.0,0.0,0.0,-0.0012001241926575582,0.0014976846888412813,0.034927881067638715,0.0,0.0,0.0,0.0,0.0,0.0,0.0,0.0,0.0,-0.05343503319403845,-0.18815625356663784,9.80860599046255,0.0,0.0,0.0,0.0,0.0,0.0,0.0,0.0,0.0
2025/05/21 12:43:21.79623444,1747824201,78758067,mA1/imu,0.8493597147098285,0.5278136402605335,0.00024132867313845417,0.0008820110170385359,0.0,0.0,0.0,0.0,0.0,0.0,0.0,0.0,0.0,-0.001316941707072674,0.0026208918376100553,0.03604389158258923,0.0,0.0,0.0,0.0,0.0,0.0,0.0,0.0,0.0,-0.053098700989063934,-0.4944110568785692,9.807104947574432,0.0,0.0,0.0,0.0,0.0,0.0,0.0,0.0,0.0
2025/05/21 12:43:21.130455992,1747824201,129714917,mA1/imu,0.8498433113146575,0.5270346605426377,0.0003110006635402405,0.0008462145306684206,0.0,0.0,0.0,0.0,0.0,0.0,0.0,0.0,0.0,-0.000492137075428077,0.00343471052852049,0.0371080381544249,0.0,0.0,0.0,0.0,0.0,0.0,0.0,0.0,0.0,-0.047888355708392595,-0.006040650965632983,9.80674446258049,0.0,0.0,0.0,0.0,0.0,0.0,0.0,0.0,0.0
2025/05/21 12:43:21.181823369,1747824201,179582186,mA1/imu,0.8503392602871317,0.5262341219064636,0.0003900964237579029,0.0007994876154169926,0.0,0.0,0.0,0.0,0.0,0.0,0.0,0.0,0.0,0.0002401352796522195,0.003752141141100665,0.03803356512499912,0.0,0.0,0.0,0.0,0.0,0.0,0.0,0.0,0.0,-0.04485498172761526,0.026024903096919808,9.810582416837907,0.0,0.0,0.0,0.0,0.0,0.0,0.0,0.0,0.0
2025/05/21 12:43:21.232753212,1747824201,231341274,mA1/imu,0.850845904480863,0.5254145534194195,0.00047246215230729085,0.0007554222190120448,0.0,0.0,0.0,0.0,0.0,0.0,0.0,0.0,0.0,4.322394048445077e-05,0.0035747754578814425,0.03890296039052407,0.0,0.0,0.0,0.0,0.0,0.0,0.0,0.0,0.0,-0.03513308835101656,-0.42690738883754925,9.808935427494486,0.0,0.0,0.0,0.0,0.0,0.0,0.0,0.0,0.0
2025/05/21 12:43:21.283213018,1747824201,281311660,mA1/imu,0.8513638223187121,0.5245749355937913,0.0005385785931599805,0.0006992329663822233,0.0,0.0,0.0,0.0,0.0,0.0,0.0,0.0,0.0,0.00013175770952412585,0.0032364803992107117,0.039834530493983895,0.0,0.0,0.0,0.0,0.0,0.0,0.0,0.0,0.0,-0.03910110045020083,-0.019550944555901187,9.804486516341424,0.0,0.0,0.0,0.0,0.0,0.0,0.0,0.0,0.0
2025/05/21 12:43:21.333452289,1747824201,332263479,mA1/imu,0.8518932605231108,0.5237147230300143,0.0005908863640536405,0.0006421917185765628,0.0,0.0,0.0,0.0,0.0,0.0,0.0,0.0,0.0,0.0008447186158729146,0.0027521938488989247,0.040775950303098406,0.0,0.0,0.0,0.0,0.0,0.0,0.0,0.0,0.0,-0.04783535110546802,0.656428925710018,9.810845310080195,0.0,0.0,0.0,0.0,0.0,0.0,0.0,0.0,0.0
2025/05/21 12:43:21.383733502,1747824201,382446904,mA1/imu,0.8524341272743122,0.5228339000895564,0.000637375170625374,0.0006044237893865713,0.0,0.0,0.0,0.0,0.0,0.0,0.0,0.0,0.0,-2.1155133468588364e-05,0.00203218912797181,0.04170282370132579,0.0,0.0,0.0,0.0,0.0,0.0,0.0,0.0,0.0,-0.039012141230797076,0.47151928408149146,9.813402240193085,0.0,0.0,0.0,0.0,0.0,0.0,0.0,0.0,0.0
2025/05/21 12:43:21.434848843,1747824201,433477775,mA1/imu,0.8529854308704305,0.5219340125691682,0.0006527382410858155,0.0005614080708103394,0.0,0.0,0.0,0.0,0.0,0.0,0.0,0.0,0.0,0.0017544593719475028,0.0010018134779085773,0.042551996737914086,0.0,0.0,0.0,0.0,0.0,0.0,0.0,0.0,0.0,-0.029845590207816786,-0.42631807485806805,9.803926468122135,0.0,0.0,0.0,0.0,0.0,0.0,0.0,0.0,0.0
2025/05/21 12:43:21.484549259,1747824201,483189314,mA1/imu,0.8535462302197432,0.521016431245388,0.0006482446569325228,0.0005394708979668937,0.0,0.0,0.0,0.0,0.0,0.0,0.0,0.0,0.0,0.001327895267688669,-0.0003185486334755425,0.04332215072478814,0.0,0.0,0.0,0.0,0.0,0.0,0.0,0.0,0.0,-0.018080290099744226,0.009478113920376011,9.8102540717204,0.0,0.0,0.0,0.0,0.0,0.0,0.0,0.0,0.0
2025/05/21 12:43:21.537657203,1747824201,535578540,mA1/imu,0.8541148950882459,0.5200837380437828,0.0006091956031819643,0.0005294256489994388,0.0,0.0,0.0,0.0,0.0,0.0,0.0,0.0,0.0,0.000913860135756495,-0.0017264388241650611,0.04394068520679387,0.0,0.0,0.0,0.0,0.0,0.0,0.0,0.0,0.0,-0.020825243125342403,-0.01469498014586761,9.807838138287115,0.0,0.0,0.0,0.0,0.0,0.0,0.0,0.0,0.0
2025/05/21 12:43:21.579083931,1747824201,576827256,mA1/imu,0.8546903529420852,0.5191375700035551,0.0005411639757540048,0.0005395739884188955,0.0,0.0,0.0,0.0,0.0,0.0,0.0,0.0,0.0,0.0011201141997738934,-0.003100940206216453,0.04452710250682861,0.0,0.0,0.0,0.0,0.0,0.0,0.0,0.0,0.0,-0.020632616134301777,0.0021091604392218834,9.809169565601888,0.0,0.0,0.0,0.0,0.0,0.0,0.0,0.0,0.0
2025/05/21 12:43:21.628798385,1747824201,627925792,mA1/imu,0.8552723548185733,0.5181782326241517,0.0004462136087421218,0.0005649876266112163,0.0,0.0,0.0,0.0,0.0,0.0,0.0,0.0,0.0,0.0008438445305041629,-0.004249426987252521,0.045113069882186246,0.0,0.0,0.0,0.0,0.0,0.0,0.0,0.0,0.0,-0.021271238065741178,0.2645278133250736,9.809186385375362,0.0,0.0,0.0,0.0,0.0,0.0,0.0,0.0,0.0
2025/05/21 12:43:21.680076415,1747824201,677971729,mA1/imu,0.8558614017100623,0.5172047832875725,0.00033102934151359983,0.0006030148568443857,0.0,0.0,0.0,0.0,0.0,0.0,0.0,0.0,0.0,0.0005994613383791196,-0.004927104623395837,0.04580418009973984,0.0,0.0,0.0,0.0,0.0,0.0,0.0,0.0,0.0,-0.03587120260862674,0.045270908001664965,9.813381164714063,0.0,0.0,0.0,0.0,0.0,0.0,0.0,0.0,0.0
2025/05/21 12:43:21.730101302,1747824201,729046558,mA1/imu,0.8564580318521603,0.51621620946967,0.00020256436941307423,0.0006509411386766438,0.0,0.0,0.0,0.0,0.0,0.0,0.0,0.0,0.0,0.0024203771352526277,-0.005632652417311103,0.04645031141027512,0.0,0.0,0.0,0.0,0.0,0.0,0.0,0.0,0.0,-0.030725901025632964,-0.5220801124682765,9.81602101808378,0.0,0.0,0.0,0.0,0.0,0.0,0.0,0.0,0.0
2025/05/21 12:43:21.781077912,1747824201,778947394,mA1/imu,0.8570624004468582,0.5152121193020059,7.394996962817779e-05,0.0007130189385788103,0.0,0.0,0.0,0.0,0.0,0.0,0.0,0.0,0.0,0.00028939758122365844,-0.005915390052960262,0.04714485141350984,0.0,0.0,0.0,0.0,0.0,0.0,0.0,0.0,0.0,-0.016922431633064842,-0.27757256493355925,9.80631517508065,0.0,0.0,0.0,0.0,0.0,0.0,0.0,0.0,0.0
2025/05/21 12:43:21.833802984,1747824201,832709204,mA1/imu,0.8576737005220685,0.5141937548478023,-6.207398064945259e-05,0.0007759221097623169,0.0,0.0,0.0,0.0,0.0,0.0,0.0,0.0,0.0,0.0009214869109935301,-0.00597630956156385,0.04776105601191315,0.0,0.0,0.0,0.0,0.0,0.0,0.0,0.0,0.0,-0.0149832470361758,-0.6072949678987511,9.806957111685648,0.0,0.0,0.0,0.0,0.0,0.0,0.0,0.0,0.0
2025/05/21 12:43:21.883681662,1747824201,882661509,mA1/imu,0.8582918744009238,0.5131610977939673,-0.00019423766634986005,0.00084161747134129,0.0,0.0,0.0,0.0,0.0,0.0,0.0,0.0,0.0,0.0016539693236003843,-0.005930848567004718,0.048395532720542235,0.0,0.0,0.0,0.0,0.0,0.0,0.0,0.0,0.0,-0.01199334100377059,-0.5407556415573862,9.807026567415246,0.0,0.0,0.0,0.0,0.0,0.0,0.0,0.0,0.0
2025/05/21 12:43:21.936209873,1747824201,933749702,mA1/imu,0.8589166762778738,0.5121144520150738,-0.0003141233395570073,0.0009124558063506776,0.0,0.0,0.0,0.0,0.0,0.0,0.0,0.0,0.0,0.000225363946451761,-0.00545377021362155,0.048981438785536256,0.0,0.0,0.0,0.0,0.0,0.0,0.0,0.0,0.0,-0.021637712226013055,0.01848321970925358,9.815289008891098,0.0,0.0,0.0,0.0,0.0,0.0,0.0,0.0,0.0
2025/05/21 12:43:21.984907207,1747824201,983694984,mA1/imu,0.8595386698165282,0.5110695489655045,-0.0004408865224518784,0.000998413393038302,0.0,0.0,0.0,0.0,0.0,0.0,0.0,0.0,0.0,-0.0005558733714081172,-0.00691160152809145,0.04819466098103568,0.0,0.0,0.0,0.0,0.0,0.0,0.0,0.0,0.0,0.06305217160809277,-0.02611788441149524,9.81283927902329,0.0,0.0,0.0,0.0,0.0,0.0,0.0,0.0,0.0
2025/05/21 12:43:22.36094806,1747824202,35063156,mA1/imu,0.8601455099566033,0.510047168778349,-0.000605106988501164,0.0011050648024667146,0.0,0.0,0.0,0.0,0.0,0.0,0.0,0.0,0.0,0.00017121905735753375,-0.00842391347957466,0.047127463602976025,0.0,0.0,0.0,0.0,0.0,0.0,0.0,0.0,0.0,0.06417848534915946,-0.5873655052065877,9.810059754802468,0.0,0.0,0.0,0.0,0.0,0.0,0.0,0.0,0.0
2025/05/21 12:43:22.86092538,1747824202,84644454,mA1/imu,0.8607378273826122,0.5090464118480306,-0.0007933371473350219,0.001230330636865352,0.0,0.0,0.0,0.0,0.0,0.0,0.0,0.0,0.0,0.00010785025006553662,-0.00943884453701857,0.04610369152371862,0.0,0.0,0.0,0.0,0.0,0.0,0.0,0.0,0.0,0.0634284432661963,-0.2287994285262224,9.810443200008814,0.0,0.0,0.0,0.0,0.0,0.0,0.0,0.0,0.0
2025/05/21 12:43:22.131533034,1747824202,128785614,mA1/imu,0.8613162440805537,0.5080664064371373,-0.0009903479662183871,0.0013687746080000695,0.0,0.0,0.0,0.0,0.0,0.0,0.0,0.0,0.0,0.000159232562438124,-0.00972047885083163,0.045122086901493316,0.0,0.0,0.0,0.0,0.0,0.0,0.0,0.0,0.0,0.058549401353360446,-0.568480741358259,9.810789410282062,0.0,0.0,0.0,0.0,0.0,0.0,0.0,0.0,0.0
2025/05/21 12:43:22.180076681,1747824202,178422506,mA1/imu,0.8618812819178289,0.5071064721334884,-0.0011892146052707158,0.00150584482271235,0.0,0.0,0.0,0.0,0.0,0.0,0.0,0.0,0.0,0.0011979008765908837,-0.009577342932158851,0.04417636840127442,0.0,0.0,0.0,0.0,0.0,0.0,0.0,0.0,0.0,0.05846971949664115,-0.4901644250661266,9.811522631316992,0.0,0.0,0.0,0.0,0.0,0.0,0.0,0.0,0.0
2025/05/21 12:43:22.231235649,1747824202,229408165,mA1/imu,0.8624341131555806,0.5061648202459496,-0.0013657951231535593,0.0016461514553895214,0.0,0.0,0.0,0.0,0.0,0.0,0.0,0.0,0.0,-0.0009717848664856448,-0.008598534108343036,0.043326321107845234,0.0,0.0,0.0,0.0,0.0,0.0,0.0,0.0,0.0,0.049092327149309854,-0.002505688845459479,9.806741888359916,0.0,0.0,0.0,0.0,0.0,0.0,0.0,0.0,0.0
2025/05/21 12:43:22.281524978,1747824202,279247845,mA1/imu,0.862975210888894,0.5052408822988553,-0.001520887157479296,0.0017672428801923095,0.0,0.0,0.0,0.0,0.0,0.0,0.0,0.0,0.0,-0.0009511288277158973,-0.007270304315522022,0.04247976301098255,0.0,0.0,0.0,0.0,0.0,0.0,0.0,0.0,0.0,0.051179055179130656,-0.00262270278583108,9.811044415848786,0.0,0.0,0.0,0.0,0.0,0.0,0.0,0.0,0.0
2025/05/21 12:43:22.333414432,1747824202,332334005,mA1/imu,0.863505090193646,0.5043340004323402,-0.00164378699436039,0.00186364747004082,0.0,0.0,0.0,0.0,0.0,0.0,0.0,0.0,0.0,-0.001558790285388359,-0.005476942095892122,0.04168937397120888,0.0,0.0,0.0,0.0,0.0,0.0,0.0,0.0,0.0,0.04865064235598461,0.4573576699968131,9.810168683961535,0.0,0.0,0.0,0.0,0.0,0.0,0.0,0.0,0.0
2025/05/21 12:43:22.383393366,1747824202,382161067,mA1/imu,0.8640241824015996,0.5034436275200058,-0.0017228191773495628,0.0019385635988905339,0.0,0.0,0.0,0.0,0.0,0.0,0.0,0.0,0.0,-0.001201856762702665,-0.0034112987204806835,0.04092611177700598,0.0,0.0,0.0,0.0,0.0,0.0,0.0,0.0,0.0,0.04694894441717269,0.40108652763556996,9.810633555097095,0.0,0.0,0.0,0.0,0.0,0.0,0.0,0.0,0.0
2025/05/21 12:43:22.435499425,1747824202,434275022,mA1/imu,0.8645331216856095,0.5025688579384892,-0.001757070253845639,0.0019842487397101084,0.0,0.0,0.0,0.0,0.0,0.0,0.0,0.0,0.0,6.65947077364932e-05,-0.0012560876296054415,0.0402007825591418,0.0,0.0,0.0,0.0,0.0,0.0,0.0,0.0,0.0,0.04827644844696902,-0.35084363106162647,9.810943475620917,0.0,0.0,0.0,0.0,0.0,0.0,0.0,0.0,0.0
2025/05/21 12:43:22.484787418,1747824202,483944039,mA1/imu,0.8650324685018184,0.501708856752525,-0.0017416543126497967,0.0020045283684766145,0.0,0.0,0.0,0.0,0.0,0.0,0.0,0.0,0.0,-0.0007061142863437323,0.000964771534054334,0.03950602646527461,0.0,0.0,0.0,0.0,0.0,0.0,0.0,0.0,0.0,0.0486413259479285,-0.004547445902453279,9.806362836109829,0.0,0.0,0.0,0.0,0.0,0.0,0.0,0.0,0.0
2025/05/21 12:43:22.529899408,1747824202,528782802,mA1/imu,0.8655225361087087,0.5008631927089569,-0.0016836315836841493,0.0019917484856560074,0.0,0.0,0.0,0.0,0.0,0.0,0.0,0.0,0.0,-0.0010532630828630149,0.003038814764123553,0.038834362679068556,0.0,0.0,0.0,0.0,0.0,0.0,0.0,0.0,0.0,0.04932345467014866,-0.03544423495910272,9.806316456297843,0.0,0.0,0.0,0.0,0.0,0.0,0.0,0.0,0.0
2025/05/21 12:43:22.581197882,1747824202,579209002,mA1/imu,0.866003993562601,0.5000307594636096,-0.0015845420006806853,0.0019524217065253293,0.0,0.0,0.0,0.0,0.0,0.0,0.0,0.0,0.0,-0.0015903183264178854,0.004947911165524105,0.038231158395837773,0.0,0.0,0.0,0.0,0.0,0.0,0.0,0.0,0.0,0.04950075643247362,0.17749952627541357,9.80851374241399,0.0,0.0,0.0,0.0,0.0,0.0,0.0,0.0,0.0
2025/05/21 12:43:22.632344104,1747824202,631423382,mA1/imu,0.8664772769920178,0.4992108426906337,-0.00145393864640196,0.0018838946408309093,0.0,0.0,0.0,0.0,0.0,0.0,0.0,0.0,0.0,-0.00014451042820470058,0.006457836293648973,0.03763378882394959,0.0,0.0,0.0,0.0,0.0,0.0,0.0,0.0,0.0,0.053875949835331574,0.00395429918312995,9.809481485257624,0.0,0.0,0.0,0.0,0.0,0.0,0.0,0.0,0.0
2025/05/21 12:43:22.682226115,1747824202,681250377,mA1/imu,0.8669427753178316,0.4984027645380524,-0.0012937795693650231,0.0017985437076417628,0.0,0.0,0.0,0.0,0.0,0.0,0.0,0.0,0.0,-0.0002104070621819291,0.007666579852509622,0.03710091815841917,0.0,0.0,0.0,0.0,0.0,0.0,0.0,0.0,0.0,0.05430054882917671,0.04479091511326077,9.811597040223052,0.0,0.0,0.0,0.0,0.0,0.0,0.0,0.0,0.0
2025/05/21 12:43:22.733652714,1747824202,732293064,mA1/imu,0.8673994296166868,0.497608364716724,-0.0011200727989364068,0.0017000886797653501,0.0,0.0,0.0,0.0,0.0,0.0,0.0,0.0,0.0,0.0012844550673705118,0.007965015741817762,0.03627749595458077,0.0,0.0,0.0,0.0,0.0,0.0,0.0,0.0,0.0,0.07622259565806921,-0.5586032302143455,9.80987282868443,0.0,0.0,0.0,0.0,0.0,0.0,0.0,0.0,0.0
2025/05/21 12:43:22.783913098,1747824202,782207389,mA1/imu,0.8678430644595719,0.4968349164203681,-0.0009478304748514897,0.0016071441678406594,0.0,0.0,0.0,0.0,0.0,0.0,0.0,0.0,0.0,0.00044745493808144387,0.007600534780093525,0.03526763303025012,0.0,0.0,0.0,0.0,0.0,0.0,0.0,0.0,0.0,0.07718599937866352,-0.2957429636525299,9.80745492830096,0.0,0.0,0.0,0.0,0.0,0.0,0.0,0.0,0.0
2025/05/21 12:43:22.835897004,1747824202,834003012,mA1/imu,0.8682737460917981,0.49608242793475454,-0.0007909344080103587,0.0015168931528968044,0.0,0.0,0.0,0.0,0.0,0.0,0.0,0.0,0.0,0.0006353461521785403,0.006870470146087104,0.03430045279367946,0.0,0.0,0.0,0.0,0.0,0.0,0.0,0.0,0.0,0.07789465542359815,-0.6175832230275776,9.807988236237081,0.0,0.0,0.0,0.0,0.0,0.0,0.0,0.0,0.0
2025/05/21 12:43:22.877918866,1747824202,875545326,mA1/imu,0.8686942800596104,0.49534612308163134,-0.0006519646165930325,0.0014286643591435123,0.0,0.0,0.0,0.0,0.0,0.0,0.0,0.0,0.0,-0.001011389154097345,0.006257711738823003,0.033664935927370916,0.0,0.0,0.0,0.0,0.0,0.0,0.0,0.0,0.0,0.07105642168834317,-0.10433259820088715,9.811245416745832,0.0,0.0,0.0,0.0,0.0,0.0,0.0,0.0,0.0
2025/05/21 12:43:22.928174595,1747824202,926583122,mA1/imu,0.8691041213399844,0.4946270513510853,-0.0005417641351486454,0.0013464149458912186,0.0,0.0,0.0,0.0,0.0,0.0,0.0,0.0,0.0,-2.150637116894437e-06,0.004891157185325226,0.03275234734614231,0.0,0.0,0.0,0.0,0.0,0.0,0.0,0.0,0.0,0.0745384800559482,0.3455205764763304,9.810717477587703,0.0,0.0,0.0,0.0,0.0,0.0,0.0,0.0,0.0
2025/05/21 12:43:22.979742819,1747824202,977576305,mA1/imu,0.8695023275208761,0.4939269501557406,-0.00045986231972085624,0.0012879721559784485,0.0,0.0,0.0,0.0,0.0,0.0,0.0,0.0,0.0,0.0008487075321254783,0.0033580389263215627,0.0318743133936917,0.0,0.0,0.0,0.0,0.0,0.0,0.0,0.0,0.0,0.07270346326239581,0.010369886016929727,9.811625273413608,0.0,0.0,0.0,0.0,0.0,0.0,0.0,0.0,0.0
2025/05/21 12:43:23.30217789,1747824203,28530447,mA1/imu,0.8698893814820748,0.49324511334678495,-0.0004142643219393179,0.0012452025225494945,0.0,0.0,0.0,0.0,0.0,0.0,0.0,0.0,0.0,0.0024819728322822672,0.0017496281211278099,0.031024804154565298,0.0,0.0,0.0,0.0,0.0,0.0,0.0,0.0,0.0,0.06986397066937397,-0.5058229447647216,9.810213291443747,0.0,0.0,0.0,0.0,0.0,0.0,0.0,0.0,0.0
2025/05/21 12:43:23.79448204,1747824203,78378512,mA1/imu,0.8702657477297542,0.4925808125930703,-0.0003983194793308234,0.0012299329715929697,0.0,0.0,0.0,0.0,0.0,0.0,0.0,0.0,0.0,0.0009361993167008087,0.00018377199881213576,0.030216140325291598,0.0,0.0,0.0,0.0,0.0,0.0,0.0,0.0,0.0,0.07099529416666105,0.011560045401979389,9.809616729503537,0.0,0.0,0.0,0.0,0.0,0.0,0.0,0.0,0.0
2025/05/21 12:43:23.130652763,1747824203,129459598,mA1/imu,0.8706319225451439,0.49193329322542273,-0.000415815413670656,0.0012318925597739553,0.0,0.0,0.0,0.0,0.0,0.0,0.0,0.0,0.0,0.000569414103537698,-0.0012533127419701161,0.029445864577349212,0.0,0.0,0.0,0.0,0.0,0.0,0.0,0.0,0.0,0.06741426351319564,-0.5163781133050015,9.80945977793236,0.0,0.0,0.0,0.0,0.0,0.0,0.0,0.0,0.0
2025/05/21 12:43:23.180754442,1747824203,179422165,mA1/imu,0.870988388483831,0.49130179386378886,-0.000463681640158863,0.0012487881720177143,0.0,0.0,0.0,0.0,0.0,0.0,0.0,0.0,0.0,-0.0010826899848989653,-0.002489247201006721,0.028716983545082873,0.0,0.0,0.0,0.0,0.0,0.0,0.0,0.0,0.0,0.06308809949223763,0.5078834673739582,9.81225290802955,0.0,0.0,0.0,0.0,0.0,0.0,0.0,0.0,0.0
2025/05/21 12:43:23.233168460,1747824203,231525261,mA1/imu,0.8713355911305394,0.490685613981685,-0.0005382428039994278,0.0012752079416260566,0.0,0.0,0.0,0.0,0.0,0.0,0.0,0.0,0.0,-0.000542168732989028,-0.003496426909615687,0.02800964736042513,0.0,0.0,0.0,0.0,0.0,0.0,0.0,0.0,0.0,0.05929406362988338,0.5508060100314589,9.811241693921453,0.0,0.0,0.0,0.0,0.0,0.0,0.0,0.0,0.0
2025/05/21 12:43:23.282849889,1747824203,281139950,mA1/imu,0.8716739408208967,0.49008409294861577,-0.0006283134850409844,0.0013145168941494406,0.0,0.0,0.0,0.0,0.0,0.0,0.0,0.0,0.0,0.0004312852621462083,-0.004168804757888135,0.027336435611904953,0.0,0.0,0.0,0.0,0.0,0.0,0.0,0.0,0.0,0.05637077868361631,0.20221693318780465,9.811484339772093,0.0,0.0,0.0,0.0,0.0,0.0,0.0,0.0,0.0
2025/05/21 12:43:23.334220460,1747824203,332257976,mA1/imu,0.8720038850814933,0.48949652196041676,-0.0007287209046454607,0.0013595430409224143,0.0,0.0,0.0,0.0,0.0,0.0,0.0,0.0,0.0,0.002382553671077192,-0.004528969640502353,0.026694019107846564,0.0,0.0,0.0,0.0,0.0,0.0,0.0,0.0,0.0,0.05213482655571214,-0.4962964035081129,9.809826288278545,0.0,0.0,0.0,0.0,0.0,0.0,0.0,0.0,0.0
2025/05/21 12:43:23.383156862,1747824203,382116014,mA1/imu,0.8723258403933979,0.488922205594468,-0.0008217108394812309,0.0014247280052777811,0.0,0.0,0.0,0.0,0.0,0.0,0.0,0.0,0.0,0.0010880044945409896,-0.004564190865392837,0.02609403476574753,0.0,0.0,0.0,0.0,0.0,0.0,0.0,0.0,0.0,0.05341392861648011,-0.5874154411296754,9.809020111330092,0.0,0.0,0.0,0.0,0.0,0.0,0.0,0.0,0.0
2025/05/21 12:43:23.434863352,1747824203,433347572,mA1/imu,0.8726402593511777,0.4883604918218122,-0.0009202397829634894,0.0014700155811848362,0.0,0.0,0.0,0.0,0.0,0.0,0.0,0.0,0.0,0.0007523186941047683,-0.004184371518149039,0.025515827464789424,0.0,0.0,0.0,0.0,0.0,0.0,0.0,0.0,0.0,0.04837227103941287,-0.5910075280803406,9.807945170560082,0.0,0.0,0.0,0.0,0.0,0.0,0.0,0.0,0.0
2025/05/21 12:43:23.485101384,1747824203,484136594,mA1/imu,0.8729475402573302,0.4878106924637989,-0.0009989946014330358,0.0015239050010397543,0.0,0.0,0.0,0.0,0.0,0.0,0.0,0.0,0.0,-0.0007355456402532517,-0.0035438993666622163,0.02498519130219501,0.0,0.0,0.0,0.0,0.0,0.0,0.0,0.0,0.0,0.04585200498344261,-0.08689441150954244,9.81109344159237,0.0,0.0,0.0,0.0,0.0,0.0,0.0,0.0,0.0
2025/05/21 12:43:23.536549701,1747824203,535410826,mA1/imu,0.8732480620519364,0.4872722760146382,-0.0010698696353479,0.0015512991378908991,0.0,0.0,0.0,0.0,0.0,0.0,0.0,0.0,0.0,-0.0016722815598663133,-0.0026258711982054357,0.024455813408766142,0.0,0.0,0.0,0.0,0.0,0.0,0.0,0.0,0.0,0.04318503580950488,0.4994782087233859,9.810247544058305,0.0,0.0,0.0,0.0,0.0,0.0,0.0,0.0,0.0
2025/05/21 12:43:23.586186229,1747824203,585099972,mA1/imu,0.873542259679158,0.4867444871688252,-0.0011138759428797268,0.0015760855851698714,0.0,0.0,0.0,0.0,0.0,0.0,0.0,0.0,0.0,0.0015955842541778861,-0.00160203486494242,0.02397580724619372,0.0,0.0,0.0,0.0,0.0,0.0,0.0,0.0,0.0,0.04199254854498899,0.10371261619689087,9.810426336242378,0.0,0.0,0.0,0.0,0.0,0.0,0.0,0.0,0.0
2025/05/21 12:43:23.627250659,1747824203,626396047,mA1/imu,0.8738303077204387,0.48622708772388773,-0.0011288404623187175,0.0015931704116571377,0.0,0.0,0.0,0.0,0.0,0.0,0.0,0.0,0.0,0.0016441731593033234,-0.0004098423356482629,0.023501708976672333,0.0,0.0,0.0,0.0,0.0,0.0,0.0,0.0,0.0,0.040405472703526776,-0.518583272445435,9.808586621923581,0.0,0.0,0.0,0.0,0.0,0.0,0.0,0.0,0.0
2025/05/21 12:43:23.677157210,1747824203,675984937,mA1/imu,0.8741127181333141,0.48571921609757973,-0.0011151474234201598,0.0015986110740602985,0.0,0.0,0.0,0.0,0.0,0.0,0.0,0.0,0.0,0.00028251833104987875,0.0008289714069750802,0.02307174531256418,0.0,0.0,0.0,0.0,0.0,0.0,0.0,0.0,0.0,0.0419489213490927,0.015790583606913988,9.807806476371198,0.0,0.0,0.0,0.0,0.0,0.0,0.0,0.0,0.0
2025/05/21 12:43:23.728107975,1747824203,727174308,mA1/imu,0.8743897872128636,0.4852203818843027,-0.0010743844332200283,0.0015895659735120416,0.0,0.0,0.0,0.0,0.0,0.0,0.0,0.0,0.0,-0.00044427593512259676,0.0020456889747773174,0.022663105027815485,0.0,0.0,0.0,0.0,0.0,0.0,0.0,0.0,0.0,0.04156988504991909,-0.5014394601684975,9.807866301599026,0.0,0.0,0.0,0.0,0.0,0.0,0.0,0.0,0.0
2025/05/21 12:43:23.778682309,1747824203,777168563,mA1/imu,0.874661863636573,0.48472998746801244,-0.0010107453981256424,0.0015626716859232705,0.0,0.0,0.0,0.0,0.0,0.0,0.0,0.0,0.0,-0.001078574890649703,0.003185810243708772,0.022287070067364162,0.0,0.0,0.0,0.0,0.0,0.0,0.0,0.0,0.0,0.03818038816506868,-0.06938961477920198,9.80874805395646,0.0,0.0,0.0,0.0,0.0,0.0,0.0,0.0,0.0
2025/05/21 12:43:23.831311705,1747824203,828583813,mA1/imu,0.8749291962562662,0.484247591260658,-0.0009264434967848072,0.001521051959013677,0.0,0.0,0.0,0.0,0.0,0.0,0.0,0.0,0.0,-0.0001882666651782175,0.0041023507242127916,0.021924710179577207,0.0,0.0,0.0,0.0,0.0,0.0,0.0,0.0,0.0,0.03923113630732766,-0.010741605814618055,9.80900805169372,0.0,0.0,0.0,0.0,0.0,0.0,0.0,0.0,0.0
2025/05/21 12:43:23.878977606,1747824203,878095607,mA1/imu,0.8751808569819152,0.48379284790533694,-0.0008532953974135771,0.0014898909384809694,0.0,0.0,0.0,0.0,0.0,0.0,0.0,0.0,0.0,-0.00034050384204724294,0.002132918433641604,0.01978366054770282,0.0,0.0,0.0,0.0,0.0,0.0,0.0,0.0,0.0,0.1372410552720723,-0.02506786637710118,9.812929420303302,0.0,0.0,0.0,0.0,0.0,0.0,0.0,0.0,0.0
2025/05/21 12:43:23.930116153,1747824203,929100629,mA1/imu,0.8754178972442921,0.48336397104005446,-0.0007918593776038219,0.0014661662586123291,0.0,0.0,0.0,0.0,0.0,0.0,0.0,0.0,0.0,0.0011006276564896806,0.0028688576614618265,0.019484259076179854,0.0,0.0,0.0,0.0,0.0,0.0,0.0,0.0,0.0,0.035309029026754646,-0.5455338203930965,9.809708605081594,0.0,0.0,0.0,0.0,0.0,0.0,0.0,0.0,0.0
2025/05/21 12:43:23.980005940,1747824203,978953537,mA1/imu,0.8756513375910079,0.48294114526153126,-0.0007112966416756313,0.001441958961663106,0.0,0.0,0.0,0.0,0.0,0.0,0.0,0.0,0.0,-0.0002900770677124196,0.0034910782583634104,0.0192116397165579,0.0,0.0,0.0,0.0,0.0,0.0,0.0,0.0,0.0,0.036443781747806506,-0.24697391227126442,9.807919102529043,0.0,0.0,0.0,0.0,0.0,0.0,0.0,0.0,0.0
2025/05/21 12:43:24.31315254,1747824204,30192108,mA1/imu,0.8758813988075654,0.48252400713026194,-0.0006243480317391671,0.0014028383344124665,0.0,0.0,0.0,0.0,0.0,0.0,0.0,0.0,0.0,-0.0001032107962832328,0.0039302004497433,0.018955526041090184,0.0,0.0,0.0,0.0,0.0,0.0,0.0,0.0,0.0,0.03696918029432107,-0.6317291442335813,9.80911329666442,0.0,0.0,0.0,0.0,0.0,0.0,0.0,0.0,0.0
2025/05/21 12:43:24.81173324,1747824204,80094837,mA1/imu,0.8761083155792476,0.4821121146145961,-0.0005310220935070606,0.0013587973624347453,0.0,0.0,0.0,0.0,0.0,0.0,0.0,0.0,0.0,-0.0009611140613309714,0.0042084568862510935,0.01872226611784667,0.0,0.0,0.0,0.0,0.0,0.0,0.0,0.0,0.0,0.03414349310107228,0.013936564544350397,9.810488568857078,0.0,0.0,0.0,0.0,0.0,0.0,0.0,0.0,0.0
2025/05/21 12:43:24.132628128,1747824204,131431248,mA1/imu,0.8763322008236987,0.4817052758583497,-0.0004383026828494161,0.0013072492042774117,0.0,0.0,0.0,0.0,0.0,0.0,0.0,0.0,0.0,-0.00010109956968218982,0.0042338867110241485,0.01848979725198278,0.0,0.0,0.0,0.0,0.0,0.0,0.0,0.0,0.0,0.03494073671214209,-0.017984327459254074,9.811002821353581,0.0,0.0,0.0,0.0,0.0,0.0,0.0,0.0,0.0
2025/05/21 12:43:24.182602328,1747824204,181494484,mA1/imu,0.8765533622096381,0.48130291534909075,-0.00034556599846979755,0.0012599442789269911,0.0,0.0,0.0,0.0,0.0,0.0,0.0,0.0,0.0,-0.000273290395666242,0.004067573857191255,0.018292186343184615,0.0,0.0,0.0,0.0,0.0,0.0,0.0,0.0,0.0,0.03441027418047959,0.5924357972807515,9.813104967196864,0.0,0.0,0.0,0.0,0.0,0.0,0.0,0.0,0.0
2025/05/21 12:43:24.233838010,1747824204,232915402,mA1/imu,0.8767720410129539,0.48090461030604625,-0.00025962370508043675,0.0012151048927990396,0.0,0.0,0.0,0.0,0.0,0.0,0.0,0.0,0.0,0.0006392504299819204,0.003695418084957897,0.01810224661072513,0.0,0.0,0.0,0.0,0.0,0.0,0.0,0.0,0.0,0.03340610612433571,0.02482841769612399,9.811428153003794,0.0,0.0,0.0,0.0,0.0,0.0,0.0,0.0,0.0
2025/05/21 12:43:24.283449841,1747824204,282480100,mA1/imu,0.8769883445832466,0.48051017276895763,-0.00018288750511549122,0.0011763854996064654,0.0,0.0,0.0,0.0,0.0,0.0,0.0,0.0,0.0,0.0005468942061606448,0.0031848960434512365,0.017924814313299293,0.0,0.0,0.0,0.0,0.0,0.0,0.0,0.0,0.0,0.034409540027878785,-0.3790527341865333,9.808990940261946,0.0,0.0,0.0,0.0,0.0,0.0,0.0,0.0,0.0
2025/05/21 12:43:24.334865085,1747824204,333678254,mA1/imu,0.877202443328506,0.4801193225457044,-0.00012331699840194586,0.0011376861038472602,0.0,0.0,0.0,0.0,0.0,0.0,0.0,0.0,0.0,-5.775231215917318e-06,0.00253904115341523,0.017762010909281714,0.0,0.0,0.0,0.0,0.0,0.0,0.0,0.0,0.0,0.034421478209021625,-0.03470261215089126,9.80968008128322,0.0,0.0,0.0,0.0,0.0,0.0,0.0,0.0,0.0
2025/05/21 12:43:24.377197002,1747824204,376006520,mA1/imu,0.8774144613454109,0.4797318363200932,-8.097552579527288e-05,0.0011052989903255694,0.0,0.0,0.0,0.0,0.0,0.0,0.0,0.0,0.0,0.00039652118262513793,0.0017955785346889456,0.017611566235819557,0.0,0.0,0.0,0.0,0.0,0.0,0.0,0.0,0.0,0.03195829441421166,-0.012431522709477352,9.811388780966388,0.0,0.0,0.0,0.0,0.0,0.0,0.0,0.0,0.0
2025/05/21 12:43:24.428374506,1747824204,427657828,mA1/imu,0.8776244158580709,0.4793476849845049,-5.428985069779992e-05,0.0010856529775330084,0.0,0.0,0.0,0.0,0.0,0.0,0.0,0.0,0.0,5.509636450624795e-06,0.0009760383552517272,0.0174576581506196,0.0,0.0,0.0,0.0,0.0,0.0,0.0,0.0,0.0,0.031114661167193573,-0.04495006527589877,9.811204949555142,0.0,0.0,0.0,0.0,0.0,0.0,0.0,0.0,0.0
2025/05/21 12:43:24.478946301,1747824204,477514322,mA1/imu,0.8778324683163732,0.4789665996821466,-4.7311313728105094e-05,0.0010731822517387254,0.0,0.0,0.0,0.0,0.0,0.0,0.0,0.0,0.0,0.0006009473118805646,0.0001378855608266423,0.01731172532150761,0.0,0.0,0.0,0.0,0.0,0.0,0.0,0.0,0.0,0.030618208212737613,-0.006622773124916735,9.812052918575707,0.0,0.0,0.0,0.0,0.0,0.0,0.0,0.0,0.0
2025/05/21 12:43:24.529873214,1747824204,528906706,mA1/imu,0.8780386974307379,0.4785884532735158,-6.0410798166982593e-05,0.0010651562948710332,0.0,0.0,0.0,0.0,0.0,0.0,0.0,0.0,0.0,0.00034858759362215493,-0.0006190397433866885,0.01716931295717642,0.0,0.0,0.0,0.0,0.0,0.0,0.0,0.0,0.0,0.030316204074506588,0.44525688655069146,9.811973102000465,0.0,0.0,0.0,0.0,0.0,0.0,0.0,0.0,0.0
2025/05/21 12:43:24.579989514,1747824204,579017247,mA1/imu,0.8782429631862931,0.4782134925281272,-8.696647693939944e-05,0.0010703338927780187,0.0,0.0,0.0,0.0,0.0,0.0,0.0,0.0,0.0,0.0018147674817520078,-0.0013247759336748217,0.017023321314596933,0.0,0.0,0.0,0.0,0.0,0.0,0.0,0.0,0.0,0.02864607924609363,-0.4793252629950567,9.808587643339093,0.0,0.0,0.0,0.0,0.0,0.0,0.0,0.0,0.0
2025/05/21 12:43:24.631576938,1747824204,630166727,mA1/imu,0.8784453009974403,0.477841670425326,-0.00012639342131928505,0.00108405966341545,0.0,0.0,0.0,0.0,0.0,0.0,0.0,0.0,0.0,-8.523564570731009e-06,-0.0018814912656732264,0.01687800246037899,0.0,0.0,0.0,0.0,0.0,0.0,0.0,0.0,0.0,0.02722971412559153,0.16301238031079407,9.8101599629566,0.0,0.0,0.0,0.0,0.0,0.0,0.0,0.0,0.0
2025/05/21 12:43:24.682604575,1747824204,680347641,mA1/imu,0.8786458753085542,0.4774727094015221,-0.00017964973526190912,0.001097864293526457,0.0,0.0,0.0,0.0,0.0,0.0,0.0,0.0,0.0,7.695263914979095e-05,-0.0023060451457154077,0.01673848513231015,0.0,0.0,0.0,0.0,0.0,0.0,0.0,0.0,0.0,0.027464401509467648,0.2904131072929798,9.810295865881983,0.0,0.0,0.0,0.0,0.0,0.0,0.0,0.0,0.0
2025/05/21 12:43:24.736238761,1747824204,731338043,mA1/imu,0.8788447083361606,0.4771065629280843,-0.00023953887012431366,0.001117524768492341,0.0,0.0,0.0,0.0,0.0,0.0,0.0,0.0,0.0,0.0019162134904032956,-0.002598113632909049,0.01661208817606528,0.0,0.0,0.0,0.0,0.0,0.0,0.0,0.0,0.0,0.0255120826883194,-0.5436843201626848,9.807553831493355,0.0,0.0,0.0,0.0,0.0,0.0,0.0,0.0,0.0
2025/05/21 12:43:24.786919724,1747824204,784723523,mA1/imu,0.8790417874082483,0.47674325753102476,-0.0003000709846083787,0.0011455768081120898,0.0,0.0,0.0,0.0,0.0,0.0,0.0,0.0,0.0,0.0009297035835277995,-0.0027134228108412857,0.016481593872701622,0.0,0.0,0.0,0.0,0.0,0.0,0.0,0.0,0.0,0.02483340474108441,-0.3684538598334055,9.809859427958145,0.0,0.0,0.0,0.0,0.0,0.0,0.0,0.0,0.0
2025/05/21 12:43:24.837030662,1747824204,835709338,mA1/imu,0.8792371793749431,0.4763827038968666,-0.00036205660625712835,0.001170789356864222,0.0,0.0,0.0,0.0,0.0,0.0,0.0,0.0,0.0,0.0011319712349775145,-0.002631719252020002,0.01634778309077039,0.0,0.0,0.0,0.0,0.0,0.0,0.0,0.0,0.0,0.023820690394354836,-0.33223069417865003,9.807997021720114,0.0,0.0,0.0,0.0,0.0,0.0,0.0,0.0,0.0
2025/05/21 12:43:24.879288342,1747824204,877634662,mA1/imu,0.8794308467953612,0.47602496538806566,-0.00041634423297057157,0.001201952396942306,0.0,0.0,0.0,0.0,0.0,0.0,0.0,0.0,0.0,-4.7001638206155905e-05,-0.002414747897337337,0.016214752051117245,0.0,0.0,0.0,0.0,0.0,0.0,0.0,0.0,0.0,0.023873445093986423,-0.03269938836078974,9.808596111622329,0.0,0.0,0.0,0.0,0.0,0.0,0.0,0.0,0.0
2025/05/21 12:43:24.932604220,1747824204,929706843,mA1/imu,0.879622676375449,0.47567028371259257,-0.00046339925490011,0.0012303089061002572,0.0,0.0,0.0,0.0,0.0,0.0,0.0,0.0,0.0,-0.0009610868311242889,-0.0020513966449275675,0.016067939030371372,0.0,0.0,0.0,0.0,0.0,0.0,0.0,0.0,0.0,0.02372459778524705,0.1908665805753516,9.80864081404745,0.0,0.0,0.0,0.0,0.0,0.0,0.0,0.0,0.0
2025/05/21 12:43:24.980831340,1747824204,979544826,mA1/imu,0.8798151914775966,0.47531404066274124,-0.0005011808941428439,0.0012411332762293837,0.0,0.0,0.0,0.0,0.0,0.0,0.0,0.0,0.0,-0.0002501007167004816,-0.0010499309619379593,0.016362646995906335,0.0,0.0,0.0,0.0,0.0,0.0,0.0,0.0,0.0,-0.001358594945333566,0.5975937367842743,9.812828242747685,0.0,0.0,0.0,0.0,0.0,0.0,0.0,0.0,0.0
2025/05/21 12:43:25.35210527,1747824205,31748829,mA1/imu,0.8800123430388881,0.4749488977861692,-0.0005093226493790655,0.001249472427898216,0.0,0.0,0.0,0.0,0.0,0.0,0.0,0.0,0.0,0.000525641424930996,-5.927813280515166e-05,0.016762052899601906,0.0,0.0,0.0,0.0,0.0,0.0,0.0,0.0,0.0,0.0033999880444345633,0.027288219147537176,9.80945471221635,0.0,0.0,0.0,0.0,0.0,0.0,0.0,0.0,0.0
2025/05/21 12:43:25.83703841,1747824205,81548236,mA1/imu,0.880214089222833,0.4745749246828715,-0.0004936316174509717,0.0012467251868679976,0.0,0.0,0.0,0.0,0.0,0.0,0.0,0.0,0.0,0.0009025694014923128,0.0009828008071147013,0.017161124608312248,0.0,0.0,0.0,0.0,0.0,0.0,0.0,0.0,0.0,0.0044548022212597335,-0.5777679793178044,9.804703490319616,0.0,0.0,0.0,0.0,0.0,0.0,0.0,0.0,0.0
2025/05/21 12:43:25.134274277,1747824205,132862094,mA1/imu,0.8804205108861667,0.4741919482144208,-0.0004590022955158064,0.001228648219009867,0.0,0.0,0.0,0.0,0.0,0.0,0.0,0.0,0.0,0.0010146404744133522,0.0018565134333196232,0.017565074284654075,0.0,0.0,0.0,0.0,0.0,0.0,0.0,0.0,0.0,0.006762809629926699,-0.5688182647185193,9.80522135300728,0.0,0.0,0.0,0.0,0.0,0.0,0.0,0.0,0.0
2025/05/21 12:43:25.183849062,1747824205,182726190,mA1/imu,0.8806315431052566,0.47380000412536866,-0.0003991352635093238,0.001217402931159206,0.0,0.0,0.0,0.0,0.0,0.0,0.0,0.0,0.0,-0.0019363266663698006,0.0025261542181553723,0.01796370604817822,0.0,0.0,0.0,0.0,0.0,0.0,0.0,0.0,0.0,0.014759545941073756,-0.14509856226824752,9.812907099377767,0.0,0.0,0.0,0.0,0.0,0.0,0.0,0.0,0.0
2025/05/21 12:43:25.234800653,1747824205,233632628,mA1/imu,0.8808472592113529,0.4733990042724673,-0.00034520671268702233,0.0011702674948782506,0.0,0.0,0.0,0.0,0.0,0.0,0.0,0.0,0.0,-0.0009433109838345497,0.0030069052892413494,0.018378341995745583,0.0,0.0,0.0,0.0,0.0,0.0,0.0,0.0,0.0,0.013474206117234922,0.5562015402043912,9.809705510269373,0.0,0.0,0.0,0.0,0.0,0.0,0.0,0.0,0.0
2025/05/21 12:43:25.284608651,1747824205,283527780,mA1/imu,0.8810675495462603,0.47298900218833506,-0.00027201438696607756,0.001141469931489012,0.0,0.0,0.0,0.0,0.0,0.0,0.0,0.0,0.0,-0.000797833010927928,0.0032000196569537207,0.018784491770178963,0.0,0.0,0.0,0.0,0.0,0.0,0.0,0.0,0.0,0.012989895239857819,0.5711691145774382,9.810894202996364,0.0,0.0,0.0,0.0,0.0,0.0,0.0,0.0,0.0
2025/05/21 12:43:25.336116527,1747824205,335060875,mA1/imu,0.8812921996246088,0.47257041581624876,-0.00020143582166742456,0.0011047170161879525,0.0,0.0,0.0,0.0,0.0,0.0,0.0,0.0,0.0,0.0003011001916612253,0.003156365704015187,0.01915323148605295,0.0,0.0,0.0,0.0,0.0,0.0,0.0,0.0,0.0,0.016446543892301366,0.01639305571558221,9.811190463360209,0.0,0.0,0.0,0.0,0.0,0.0,0.0,0.0,0.0
2025/05/21 12:43:25.385556575,1747824205,384468529,mA1/imu,0.881520093205111,0.47214525427053344,-0.00013183995942516412,0.0010801683621770558,0.0,0.0,0.0,0.0,0.0,0.0,0.0,0.0,0.0,0.0005244342513088004,0.0025517397086518034,0.019279332190114733,0.0,0.0,0.0,0.0,0.0,0.0,0.0,0.0,0.0,0.04180651041671057,-0.00832890831329906,9.809839641949877,0.0,0.0,0.0,0.0,0.0,0.0,0.0,0.0,0.0
2025/05/21 12:43:25.428792990,1747824205,426077883,mA1/imu,0.8817461663464256,0.47172296353458326,-8.324989180173394e-05,0.001066244337619268,0.0,0.0,0.0,0.0,0.0,0.0,0.0,0.0,0.0,-0.0005698460385713817,0.001535327197954803,0.019079676983853863,0.0,0.0,0.0,0.0,0.0,0.0,0.0,0.0,0.0,0.04095237646691096,-0.045297625999128635,9.809748973771294,0.0,0.0,0.0,0.0,0.0,0.0,0.0,0.0,0.0
2025/05/21 12:43:25.478952268,1747824205,475858432,mA1/imu,0.8819696382332126,0.47130501724863727,-5.803450026804438e-05,0.0010651680779980642,0.0,0.0,0.0,0.0,0.0,0.0,0.0,0.0,0.0,-0.0011606522860273182,0.00047770986447632406,0.01888104247097021,0.0,0.0,0.0,0.0,0.0,0.0,0.0,0.0,0.0,0.03843178882712173,-0.07977208407733521,9.811226301596664,0.0,0.0,0.0,0.0,0.0,0.0,0.0,0.0,0.0
2025/05/21 12:43:25.527556578,1747824205,526888562,mA1/imu,0.8821905082108089,0.47089144925949367,-5.945110275888487e-05,0.001070842012103355,0.0,0.0,0.0,0.0,0.0,0.0,0.0,0.0,0.0,-0.00014691444143512277,-0.0005752424356014687,0.01867556142542591,0.0,0.0,0.0,0.0,0.0,0.0,0.0,0.0,0.0,0.037319353595835464,-0.007357272252718913,9.810989264467969,0.0,0.0,0.0,0.0,0.0,0.0,0.0,0.0,0.0
2025/05/21 12:43:25.578470486,1747824205,576737066,mA1/imu,0.8824087713918346,0.47048226285932726,-8.061347222836421e-05,0.0010927062679528233,0.0,0.0,0.0,0.0,0.0,0.0,0.0,0.0,0.0,-0.00027748259987820664,-0.0015475883368965802,0.018466904963124503,0.0,0.0,0.0,0.0,0.0,0.0,0.0,0.0,0.0,0.03742321067596798,0.6130633725837958,9.812854307022185,0.0,0.0,0.0,0.0,0.0,0.0,0.0,0.0,0.0
2025/05/21 12:43:25.629103786,1747824205,627885612,mA1/imu,0.8826244304608379,0.4700774611554115,-0.00011741771720603358,0.0011320249306540852,0.0,0.0,0.0,0.0,0.0,0.0,0.0,0.0,0.0,-9.441037970346175e-05,-0.0023802393174167076,0.01826087512482298,0.0,0.0,0.0,0.0,0.0,0.0,0.0,0.0,0.0,0.03503136323096784,-0.0008989835622400348,9.811346376331548,0.0,0.0,0.0,0.0,0.0,0.0,0.0,0.0,0.0
2025/05/21 12:43:25.679623690,1747824205,677829809,mA1/imu,0.8828375189213774,0.46967701651239285,-0.0001713776893859085,0.0011772741616612574,0.0,0.0,0.0,0.0,0.0,0.0,0.0,0.0,0.0,0.0004996513006866673,-0.0030446174952405668,0.018058016446204733,0.0,0.0,0.0,0.0,0.0,0.0,0.0,0.0,0.0,0.036307414145376006,-0.35275007065729114,9.809669844390033,0.0,0.0,0.0,0.0,0.0,0.0,0.0,0.0,0.0
2025/05/21 12:43:25.733785526,1747824205,732074399,mA1/imu,0.8830480559633427,0.4692809193759421,-0.00024069240917476572,0.0012213255896365604,0.0,0.0,0.0,0.0,0.0,0.0,0.0,0.0,0.0,0.0015704253863228497,-0.0034378634100047686,0.017863294090240855,0.0,0.0,0.0,0.0,0.0,0.0,0.0,0.0,0.0,0.03141472188791845,-0.490107030111437,9.80926905582973,0.0,0.0,0.0,0.0,0.0,0.0,0.0,0.0,0.0
2025/05/21 12:43:25.783490290,1747824205,782307718,mA1/imu,0.8832561729001129,0.4688889060826451,-0.00031136540702485227,0.0012766511071935361,0.0,0.0,0.0,0.0,0.0,0.0,0.0,0.0,0.0,0.00011525586741084924,-0.0036155409965009087,0.01767750240665663,0.0,0.0,0.0,0.0,0.0,0.0,0.0,0.0,0.0,0.032059586432586676,-0.0015086693394859435,9.811552526432177,0.0,0.0,0.0,0.0,0.0,0.0,0.0,0.0,0.0
2025/05/21 12:43:25.835705080,1747824205,833617624,mA1/imu,0.8834619155102194,0.4685009354135625,-0.0003837323421557711,0.0013304544789853197,0.0,0.0,0.0,0.0,0.0,0.0,0.0,0.0,0.0,-0.0014310996381112354,-0.003539670168950978,0.017481911324032335,0.0,0.0,0.0,0.0,0.0,0.0,0.0,0.0,0.0,0.031694789926623695,0.5178503605582545,9.810224999249382,0.0,0.0,0.0,0.0,0.0,0.0,0.0,0.0,0.0
2025/05/21 12:43:25.884500636,1747824205,883463155,mA1/imu,0.8836629850095863,0.4681213797687729,-0.00046103421969629293,0.00137483627249739,0.0,0.0,0.0,0.0,0.0,0.0,0.0,0.0,0.0,0.0003795908098518405,-0.003639134344109944,0.016922454936962015,0.0,0.0,0.0,0.0,0.0,0.0,0.0,0.0,0.0,0.04412144693173102,-0.6293733104539688,9.808322557718435,0.0,0.0,0.0,0.0,0.0,0.0,0.0,0.0,0.0
2025/05/21 12:43:25.935708429,1747824205,934504205,mA1/imu,0.8838563527400055,0.467755970859916,-0.0005399565308831104,0.0014170014033178617,0.0,0.0,0.0,0.0,0.0,0.0,0.0,0.0,0.0,0.00043695366504725963,-0.003535677856322596,0.016273872769016724,0.0,0.0,0.0,0.0,0.0,0.0,0.0,0.0,0.0,0.03938248985473425,0.0023655808403690373,9.8082063443087,0.0,0.0,0.0,0.0,0.0,0.0,0.0,0.0,0.0
2025/05/21 12:43:25.986337080,1747824205,984289287,mA1/imu,0.8840419045592803,0.46740495700034107,-0.000609031317000174,0.0014650036056425247,0.0,0.0,0.0,0.0,0.0,0.0,0.0,0.0,0.0,-0.0009815818944850288,-0.003175893209938056,0.015619820717327648,0.0,0.0,0.0,0.0,0.0,0.0,0.0,0.0,0.0,0.037498379395746795,0.4977452913890771,9.808633061903114,0.0,0.0,0.0,0.0,0.0,0.0,0.0,0.0,0.0
2025/05/21 12:43:26.37854143,1747824206,35560176,mA1/imu,0.884219758210297,0.46706820763936474,-0.000669037079307509,0.0015036596894903605,0.0,0.0,0.0,0.0,0.0,0.0,0.0,0.0,0.0,-0.0007766158713402578,-0.0025951673685886876,0.014977155399563503,0.0,0.0,0.0,0.0,0.0,0.0,0.0,0.0,0.0,0.0382169354127454,-0.0924639085562365,9.81042534373095,0.0,0.0,0.0,0.0,0.0,0.0,0.0,0.0,0.0
2025/05/21 12:43:26.86201387,1747824206,85171266,mA1/imu,0.884390144338984,0.4667453535644521,-0.0007160401083945705,0.0015280080592520642,0.0,0.0,0.0,0.0,0.0,0.0,0.0,0.0,0.0,0.0007537855301519833,-0.0018309413282918364,0.014345940531646359,0.0,0.0,0.0,0.0,0.0,0.0,0.0,0.0,0.0,0.03710869876239071,-0.6195573200134247,9.809187245449733,0.0,0.0,0.0,0.0,0.0,0.0,0.0,0.0,0.0
2025/05/21 12:43:26.127938907,1747824206,126024306,mA1/imu,0.8845532179456286,0.46643614183472765,-0.0007430420668660472,0.0015421092224734288,0.0,0.0,0.0,0.0,0.0,0.0,0.0,0.0,0.0,-0.00013466893397044225,-0.0008801279486081693,0.013731303751117738,0.0,0.0,0.0,0.0,0.0,0.0,0.0,0.0,0.0,0.0370193704546872,-0.05429106774188245,9.805931725662164,0.0,0.0,0.0,0.0,0.0,0.0,0.0,0.0,0.0
2025/05/21 12:43:26.179087381,1747824206,176017342,mA1/imu,0.8847089696292911,0.46614062701467146,-0.0007486750171073529,0.0015473815190822256,0.0,0.0,0.0,0.0,0.0,0.0,0.0,0.0,0.0,-0.00038441344846782804,0.00011153882902785513,0.013122484558348317,0.0,0.0,0.0,0.0,0.0,0.0,0.0,0.0,0.0,0.030865948244763096,-0.18024822130603757,9.806616376949162,0.0,0.0,0.0,0.0,0.0,0.0,0.0,0.0,0.0
2025/05/21 12:43:26.229092652,1747824206,226943362,mA1/imu,0.8848577908748003,0.4658581340046178,-0.0007347133606002948,0.0015326794124421008,0.0,0.0,0.0,0.0,0.0,0.0,0.0,0.0,0.0,0.0002611984509160967,0.0011492045933964522,0.012524738457915744,0.0,0.0,0.0,0.0,0.0,0.0,0.0,0.0,0.0,0.037476303435580983,-0.6752170081127111,9.808089114997122,0.0,0.0,0.0,0.0,0.0,0.0,0.0,0.0,0.0
2025/05/21 12:43:26.277797647,1747824206,276707606,mA1/imu,0.8849994408338238,0.4655891338462935,-0.000701325062984706,0.0015021022713574274,0.0,0.0,0.0,0.0,0.0,0.0,0.0,0.0,0.0,-6.0684664622419264e-05,0.002146232593304408,0.011927032149773966,0.0,0.0,0.0,0.0,0.0,0.0,0.0,0.0,0.0,0.030757719387567394,-0.0694726783828459,9.81129332592067,0.0,0.0,0.0,0.0,0.0,0.0,0.0,0.0,0.0
2025/05/21 12:43:26.329965719,1747824206,327734066,mA1/imu,0.8851341867610147,0.46533312447126246,-0.0006484191851098716,0.001460907009488627,0.0,0.0,0.0,0.0,0.0,0.0,0.0,0.0,0.0,-0.0003474408130534501,0.003003554455678462,0.01134918279891605,0.0,0.0,0.0,0.0,0.0,0.0,0.0,0.0,0.0,0.026252046948442923,0.5428413654897194,9.808254903493667,0.0,0.0,0.0,0.0,0.0,0.0,0.0,0.0,0.0
2025/05/21 12:43:26.379818608,1747824206,377681261,mA1/imu,0.8852622627404373,0.4650896641704189,-0.0005739992317383758,0.001414558026332929,0.0,0.0,0.0,0.0,0.0,0.0,0.0,0.0,0.0,-0.001014217531640541,0.00383490032429052,0.01077430710446641,0.0,0.0,0.0,0.0,0.0,0.0,0.0,0.0,0.0,0.02544035135283978,0.4941946768407677,9.81019389659692,0.0,0.0,0.0,0.0,0.0,0.0,0.0,0.0,0.0
2025/05/21 12:43:26.430682686,1747824206,428932428,mA1/imu,0.8853835290990724,0.4648590531103326,-0.0004902282343954795,0.0013515982077716457,0.0,0.0,0.0,0.0,0.0,0.0,0.0,0.0,0.0,0.0013348157976426234,0.004360187989597104,0.010204984539021245,0.0,0.0,0.0,0.0,0.0,0.0,0.0,0.0,0.0,0.02940872330835215,-0.614912176184346,9.810713627615812,0.0,0.0,0.0,0.0,0.0,0.0,0.0,0.0,0.0
2025/05/21 12:43:26.480093476,1747824206,478521417,mA1/imu,0.8854985216723978,0.4646402558820822,-0.00039552087240448297,0.0012822999144568538,0.0,0.0,0.0,0.0,0.0,0.0,0.0,0.0,0.0,0.0013312539627683107,0.0047691891516149125,0.009680442529810592,0.0,0.0,0.0,0.0,0.0,0.0,0.0,0.0,0.0,0.02829994402262692,0.009639888596373138,9.811975039645267,0.0,0.0,0.0,0.0,0.0,0.0,0.0,0.0,0.0
2025/05/21 12:43:26.531797794,1747824206,529725013,mA1/imu,0.8856074827028554,0.46443280184121344,-0.0002916439548754424,0.0012141245551396363,0.0,0.0,0.0,0.0,0.0,0.0,0.0,0.0,0.0,-0.00017121451295349098,0.005000739770246934,0.009173439585916841,0.0,0.0,0.0,0.0,0.0,0.0,0.0,0.0,0.0,0.024503196746699422,0.5408079958531132,9.809650035278572,0.0,0.0,0.0,0.0,0.0,0.0,0.0,0.0,0.0
2025/05/21 12:43:26.580285594,1747824206,579447508,mA1/imu,0.8857105639182616,0.4642364220981334,-0.00018696933361722162,0.0011429801341648726,0.0,0.0,0.0,0.0,0.0,0.0,0.0,0.0,0.0,2.1164541171201238e-05,0.00502111611629366,0.008680390646446379,0.0,0.0,0.0,0.0,0.0,0.0,0.0,0.0,0.0,0.02231699418349636,-0.0748610718422466,9.808864898529277,0.0,0.0,0.0,0.0,0.0,0.0,0.0,0.0,0.0
2025/05/21 12:43:26.633182510,1747824206,632072028,mA1/imu,0.8858078684455799,0.464050940807997,-8.986166133113428e-05,0.0010660487759665625,0.0,0.0,0.0,0.0,0.0,0.0,0.0,0.0,0.0,0.0016273030786811572,0.004740988171859139,0.008186085075877696,0.0,0.0,0.0,0.0,0.0,0.0,0.0,0.0,0.0,0.026484121295475182,-0.6010381523986367,9.811706045315823,0.0,0.0,0.0,0.0,0.0,0.0,0.0,0.0,0.0
2025/05/21 12:43:26.682792396,1747824206,681630038,mA1/imu,0.8859022279194194,0.4638709469553064,6.310387165333632e-06,0.0009935282457449856,0.0,0.0,0.0,0.0,0.0,0.0,0.0,0.0,0.0,0.0014443700139175758,0.004819257817390071,0.008182759753301202,0.0,0.0,0.0,0.0,0.0,0.0,0.0,0.0,0.0,0.0017331211649574112,0.024454311677639437,9.812000495913988,0.0,0.0,0.0,0.0,0.0,0.0,0.0,0.0,0.0
2025/05/21 12:43:26.735048615,1747824206,732799877,mA1/imu,0.8859979040135741,0.4636883197068808,0.0001036807337644139,0.0009195114293998265,0.0,0.0,0.0,0.0,0.0,0.0,0.0,0.0,0.0,0.0010103944941252483,0.004774576221330987,0.008298900970424348,0.0,0.0,0.0,0.0,0.0,0.0,0.0,0.0,0.0,0.003066286612110613,-0.0063451624271378855,9.810615367030966,0.0,0.0,0.0,0.0,0.0,0.0,0.0,0.0,0.0
2025/05/21 12:43:26.783630328,1747824206,782421463,mA1/imu,0.8860949569112273,0.46350293895106726,0.0001952963776911051,0.0008454463543773323,0.0,0.0,0.0,0.0,0.0,0.0,0.0,0.0,0.0,0.001956566311754897,0.004464839915847737,0.008426433566639932,0.0,0.0,0.0,0.0,0.0,0.0,0.0,0.0,0.0,0.002678638791179533,-0.5733689001559136,9.810569675342627,0.0,0.0,0.0,0.0,0.0,0.0,0.0,0.0,0.0
2025/05/21 12:43:26.834650818,1747824206,833461327,mA1/imu,0.8861934216472408,0.46331472658544476,0.00027762021365317037,0.0007787716143853817,0.0,0.0,0.0,0.0,0.0,0.0,0.0,0.0,0.0,0.0023176255548084186,0.003877619855638198,0.00854565551508663,0.0,0.0,0.0,0.0,0.0,0.0,0.0,0.0,0.0,0.007195501557858154,-0.5476466718529328,9.809659057272828,0.0,0.0,0.0,0.0,0.0,0.0,0.0,0.0,0.0
2025/05/21 12:43:26.884319444,1747824206,883172783,mA1/imu,0.8862952002491246,0.4631200520094782,0.0003476623105974178,0.0007173374520490971,0.0,0.0,0.0,0.0,0.0,0.0,0.0,0.0,0.0,0.0006825963719986298,0.0034410651777752547,0.009000568517537944,0.0,0.0,0.0,0.0,0.0,0.0,0.0,0.0,0.0,-0.005900820640718057,-0.025968189114867854,9.811980122713887,0.0,0.0,0.0,0.0,0.0,0.0,0.0,0.0,0.0
2025/05/21 12:43:26.936712735,1747824206,934671115,mA1/imu,0.8864029883102615,0.4629137500521413,0.00040600006971313365,0.0006614312097645033,0.0,0.0,0.0,0.0,0.0,0.0,0.0,0.0,0.0,-0.0009695803558853004,0.002852374566372007,0.009531155371710637,0.0,0.0,0.0,0.0,0.0,0.0,0.0,0.0,0.0,-0.0031438848053165535,0.48497346918846607,9.812008130421868,0.0,0.0,0.0,0.0,0.0,0.0,0.0,0.0,0.0
2025/05/21 12:43:26.986030873,1747824206,983971195,mA1/imu,0.8865167733219231,0.462695845438305,0.0004440362715901695,0.0006066834493244901,0.0,0.0,0.0,0.0,0.0,0.0,0.0,0.0,0.0,0.0005235494191451538,0.0020560369912225114,0.010053538142910061,0.0,0.0,0.0,0.0,0.0,0.0,0.0,0.0,0.0,-0.006910496472540877,-0.02917099407796945,9.80733690748979,0.0,0.0,0.0,0.0,0.0,0.0,0.0,0.0,0.0
2025/05/21 12:43:27.36189736,1747824207,35105879,mA1/imu,0.8866364366242955,0.46246653868804394,0.00046173572126018613,0.0005627114672954167,0.0,0.0,0.0,0.0,0.0,0.0,0.0,0.0,0.0,0.0017970697878583193,0.0010601028780356525,0.010556985326487581,0.0,0.0,0.0,0.0,0.0,0.0,0.0,0.0,0.0,-0.0074427759463980584,0.1896083770756641,9.808416333721329,0.0,0.0,0.0,0.0,0.0,0.0,0.0,0.0,0.0
2025/05/21 12:43:27.86853606,1747824207,84869091,mA1/imu,0.8867621380598391,0.4622254918330247,0.0004625182825395374,0.0005397037145318767,0.0,0.0,0.0,0.0,0.0,0.0,0.0,0.0,0.0,0.002511194383875928,-1.5112527361639031e-05,0.01106740784248113,0.0,0.0,0.0,0.0,0.0,0.0,0.0,0.0,0.0,-0.0009473872623256448,-0.19516569454971766,9.81057497259248,0.0,0.0,0.0,0.0,0.0,0.0,0.0,0.0,0.0
2025/05/21 12:43:27.138941012,1747824207,136308915,mA1/imu,0.8868940156603069,0.46197242623599394,0.00044402754887392433,0.0005340628242168502,0.0,0.0,0.0,0.0,0.0,0.0,0.0,0.0,0.0,0.002207829965777866,-0.0009925430099619807,0.011627789844950841,0.0,0.0,0.0,0.0,0.0,0.0,0.0,0.0,0.0,-0.0057686076017553385,-0.43067679097205597,9.810940315089047,0.0,0.0,0.0,0.0,0.0,0.0,0.0,0.0,0.0
2025/05/21 12:43:27.177791356,1747824207,175516386,mA1/imu,0.8870321073618831,0.46170723481585507,0.0004090789424764947,0.0005499838654458208,0.0,0.0,0.0,0.0,0.0,0.0,0.0,0.0,0.0,0.0005793458065213253,-0.001992082387248721,0.012183734510147658,0.0,0.0,0.0,0.0,0.0,0.0,0.0,0.0,0.0,0.0006228644002632517,-0.6265607400554046,9.807847701328267,0.0,0.0,0.0,0.0,0.0,0.0,0.0,0.0,0.0
2025/05/21 12:43:27.227499157,1747824207,226773869,mA1/imu,0.8871763023233403,0.46143011773933207,0.00035223970325763893,0.0005752965693916362,0.0,0.0,0.0,0.0,0.0,0.0,0.0,0.0,0.0,-0.001331641932355035,-0.0028430750195345225,0.012713395756784582,0.0,0.0,0.0,0.0,0.0,0.0,0.0,0.0,0.0,0.001329756778177208,-0.11522894176622125,9.809223020339726,0.0,0.0,0.0,0.0,0.0,0.0,0.0,0.0,0.0
2025/05/21 12:43:27.278884608,1747824207,276641575,mA1/imu,0.8873265879993157,0.4611410632725778,0.0002759341994785954,0.0006081559391862969,0.0,0.0,0.0,0.0,0.0,0.0,0.0,0.0,0.0,-0.0018156050394002694,-0.003540248437029407,0.013246945104311235,0.0,0.0,0.0,0.0,0.0,0.0,0.0,0.0,0.0,-0.003749597778222201,0.50961634816867,9.808176432968562,0.0,0.0,0.0,0.0,0.0,0.0,0.0,0.0,0.0
2025/05/21 12:43:27.330700856,1747824207,328169001,mA1/imu,0.8874828460765108,0.4608402446011386,0.00018919340615779467,0.0006565681639124081,0.0,0.0,0.0,0.0,0.0,0.0,0.0,0.0,0.0,-0.001647409141056115,-0.004181946500308901,0.01374724250938488,0.0,0.0,0.0,0.0,0.0,0.0,0.0,0.0,0.0,-0.0003874537142563553,0.5313474648915667,9.810842360834434,0.0,0.0,0.0,0.0,0.0,0.0,0.0,0.0,0.0
2025/05/21 12:43:27.379104988,1747824207,378408119,mA1/imu,0.8876445426532503,0.46052864583393754,9.932132788860364e-05,0.0007227721188192491,0.0,0.0,0.0,0.0,0.0,0.0,0.0,0.0,0.0,-0.0010779505964145985,-0.004515220871079189,0.01423880013270319,0.0,0.0,0.0,0.0,0.0,0.0,0.0,0.0,0.0,-0.0038873569676239686,-0.15838071061320125,9.811756291087548,0.0,0.0,0.0,0.0,0.0,0.0,0.0,0.0,0.0
2025/05/21 12:43:27.432460977,1747824207,430626320,mA1/imu,0.8878116150603788,0.4602063806177983,3.255678528464069e-06,0.0007895517390515529,0.0,0.0,0.0,0.0,0.0,0.0,0.0,0.0,0.0,-0.0009142375872542242,-0.004698995041566122,0.014703545835048704,0.0,0.0,0.0,0.0,0.0,0.0,0.0,0.0,0.0,-0.0004791546736973339,-0.013509611920761926,9.809028150356067,0.0,0.0,0.0,0.0,0.0,0.0,0.0,0.0,0.0
2025/05/21 12:43:27.482593301,1747824207,480447977,mA1/imu,0.8879840364233809,0.45987346048999833,-9.100492701149659e-05,0.0008620396146454894,0.0,0.0,0.0,0.0,0.0,0.0,0.0,0.0,0.0,-9.276835291694533e-05,-0.00469335211548131,0.01519011192088568,0.0,0.0,0.0,0.0,0.0,0.0,0.0,0.0,0.0,0.0027376507401299273,-0.18350758864354944,9.810478392281787,0.0,0.0,0.0,0.0,0.0,0.0,0.0,0.0,0.0
2025/05/21 12:43:27.533975646,1747824207,531833201,mA1/imu,0.8881618831311084,0.4595297026512586,-0.00017528869631373996,0.0009439322656414116,0.0,0.0,0.0,0.0,0.0,0.0,0.0,0.0,0.0,-0.0018938266785416076,-0.004440129222056592,0.01562960055273285,0.0,0.0,0.0,0.0,0.0,0.0,0.0,0.0,0.0,0.011263727363307727,0.371344799989432,9.810318144407837,0.0,0.0,0.0,0.0,0.0,0.0,0.0,0.0,0.0
2025/05/21 12:43:27.585457433,1747824207,583843735,mA1/imu,0.8883416411897059,0.4591818968372783,-0.00025983079800496464,0.0010230509544036032,0.0,0.0,0.0,0.0,0.0,0.0,0.0,0.0,0.0,-0.0008355466034772658,-0.004511585855877021,0.015636489668977,0.0,0.0,0.0,0.0,0.0,0.0,0.0,0.0,0.0,0.02118195512072192,-0.28246842716647896,9.810053167303986,0.0,0.0,0.0,0.0,0.0,0.0,0.0,0.0,0.0
2025/05/21 12:43:27.637442179,1747824207,635127096,mA1/imu,0.8885206194328935,0.45883522280155403,-0.0003390839789916118,0.001110036616888813,0.0,0.0,0.0,0.0,0.0,0.0,0.0,0.0,0.0,-0.0018662116807826306,-0.004338602307019206,0.015582922808862962,0.0,0.0,0.0,0.0,0.0,0.0,0.0,0.0,0.0,0.01848385719440901,0.009713980310051256,9.810944161096964,0.0,0.0,0.0,0.0,0.0,0.0,0.0,0.0,0.0
2025/05/21 12:43:27.685599109,1747824207,684724854,mA1/imu,0.8886988866897269,0.45848957538814034,-0.0004103688728876834,0.0011956814922990432,0.0,0.0,0.0,0.0,0.0,0.0,0.0,0.0,0.0,-0.0013729600126359625,-0.0039493084833176414,0.015533215772188184,0.0,0.0,0.0,0.0,0.0,0.0,0.0,0.0,0.0,0.018569167997529334,-0.6366851199266409,9.809724649763407,0.0,0.0,0.0,0.0,0.0,0.0,0.0,0.0,0.0
2025/05/21 12:43:27.736576244,1747824207,735794321,mA1/imu,0.8888763484217936,0.4581451669442473,-0.0004703290732717738,0.0012735825568064476,0.0,0.0,0.0,0.0,0.0,0.0,0.0,0.0,0.0,-0.003021664738738413,-0.003316730761513493,0.015467868284214162,0.0,0.0,0.0,0.0,0.0,0.0,0.0,0.0,0.0,0.019879228024691505,-0.12693751826513924,9.810018669467789,0.0,0.0,0.0,0.0,0.0,0.0,0.0,0.0,0.0
2025/05/21 12:43:27.776282531,1747824207,775497366,mA1/imu,0.8890529615635702,0.45780211982156277,-0.0005194066453385177,0.00133448067250861,0.0,0.0,0.0,0.0,0.0,0.0,0.0,0.0,0.0,-0.0010527828273114532,-0.0025383445102863237,0.015410902799398649,0.0,0.0,0.0,0.0,0.0,0.0,0.0,0.0,0.0,0.017085128261305354,-0.5209525100959956,9.810182006797385,0.0,0.0,0.0,0.0,0.0,0.0,0.0,0.0,0.0
2025/05/21 12:43:27.828608489,1747824207,826575486,mA1/imu,0.88922877640064,0.45746034128034674,-0.0005491465135010909,0.001384851904069065,0.0,0.0,0.0,0.0,0.0,0.0,0.0,0.0,0.0,-0.0009258211054430132,-0.0016288653918301336,0.015344329050872607,0.0,0.0,0.0,0.0,0.0,0.0,0.0,0.0,0.0,0.01804559371053381,0.005283299305313613,9.811799141763402,0.0,0.0,0.0,0.0,0.0,0.0,0.0,0.0,0.0
2025/05/21 12:43:27.878045057,1747824207,876225211,mA1/imu,0.8893926174444671,0.4571414691089804,-0.0005874226793697325,0.0014505829030352023,0.0,0.0,0.0,0.0,0.0,0.0,0.0,0.0,0.0,-0.002273314415541924,-0.003583577448879857,0.013375001455314766,0.0,0.0,0.0,0.0,0.0,0.0,0.0,0.0,0.0,0.1253346527309357,0.497197401919461,9.810911679538538,0.0,0.0,0.0,0.0,0.0,0.0,0.0,0.0,0.0
2025/05/21 12:43:27.928404850,1747824207,927448301,mA1/imu,0.8895452276904425,0.4568441950256971,-0.0006373329371292465,0.0015043839963774772,0.0,0.0,0.0,0.0,0.0,0.0,0.0,0.0,0.0,-0.0015244388027321446,-0.002217089511949323,0.01334954477923194,0.0,0.0,0.0,0.0,0.0,0.0,0.0,0.0,0.0,0.01446757345776999,-0.06390544790266231,9.80893146893372,0.0,0.0,0.0,0.0,0.0,0.0,0.0,0.0,0.0
2025/05/21 12:43:27.979390119,1747824207,977349116,mA1/imu,0.8896998294647419,0.4565429176629798,-0.0006540845366596129,0.001532956490484759,0.0,0.0,0.0,0.0,0.0,0.0,0.0,0.0,0.0,-0.0011485779681886148,-0.00028330294963912876,0.013750625109297917,0.0,0.0,0.0,0.0,0.0,0.0,0.0,0.0,0.0,-0.0065689617259116,-0.04933773772916883,9.809372013483507,0.0,0.0,0.0,0.0,0.0,0.0,0.0,0.0,0.0
2025/05/21 12:43:28.30490899,1747824208,28451700,mA1/imu,0.8898601306952194,0.45623042949875786,-0.0006282871430132068,0.0015324012959769624,0.0,0.0,0.0,0.0,0.0,0.0,0.0,0.0,0.0,-0.000965985686842607,0.0017027481188602478,0.014240904508311565,0.0,0.0,0.0,0.0,0.0,0.0,0.0,0.0,0.0,-0.0010196148691841156,0.5168138954654183,9.810157765397697,0.0,0.0,0.0,0.0,0.0,0.0,0.0,0.0,0.0
2025/05/21 12:43:28.79120901,1747824208,78145678,mA1/imu,0.8900258142731885,0.4559073204377266,-0.0005673089188452105,0.0014977513914280522,0.0,0.0,0.0,0.0,0.0,0.0,0.0,0.0,0.0,0.0007782870609559918,0.003457494570409432,0.01471350289226905,0.0,0.0,0.0,0.0,0.0,0.0,0.0,0.0,0.0,0.0007030237880488073,-0.6112031463953508,9.807931538620593,0.0,0.0,0.0,0.0,0.0,0.0,0.0,0.0,0.0
2025/05/21 12:43:28.130095378,1747824208,129152661,mA1/imu,0.8901930847707045,0.45558091764836384,-0.000487674012149952,0.0014357838103564939,0.0,0.0,0.0,0.0,0.0,0.0,0.0,0.0,0.0,0.0014561999848370134,0.004240117941259181,0.014645388482245055,0.0,0.0,0.0,0.0,0.0,0.0,0.0,0.0,0.0,0.023716632680607985,0.03257798007541478,9.809199152787254,0.0,0.0,0.0,0.0,0.0,0.0,0.0,0.0,0.0
2025/05/21 12:43:28.181504985,1747824208,180652899,mA1/imu,0.8903594596902006,0.45525597023097314,-0.0003915748976391481,0.0013714147180445252,0.0,0.0,0.0,0.0,0.0,0.0,0.0,0.0,0.0,-7.455077546906157e-05,0.004769398283005259,0.01457927194724254,0.0,0.0,0.0,0.0,0.0,0.0,0.0,0.0,0.0,0.024768567547638794,0.5361006220372755,9.810098357089894,0.0,0.0,0.0,0.0,0.0,0.0,0.0,0.0,0.0
2025/05/21 12:43:28.233308077,1747824208,232039706,mA1/imu,0.890524913141013,0.4549325413232713,-0.0002926227048863156,0.0012947170709810471,0.0,0.0,0.0,0.0,0.0,0.0,0.0,0.0,0.0,0.0006094075288436506,0.004964954456533728,0.014505126777696244,0.0,0.0,0.0,0.0,0.0,0.0,0.0,0.0,0.0,0.02674504457199404,-0.06339899060115196,9.81011694303576,0.0,0.0,0.0,0.0,0.0,0.0,0.0,0.0,0.0
2025/05/21 12:43:28.282998019,1747824208,281636257,mA1/imu,0.8906893666809941,0.4546107513153156,-0.00019331466571240527,0.0012163467324609973,0.0,0.0,0.0,0.0,0.0,0.0,0.0,0.0,0.0,0.0010112345326734912,0.004890326773378394,0.014429430206243387,0.0,0.0,0.0,0.0,0.0,0.0,0.0,0.0,0.0,0.026516035125364414,-0.6747601102368808,9.809832753978986,0.0,0.0,0.0,0.0,0.0,0.0,0.0,0.0,0.0
2025/05/21 12:43:28.334063141,1747824208,333083312,mA1/imu,0.8908528124774561,0.45429064719337897,-0.00010843845306185548,0.0011236613053516985,0.0,0.0,0.0,0.0,0.0,0.0,0.0,0.0,0.0,0.0022151536931426063,0.004531300221402307,0.014346437696942854,0.0,0.0,0.0,0.0,0.0,0.0,0.0,0.0,0.0,0.027790399125774773,-0.4908219521083431,9.809599116554187,0.0,0.0,0.0,0.0,0.0,0.0,0.0,0.0,0.0
2025/05/21 12:43:28.384771528,1747824208,382825642,mA1/imu,0.8910072163235452,0.45398791494392465,-5.693740298069467e-05,0.0010537088625474566,0.0,0.0,0.0,0.0,0.0,0.0,0.0,0.0,0.0,0.0031920633097303227,0.0022072782678403515,0.01314234376376068,0.0,0.0,0.0,0.0,0.0,0.0,0.0,0.0,0.0,0.050927439785516386,-0.5338778327403709,9.809104922085783,0.0,0.0,0.0,0.0,0.0,0.0,0.0,0.0,0.0
2025/05/21 12:43:28.435027825,1747824208,433834295,mA1/imu,0.8911556806827158,0.4536965322397287,-2.9130524834340254e-05,0.0010042768456500124,0.0,0.0,0.0,0.0,0.0,0.0,0.0,0.0,0.0,0.0030146995796252935,0.0016171407794141278,0.013049063093526318,0.0,0.0,0.0,0.0,0.0,0.0,0.0,0.0,0.0,0.02566356677905376,-0.5431012374483718,9.807853506370474,0.0,0.0,0.0,0.0,0.0,0.0,0.0,0.0,0.0
2025/05/21 12:43:28.484722829,1747824208,483567399,mA1/imu,0.8913030651820419,0.4534070131299802,-1.5903969764264985e-05,0.0009623869859459679,0.0,0.0,0.0,0.0,0.0,0.0,0.0,0.0,0.0,0.002615748969020596,0.0009145189156051725,0.012960048015572356,0.0,0.0,0.0,0.0,0.0,0.0,0.0,0.0,0.0,0.027288060968937943,-0.5708848811260179,9.809032020919542,0.0,0.0,0.0,0.0,0.0,0.0,0.0,0.0,0.0
2025/05/21 12:43:28.535832378,1747824208,534602668,mA1/imu,0.8914492499688753,0.4531196023296687,-1.9288675621572803e-05,0.0009275464837538152,0.0,0.0,0.0,0.0,0.0,0.0,0.0,0.0,0.0,0.0011557785240120465,0.0002164875009184431,0.012856388008965505,0.0,0.0,0.0,0.0,0.0,0.0,0.0,0.0,0.0,0.02634527465129833,0.6030728044508634,9.811160124915292,0.0,0.0,0.0,0.0,0.0,0.0,0.0,0.0,0.0
2025/05/21 12:43:28.586280899,1747824208,584479970,mA1/imu,0.8915941383872065,0.4528344727794318,-3.276042080868337e-05,0.0009119116752575423,0.0,0.0,0.0,0.0,0.0,0.0,0.0,0.0,0.0,0.0004063983264273247,-0.00047946203419311703,0.012749573497179912,0.0,0.0,0.0,0.0,0.0,0.0,0.0,0.0,0.0,0.025751880942519213,0.061298554414349865,9.809516339286318,0.0,0.0,0.0,0.0,0.0,0.0,0.0,0.0,0.0
2025/05/21 12:43:28.636696752,1747824208,635602077,mA1/imu,0.8917378442450833,0.4525514313430774,-6.140668950509241e-05,0.0009029726916113306,0.0,0.0,0.0,0.0,0.0,0.0,0.0,0.0,0.0,0.00047678429124060824,-0.0011170986534307472,0.012659527917657797,0.0,0.0,0.0,0.0,0.0,0.0,0.0,0.0,0.0,0.024813670739169343,-0.11839805287143683,9.810659785815142,0.0,0.0,0.0,0.0,0.0,0.0,0.0,0.0,0.0
2025/05/21 12:43:28.686629464,1747824208,685390235,mA1/imu,0.891880325412495,0.45227056771542773,-0.00010400797762092495,0.0008988341379827386,0.0,0.0,0.0,0.0,0.0,0.0,0.0,0.0,0.0,0.0018018752778410372,-0.0016714063627028904,0.01255308453665462,0.0,0.0,0.0,0.0,0.0,0.0,0.0,0.0,0.0,0.024647927807323833,-0.5721666715990261,9.80986016935706,0.0,0.0,0.0,0.0,0.0,0.0,0.0,0.0,0.0
2025/05/21 12:43:28.728545210,1747824208,726254896,mA1/imu,0.8920213957003555,0.4519922263818462,-0.0001506601610538695,0.0009133480646966746,0.0,0.0,0.0,0.0,0.0,0.0,0.0,0.0,0.0,-0.00017925277111488332,-0.0021014242934939164,0.012432674084489078,0.0,0.0,0.0,0.0,0.0,0.0,0.0,0.0,0.0,0.024929405402147407,0.5694070866572997,9.810387586525284,0.0,0.0,0.0,0.0,0.0,0.0,0.0,0.0,0.0
2025/05/21 12:43:28.778893780,1747824208,776182429,mA1/imu,0.8921610078755629,0.4517165191457945,-0.0002018353520708158,0.0009389460887701923,0.0,0.0,0.0,0.0,0.0,0.0,0.0,0.0,0.0,-0.0007450685963520486,-0.0024056068587435717,0.012307257646872632,0.0,0.0,0.0,0.0,0.0,0.0,0.0,0.0,0.0,0.02450181116125353,0.11642179347484553,9.809623272072137,0.0,0.0,0.0,0.0,0.0,0.0,0.0,0.0,0.0
2025/05/21 12:43:28.828002283,1747824208,827026613,mA1/imu,0.8922991313628357,0.45144352329028364,-0.00025721650517343666,0.0009691687435851,0.0,0.0,0.0,0.0,0.0,0.0,0.0,0.0,0.0,0.0005572627139969084,-0.002594443216940998,0.012185830989287832,0.0,0.0,0.0,0.0,0.0,0.0,0.0,0.0,0.0,0.02308683400825362,-0.6037539082914211,9.80954791257719,0.0,0.0,0.0,0.0,0.0,0.0,0.0,0.0,0.0
2025/05/21 12:43:28.879156498,1747824208,876924209,mA1/imu,0.8924254886790554,0.4511935181623097,-0.0003411425114919218,0.0010197774529563126,0.0,0.0,0.0,0.0,0.0,0.0,0.0,0.0,0.0,0.000862970129703035,-0.005326338801810304,0.010251557743509646,0.0,0.0,0.0,0.0,0.0,0.0,0.0,0.0,0.0,0.1326591617964256,-0.5773240492425645,9.805505818597195,0.0,0.0,0.0,0.0,0.0,0.0,0.0,0.0,0.0
2025/05/21 12:43:28.930101118,1747824208,928064880,mA1/imu,0.8925402706293477,0.4509661474370689,-0.00044357798083444287,0.0010965442232091262,0.0,0.0,0.0,0.0,0.0,0.0,0.0,0.0,0.0,-0.001681021586623564,-0.0048533104955488324,0.010141134823999092,0.0,0.0,0.0,0.0,0.0,0.0,0.0,0.0,0.0,0.01953132014436689,0.14871173094993517,9.809022849146677,0.0,0.0,0.0,0.0,0.0,0.0,0.0,0.0,0.0
2025/05/21 12:43:28.979461132,1747824208,978615257,mA1/imu,0.8926515246787373,0.4507455989488571,-0.0005357085491862692,0.0011719783751914853,0.0,0.0,0.0,0.0,0.0,0.0,0.0,0.0,0.0,-0.0016640357238120553,-0.004478502798583197,0.009655701618597046,0.0,0.0,0.0,0.0,0.0,0.0,0.0,0.0,0.0,0.027268970177994765,-0.07365012648501262,9.808284656469825,0.0,0.0,0.0,0.0,0.0,0.0,0.0,0.0,0.0
2025/05/21 12:43:29.30714261,1747824209,29526297,mA1/imu,0.8927564135572716,0.4505375236531429,-0.0006151608584593141,0.0012439493437344869,0.0,0.0,0.0,0.0,0.0,0.0,0.0,0.0,0.0,-0.0006000221621494397,-0.003861353904475108,0.009099724587952447,0.0,0.0,0.0,0.0,0.0,0.0,0.0,0.0,0.0,0.029626212957760575,-0.6212109307807638,9.810742253143129,0.0,0.0,0.0,0.0,0.0,0.0,0.0,0.0,0.0
2025/05/21 12:43:29.80420065,1747824209,79380455,mA1/imu,0.8928551836763542,0.45034147964795446,-0.0006747422096958157,0.0013105013182383137,0.0,0.0,0.0,0.0,0.0,0.0,0.0,0.0,0.0,-0.00044006034027641906,-0.0029652428859038107,0.008565342137783224,0.0,0.0,0.0,0.0,0.0,0.0,0.0,0.0,0.0,0.02684706472328101,-0.1318704099610825,9.81180226512315,0.0,0.0,0.0,0.0,0.0,0.0,0.0,0.0,0.0
2025/05/21 12:43:29.132718130,1747824209,130405504,mA1/imu,0.8929481056752082,0.45015697367411506,-0.0007056677893651832,0.0013717348833791618,0.0,0.0,0.0,0.0,0.0,0.0,0.0,0.0,0.0,-0.0019761055065065326,-0.0017106219766331945,0.008059723679994482,0.0,0.0,0.0,0.0,0.0,0.0,0.0,0.0,0.0,0.01814895627371509,0.5669591013637519,9.80965566144472,0.0,0.0,0.0,0.0,0.0,0.0,0.0,0.0,0.0
2025/05/21 12:43:29.184549577,1747824209,183147465,mA1/imu,0.8930353601282085,0.4499836931677047,-0.0007060735312119067,0.0014222882979621815,0.0,0.0,0.0,0.0,0.0,0.0,0.0,0.0,0.0,-0.002048583897445542,-0.0003977946861129443,0.0075731652379083915,0.0,0.0,0.0,0.0,0.0,0.0,0.0,0.0,0.0,0.017818723338460154,-0.06730960660664688,9.80837213170514,0.0,0.0,0.0,0.0,0.0,0.0,0.0,0.0,0.0
2025/05/21 12:43:29.237610808,1747824209,235795030,mA1/imu,0.8931171719447092,0.44982124339759,-0.0006813208720527874,0.0014498164022513109,0.0,0.0,0.0,0.0,0.0,0.0,0.0,0.0,0.0,-0.002244329563763824,0.0009396294326632183,0.007103964400589082,0.0,0.0,0.0,0.0,0.0,0.0,0.0,0.0,0.0,0.017383049053223926,0.21144033982316468,9.810138456608268,0.0,0.0,0.0,0.0,0.0,0.0,0.0,0.0,0.0
2025/05/21 12:43:29.277889949,1747824209,275587329,mA1/imu,0.8931940522909281,0.4496686080915378,-0.0006258250693928105,0.0014615717950989355,0.0,0.0,0.0,0.0,0.0,0.0,0.0,0.0,0.0,-0.0015112041730965579,0.0023532372723971125,0.006660706339727093,0.0,0.0,0.0,0.0,0.0,0.0,0.0,0.0,0.0,0.013029026007529924,-0.034702469378848806,9.808624028439937,0.0,0.0,0.0,0.0,0.0,0.0,0.0,0.0,0.0
2025/05/21 12:43:29.329449510,1747824209,327157984,mA1/imu,0.8932660871224148,0.4495256290541158,-0.0005421374677732882,0.0014534467577879784,0.0,0.0,0.0,0.0,0.0,0.0,0.0,0.0,0.0,-0.0016367494803900585,0.0036601013484827156,0.006248900714791795,0.0,0.0,0.0,0.0,0.0,0.0,0.0,0.0,0.0,0.014765098517054511,0.445896756093312,9.810538965494183,0.0,0.0,0.0,0.0,0.0,0.0,0.0,0.0,0.0
2025/05/21 12:43:29.378797607,1747824209,376497921,mA1/imu,0.8933337501249594,0.4493913744140622,-0.0004361689943031276,0.0014188891870814098,0.0,0.0,0.0,0.0,0.0,0.0,0.0,0.0,0.0,2.483447658851457e-05,0.004865900548940516,0.005866973195418582,0.0,0.0,0.0,0.0,0.0,0.0,0.0,0.0,0.0,0.012416053213723428,-0.48809782097411564,9.80881430155447,0.0,0.0,0.0,0.0,0.0,0.0,0.0,0.0,0.0
2025/05/21 12:43:29.429495958,1747824209,427461475,mA1/imu,0.8933985940906206,0.4492627110234029,-0.00030453316068411717,0.0013696059137723988,0.0,0.0,0.0,0.0,0.0,0.0,0.0,0.0,0.0,-0.0008554935159997567,0.006130108913437156,0.005813061258251798,0.0,0.0,0.0,0.0,0.0,0.0,0.0,0.0,0.0,-0.003800756914686891,0.4696862979408355,9.810488286952305,0.0,0.0,0.0,0.0,0.0,0.0,0.0,0.0,0.0
2025/05/21 12:43:29.478224391,1747824209,477232630,mA1/imu,0.8934650960018069,0.4491307573906272,-0.0001533959931313478,0.001288977064498766,0.0,0.0,0.0,0.0,0.0,0.0,0.0,0.0,0.0,0.0010818856886110134,0.007258196648365867,0.005987980406146937,0.0,0.0,0.0,0.0,0.0,0.0,0.0,0.0,0.0,-0.004302827442615795,-0.5878915252159688,9.808577815138737,0.0,0.0,0.0,0.0,0.0,0.0,0.0,0.0,0.0
