time,header_stamp_secs,header_stamp_nsecs,header_frame_id,orientation_x,orientation_y,orientation_z,orientation_w,orientation_covariance_0,orientation_covariance_1,orientation_covariance_2,orientation_covariance_3,orientation_covariance_4,orientation_covariance_5,orientation_covariance_6,orientation_covariance_7,orientation_covariance_8,angular_velocity_x,angular_velocity_y,angular_velocity_z,angular_velocity_covariance_0,angular_velocity_covariance_1,angular_velocity_covariance_2,angular_velocity_covariance_3,angular_velocity_covariance_4,angular_velocity_covariance_5,angular_velocity_covariance_6,angular_velocity_covariance_7,angular_velocity_covariance_8,linear_acceleration_x,linear_acceleration_y,linear_acceleration_z,linear_acceleration_covariance_0,linear_acceleration_covariance_1,linear_acceleration_covariance_2,linear_acceleration_covariance_3,linear_acceleration_covariance_4,linear_acceleration_covariance_5,linear_acceleration_covariance_6,linear_acceleration_covariance_7,linear_acceleration_covariance_8
2025/05/25 17:16:50.271566797,1748186210,265500824,mA1/imu,0.9661225467038693,-0.25808234973780975,-0.0005180757493754816,0.0006760930102286984,0.0,0.0,0.0,0.0,0.0,0.0,0.0,0.0,0.0,-0.0009150589557636949,0.00025079408824281766,-0.0007295595724236909,0.0,0.0,0.0,0.0,0.0,0.0,0.0,0.0,0.0,0.008610771411641502,0.549516902391782,9.809488999737182,0.0,0.0,0.0,0.0,0.0,0.0,0.0,0.0,0.0
2025/05/25 17:16:50.327869240,1748186210,322670912,mA1/imu,0.9661272831244202,-0.2580646360656296,-0.0005138407684726085,0.0006725939376823108,0.0,0.0,0.0,0.0,0.0,0.0,0.0,0.0,0.0,0.0006468037566206569,5.21849156996827e-05,-0.0007360721523945904,0.0,0.0,0.0,0.0,0.0,0.0,0.0,0.0,0.0,0.008235835836760614,0.030366104485199122,9.81027878518911,0.0,0.0,0.0,0.0,0.0,0.0,0.0,0.0,0.0
2025/05/25 17:16:50.368945848,1748186210,367364552,mA1/imu,0.9661320511769292,-0.2580467712659531,-0.0005164127017252703,0.0006759036897241541,0.0,0.0,0.0,0.0,0.0,0.0,0.0,0.0,0.0,0.0007450866145630377,-0.00014520080492039,-0.0007421529238679432,0.0,0.0,0.0,0.0,0.0,0.0,0.0,0.0,0.0,0.008121284190099252,0.03848409653790284,9.81055871764491,0.0,0.0,0.0,0.0,0.0,0.0,0.0,0.0,0.0
2025/05/25 17:16:50.423329577,1748186210,420147688,mA1/imu,0.9661368555154818,-0.25802876039134803,-0.000523664616380211,0.0006789704933031146,0.0,0.0,0.0,0.0,0.0,0.0,0.0,0.0,0.0,0.0008771654530682108,-0.0003290829312744952,-0.0007481753608565817,0.0,0.0,0.0,0.0,0.0,0.0,0.0,0.0,0.0,0.008402609612220033,-0.5822948226386604,9.809531368265096,0.0,0.0,0.0,0.0,0.0,0.0,0.0,0.0,0.0
2025/05/25 17:16:50.480964174,1748186210,471050411,mA1/imu,0.9661416946548442,-0.2580106089121815,-0.0005351427755941726,0.0006820267154304331,0.0,0.0,0.0,0.0,0.0,0.0,0.0,0.0,0.0,-0.0007155419001558016,-0.0004728581121120015,-0.0007538795428252752,0.0,0.0,0.0,0.0,0.0,0.0,0.0,0.0,0.0,0.008579637404973108,-0.06279826404803478,9.810174229399514,0.0,0.0,0.0,0.0,0.0,0.0,0.0,0.0,0.0
2025/05/25 17:16:50.530943823,1748186210,522008945,mA1/imu,0.9661465676809318,-0.25799234735512594,-0.0005480627371940751,0.0006768247798317571,0.0,0.0,0.0,0.0,0.0,0.0,0.0,0.0,0.0,-0.0008453945034088546,-0.000591781944271016,-0.0007580045478369813,0.0,0.0,0.0,0.0,0.0,0.0,0.0,0.0,0.0,0.0077237933452432,-0.06759117203067859,9.808720903310173,0.0,0.0,0.0,0.0,0.0,0.0,0.0,0.0,0.0
2025/05/25 17:16:50.573042239,1748186210,565488437,mA1/imu,0.9661514649661108,-0.257973990144496,-0.0005634406058027833,0.0006705873910807937,0.0,0.0,0.0,0.0,0.0,0.0,0.0,0.0,0.0,-0.0009965150203454268,-0.0006824032241748695,-0.0007620511010515352,0.0,0.0,0.0,0.0,0.0,0.0,0.0,0.0,0.0,0.00792746506411247,0.5495095128853937,9.809524443787117,0.0,0.0,0.0,0.0,0.0,0.0,0.0,0.0,0.0
2025/05/25 17:16:50.624093219,1748186210,618627356,mA1/imu,0.9661563855264399,-0.25795554271892346,-0.0005801651490121841,0.00066339691783577,0.0,0.0,0.0,0.0,0.0,0.0,0.0,0.0,0.0,0.0005787548124277668,-0.0007330459319753258,-0.0007658414480332257,0.0,0.0,0.0,0.0,0.0,0.0,0.0,0.0,0.0,0.007510028106833518,0.030372801929511917,9.810371526593183,0.0,0.0,0.0,0.0,0.0,0.0,0.0,0.0,0.0
2025/05/25 17:16:50.685320698,1748186210,675692592,mA1/imu,0.9661613230080649,-0.2579370036042025,-0.0005994049103314349,0.0006639342923577781,0.0,0.0,0.0,0.0,0.0,0.0,0.0,0.0,0.0,0.0006782585645181986,-0.0007385281842690922,-0.0007694215913888019,0.0,0.0,0.0,0.0,0.0,0.0,0.0,0.0,0.0,0.007248805219961603,0.0373738290153014,9.810706557755216,0.0,0.0,0.0,0.0,0.0,0.0,0.0,0.0,0.0
2025/05/25 17:16:50.754971570,1748186210,720052487,mA1/imu,0.9661662820504441,-0.25791838014628343,-0.0006181713167015464,0.0006651885163077244,0.0,0.0,0.0,0.0,0.0,0.0,0.0,0.0,0.0,0.0008408200606960578,-0.000703068775237338,-0.0007727408055163685,0.0,0.0,0.0,0.0,0.0,0.0,0.0,0.0,0.0,0.007531177240324852,-0.5825556576828904,9.80971573197598,0.0,0.0,0.0,0.0,0.0,0.0,0.0,0.0,0.0
2025/05/25 17:16:50.778191191,1748186210,771654268,mA1/imu,0.9661712623916657,-0.2578996755533904,-0.000635435769798265,0.000667307525240889,0.0,0.0,0.0,0.0,0.0,0.0,0.0,0.0,0.0,-0.0007301834984873625,-0.0006112495307351136,-0.0007758764464557927,0.0,0.0,0.0,0.0,0.0,0.0,0.0,0.0,0.0,0.007757226400699983,-0.06293784970012611,9.810429499487121,0.0,0.0,0.0,0.0,0.0,0.0,0.0,0.0,0.0
2025/05/25 17:16:50.824546038,1748186210,814638377,mA1/imu,0.9661762679140109,-0.25788090405851166,-0.0006481976310869117,0.0006621793934127179,0.0,0.0,0.0,0.0,0.0,0.0,0.0,0.0,0.0,-0.0008377397535487497,-0.0004886121919485081,-0.0007785278258275067,0.0,0.0,0.0,0.0,0.0,0.0,0.0,0.0,0.0,0.006854337575034716,-0.06752521943955828,9.80897942369236,0.0,0.0,0.0,0.0,0.0,0.0,0.0,0.0,0.0
2025/05/25 17:16:50.883133513,1748186210,871159812,mA1/imu,0.9661812926147525,-0.2578620671963642,-0.0006576185868363219,0.0006569933775596959,0.0,0.0,0.0,0.0,0.0,0.0,0.0,0.0,0.0,-0.000967619558171663,-0.0003520267365865785,-0.0007812472460333752,0.0,0.0,0.0,0.0,0.0,0.0,0.0,0.0,0.0,0.007262552042667328,0.549558564031388,9.809843763182593,0.0,0.0,0.0,0.0,0.0,0.0,0.0,0.0,0.0
2025/05/25 17:16:50.926831279,1748186210,921973801,mA1/imu,0.966186336640749,-0.2578431663279302,-0.0006631167969363776,0.0006517229703190098,0.0,0.0,0.0,0.0,0.0,0.0,0.0,0.0,0.0,0.0006280311622743505,-0.00020115586328566453,-0.0007839097838796232,0.0,0.0,0.0,0.0,0.0,0.0,0.0,0.0,0.0,0.006968632024509092,0.03041583520436815,9.810692214777754,0.0,0.0,0.0,0.0,0.0,0.0,0.0,0.0,0.0
2025/05/25 17:16:50.967649648,1748186210,965199893,mA1/imu,0.9661913947081132,-0.2578241953677431,-0.0006666314648443389,0.0006547346460957476,0.0,0.0,0.0,0.0,0.0,0.0,0.0,0.0,0.0,0.0007602023077196402,-4.33339289625712e-05,-0.0007864872728003442,0.0,0.0,0.0,0.0,0.0,0.0,0.0,0.0,0.0,0.007014633263313273,0.03846815204536018,9.81100763141082,0.0,0.0,0.0,0.0,0.0,0.0,0.0,0.0,0.0
2025/05/25 17:16:51.29650889,1748186211,17171779,mA1/imu,0.9661964720371193,-0.25780515771431106,-0.0006662335999903054,0.0006589474285523298,0.0,0.0,0.0,0.0,0.0,0.0,0.0,0.0,0.0,0.0009248008716012111,0.00011158489993884505,-0.0007889893708525601,0.0,0.0,0.0,0.0,0.0,0.0,0.0,0.0,0.0,0.007502899002556466,-0.5823279937138222,9.80993064326143,0.0,0.0,0.0,0.0,0.0,0.0,0.0,0.0,0.0
2025/05/25 17:16:51.112800311,1748186211,71606740,mA1/imu,0.9662015689143579,-0.25778605131613447,-0.0006621673294300429,0.000664461207441947,0.0,0.0,0.0,0.0,0.0,0.0,0.0,0.0,0.0,-0.0006385364459834245,0.00027018752326666846,-0.0007917105777101961,0.0,0.0,0.0,0.0,0.0,0.0,0.0,0.0,0.0,0.0080970903940761,-0.06286804766414504,9.810569222253136,0.0,0.0,0.0,0.0,0.0,0.0,0.0,0.0,0.0
2025/05/25 17:16:51.184044898,1748186211,123956286,mA1/imu,0.9662066909037974,-0.25776688132204756,-0.000652702203156602,0.0006628167719970132,0.0,0.0,0.0,0.0,0.0,0.0,0.0,0.0,0.0,-0.0007417427310195033,0.00040840903599644496,-0.0007945627312137641,0.0,0.0,0.0,0.0,0.0,0.0,0.0,0.0,0.0,0.0071472967722083,-0.06749385872271114,9.809048911938369,0.0,0.0,0.0,0.0,0.0,0.0,0.0,0.0,0.0
2025/05/25 17:16:51.212280285,1748186211,165029763,mA1/imu,0.9662118330057496,-0.25774764186779264,-0.0006403216030849688,0.0006609534824848594,0.0,0.0,0.0,0.0,0.0,0.0,0.0,0.0,0.0,-0.0008713653118208744,0.0005053678779672322,-0.0007975300651879999,0.0,0.0,0.0,0.0,0.0,0.0,0.0,0.0,0.0,0.007862750969447876,0.549566514635118,9.809797410084636,0.0,0.0,0.0,0.0,0.0,0.0,0.0,0.0,0.0
2025/05/25 17:16:51.286717059,1748186211,220637111,mA1/imu,0.9662169950208745,-0.25772833231646525,-0.0006256714619672897,0.0006586269254463686,0.0,0.0,0.0,0.0,0.0,0.0,0.0,0.0,0.0,0.0007201555670543044,0.0005701331688397829,-0.0008005122318955576,0.0,0.0,0.0,0.0,0.0,0.0,0.0,0.0,0.0,0.007607043487992982,0.03040611030725786,9.81058275736873,0.0,0.0,0.0,0.0,0.0,0.0,0.0,0.0,0.0
2025/05/25 17:16:51.330032968,1748186211,273098590,mA1/imu,0.9662221708154903,-0.25770894706052216,-0.0006118188299171083,0.000664008492147423,0.0,0.0,0.0,0.0,0.0,0.0,0.0,0.0,0.0,0.0008441311660314197,0.0005968902310847741,-0.0008033072573549042,0.0,0.0,0.0,0.0,0.0,0.0,0.0,0.0,0.0,0.007852442949689425,0.03845497710346826,9.810826507699984,0.0,0.0,0.0,0.0,0.0,0.0,0.0,0.0,0.0
2025/05/25 17:16:51.395475138,1748186211,321725566,mA1/imu,0.9662273710389285,-0.25768946710633467,-0.0005976875483507813,0.0006699009245947377,0.0,0.0,0.0,0.0,0.0,0.0,0.0,0.0,0.0,0.0009960146978817874,0.0005935510732934277,-0.0008075992183440777,0.0,0.0,0.0,0.0,0.0,0.0,0.0,0.0,0.0,0.008270064715573056,-0.5824725970651949,9.80971592914563,0.0,0.0,0.0,0.0,0.0,0.0,0.0,0.0,0.0
2025/05/25 17:16:51.421933975,1748186211,369349724,mA1/imu,0.9662325987575777,-0.2576698787545267,-0.00058417402036903,0.0006763294458390233,0.0,0.0,0.0,0.0,0.0,0.0,0.0,0.0,0.0,-0.0005832006877913232,0.0005702754448137076,-0.0008120544333346782,0.0,0.0,0.0,0.0,0.0,0.0,0.0,0.0,0.0,0.008881395142333348,-0.06300161642050345,9.810299812158831,0.0,0.0,0.0,0.0,0.0,0.0,0.0,0.0,0.0
2025/05/25 17:16:51.509069658,1748186211,420470275,mA1/imu,0.9662378581211256,-0.2576501917665473,-0.0005699741147013888,0.0006747930566885434,0.0,0.0,0.0,0.0,0.0,0.0,0.0,0.0,0.0,-0.0007044657073031288,0.0005141871066702693,-0.0008164019661290013,0.0,0.0,0.0,0.0,0.0,0.0,0.0,0.0,0.0,0.007850470103470543,-0.06759098319115628,9.808776814484563,0.0,0.0,0.0,0.0,0.0,0.0,0.0,0.0,0.0
2025/05/25 17:16:51.552978058,1748186211,469212721,mA1/imu,0.9662431427480546,-0.2576304060778703,-0.0005577242541642455,0.000672235204783458,0.0,0.0,0.0,0.0,0.0,0.0,0.0,0.0,0.0,-0.0008536648010244851,0.00041549231605051594,-0.0008205967345051556,0.0,0.0,0.0,0.0,0.0,0.0,0.0,0.0,0.0,0.00846850296985115,0.549480250142421,9.809493629565944,0.0,0.0,0.0,0.0,0.0,0.0,0.0,0.0,0.0
2025/05/25 17:16:51.565937011,1748186211,517332702,mA1/imu,0.9662484512249877,-0.25761052660783,-0.000547933013023075,0.0006684725591596506,0.0,0.0,0.0,0.0,0.0,0.0,0.0,0.0,0.0,0.0007175442478010154,0.00029453035430807766,-0.0008245653358552552,0.0,0.0,0.0,0.0,0.0,0.0,0.0,0.0,0.0,0.008127581287378416,0.03032674278940743,9.810279697640997,0.0,0.0,0.0,0.0,0.0,0.0,0.0,0.0,0.0
2025/05/25 17:16:51.585335595,1748186211,572909370,mA1/imu,0.9662537762875465,-0.2575905537710066,-0.000543251297509805,0.00067178570254561,0.0,0.0,0.0,0.0,0.0,0.0,0.0,0.0,0.0,0.0008215882535883728,0.0001580070301838844,-0.0008281456474330846,0.0,0.0,0.0,0.0,0.0,0.0,0.0,0.0,0.0,0.00815688892059261,0.038386341677521994,9.810566750300493,0.0,0.0,0.0,0.0,0.0,0.0,0.0,0.0,0.0
2025/05/25 17:16:51.626749765,1748186211,624651224,mA1/imu,0.9662591215188117,-0.25757049625166123,-0.0005420197539419973,0.0006750977362138668,0.0,0.0,0.0,0.0,0.0,0.0,0.0,0.0,0.0,0.0009556182111612758,1.5965120590449905e-05,-0.0008314697082082576,0.0,0.0,0.0,0.0,0.0,0.0,0.0,0.0,0.0,0.008559352832016434,-0.5824308988342495,9.80952660843942,0.0,0.0,0.0,0.0,0.0,0.0,0.0,0.0,0.0
2025/05/25 17:16:51.671852304,1748186211,668114197,mA1/imu,0.9662644853848176,-0.25755035917422164,-0.0005443193071044881,0.0006785939394570124,0.0,0.0,0.0,0.0,0.0,0.0,0.0,0.0,0.0,-0.0006387998602718733,-0.00010755692137045812,-0.0008347376846514953,0.0,0.0,0.0,0.0,0.0,0.0,0.0,0.0,0.0,0.008870950640353703,-0.06294621784382556,9.810182900720916,0.0,0.0,0.0,0.0,0.0,0.0,0.0,0.0,0.0
2025/05/25 17:16:51.724576421,1748186211,721611852,mA1/imu,0.9662698721714358,-0.2575301531014039,-0.000547847479458441,0.0006739736671100947,0.0,0.0,0.0,0.0,0.0,0.0,0.0,0.0,0.0,-0.0007726456401482694,-0.00022296332496120043,-0.000837815391952918,0.0,0.0,0.0,0.0,0.0,0.0,0.0,0.0,0.0,0.007846881614788966,-0.06757474488068291,9.808725340862466,0.0,0.0,0.0,0.0,0.0,0.0,0.0,0.0,0.0
2025/05/25 17:16:51.774462872,1748186211,772860723,mA1/imu,0.9662752757186549,-0.25750987887703064,-0.0005541308042733075,0.0006683970572535808,0.0,0.0,0.0,0.0,0.0,0.0,0.0,0.0,0.0,-0.0009312622594208367,-0.0003331606576822864,-0.0008407218815888532,0.0,0.0,0.0,0.0,0.0,0.0,0.0,0.0,0.0,0.00817144039025288,0.5495135509218627,9.80953147888015,0.0,0.0,0.0,0.0,0.0,0.0,0.0,0.0,0.0
2025/05/25 17:16:51.827054545,1748186211,823728284,mA1/imu,0.9662806951137266,-0.2574895408950018,-0.0005625708752959055,0.0006618868670872248,0.0,0.0,0.0,0.0,0.0,0.0,0.0,0.0,0.0,0.0006338532982117837,-0.00042274699662402164,-0.0008433864176740191,0.0,0.0,0.0,0.0,0.0,0.0,0.0,0.0,0.0,0.00778200573579043,0.030377295786430197,9.81037338764377,0.0,0.0,0.0,0.0,0.0,0.0,0.0,0.0,0.0
2025/05/25 17:16:51.870373004,1748186211,864667073,mA1/imu,0.966286123961559,-0.25746913753230194,-0.0005747664514202694,0.0006629489010523326,0.0,0.0,0.0,0.0,0.0,0.0,0.0,0.0,0.0,0.0007280710075153054,-0.000484830431714345,-0.0008458638576639758,0.0,0.0,0.0,0.0,0.0,0.0,0.0,0.0,0.0,0.007593943740616095,0.03788817825971254,9.810712479204419,0.0,0.0,0.0,0.0,0.0,0.0,0.0,0.0,0.0
2025/05/25 17:16:51.916414755,1748186211,915112514,mA1/imu,0.9662915631584491,-0.2574486884875101,-0.0005881840428536972,0.0006646836793060026,0.0,0.0,0.0,0.0,0.0,0.0,0.0,0.0,0.0,0.0008680563792595903,-0.0005220900710995658,-0.0008470902833169987,0.0,0.0,0.0,0.0,0.0,0.0,0.0,0.0,0.0,0.008051690690312995,-0.5827146635736722,9.809725941772943,0.0,0.0,0.0,0.0,0.0,0.0,0.0,0.0,0.0
2025/05/25 17:16:51.976241413,1748186211,973411212,mA1/imu,0.9662970073346053,-0.25742821492471574,-0.0006021383539429827,0.0006672377858040891,0.0,0.0,0.0,0.0,0.0,0.0,0.0,0.0,0.0,-0.0007194164107546963,-0.0005120633096282416,-0.0008480364781500681,0.0,0.0,0.0,0.0,0.0,0.0,0.0,0.0,0.0,0.008259986123985917,-0.0630823194247691,9.81042149300394,0.0,0.0,0.0,0.0,0.0,0.0,0.0,0.0,0.0
2025/05/25 17:16:52.32188089,1748186212,23867768,mA1/imu,0.9663024620261073,-0.25740772408751283,-0.0006137346681046548,0.0006624138643716655,0.0,0.0,0.0,0.0,0.0,0.0,0.0,0.0,0.0,-0.0008440739010658062,-0.00047404438883658675,-0.0008489544532915499,0.0,0.0,0.0,0.0,0.0,0.0,0.0,0.0,0.0,0.007299009282965894,-0.06765820321950214,9.808975850050883,0.0,0.0,0.0,0.0,0.0,0.0,0.0,0.0,0.0
2025/05/25 17:16:52.68803493,1748186212,67587277,mA1/imu,0.9663079223674049,-0.25738721306476275,-0.000624137838543424,0.0006573984349963655,0.0,0.0,0.0,0.0,0.0,0.0,0.0,0.0,0.0,-0.0009906281760963939,-0.0004209008696166923,-0.000849770140894329,0.0,0.0,0.0,0.0,0.0,0.0,0.0,0.0,0.0,0.007643225569053599,0.5494412223987123,9.809821227920123,0.0,0.0,0.0,0.0,0.0,0.0,0.0,0.0,0.0
2025/05/25 17:16:52.120609960,1748186212,116991332,mA1/imu,0.9663133887636909,-0.25736668225238307,-0.0006326367278656772,0.0006521757457051815,0.0,0.0,0.0,0.0,0.0,0.0,0.0,0.0,0.0,0.000589408240287296,-0.000346795395168337,-0.0008504930282389484,0.0,0.0,0.0,0.0,0.0,0.0,0.0,0.0,0.0,0.007323699071652121,0.03032223112043499,9.810668484574755,0.0,0.0,0.0,0.0,0.0,0.0,0.0,0.0,0.0
2025/05/25 17:16:52.175857118,1748186212,172241876,mA1/imu,0.966318856007905,-0.2573461259298445,-0.0006409402310744938,0.0006551244876809555,0.0,0.0,0.0,0.0,0.0,0.0,0.0,0.0,0.0,0.0007082455040425881,-0.0002546887095441554,-0.0008512900465206382,0.0,0.0,0.0,0.0,0.0,0.0,0.0,0.0,0.0,0.0072724716216066715,0.03839342259774962,9.811001444372211,0.0,0.0,0.0,0.0,0.0,0.0,0.0,0.0,0.0
2025/05/25 17:16:52.225866554,1748186212,223054382,mA1/imu,0.9663243291524893,-0.2573255486887505,-0.000646798078856046,0.0006591906175044031,0.0,0.0,0.0,0.0,0.0,0.0,0.0,0.0,0.0,0.0008616565155594798,-0.0001509483237078103,-0.0008520097642945544,0.0,0.0,0.0,0.0,0.0,0.0,0.0,0.0,0.0,0.007690304642006393,-0.5824370456120238,9.809928701351664,0.0,0.0,0.0,0.0,0.0,0.0,0.0,0.0,0.0
2025/05/25 17:16:52.269742854,1748186212,267419471,mA1/imu,0.9663298086280762,-0.25730494908788054,-0.0006500384613082823,0.0006645161455623094,0.0,0.0,0.0,0.0,0.0,0.0,0.0,0.0,0.0,-0.0007095677872981244,-2.604938270829286e-05,-0.0008528852369961763,0.0,0.0,0.0,0.0,0.0,0.0,0.0,0.0,0.0,0.008155007926217707,-0.0629594729521861,9.810536721038927,0.0,0.0,0.0,0.0,0.0,0.0,0.0,0.0,0.0
2025/05/25 17:16:52.322866379,1748186212,320673946,mA1/imu,0.9663353003764673,-0.2572843321481344,-0.0006484883194732458,0.0006626766260298916,0.0,0.0,0.0,0.0,0.0,0.0,0.0,0.0,0.0,-0.000817370495101812,9.585340863276552e-05,-0.0008538723956494087,0.0,0.0,0.0,0.0,0.0,0.0,0.0,0.0,0.0,0.007209968862116714,-0.06757503908846293,9.80903165909829,0.0,0.0,0.0,0.0,0.0,0.0,0.0,0.0,0.0
2025/05/25 17:16:52.377235265,1748186212,375178315,mA1/imu,0.9663407999543723,-0.2572636914807239,-0.0006441571735754949,0.0006606442238455924,0.0,0.0,0.0,0.0,0.0,0.0,0.0,0.0,0.0,-0.0009478875659975293,0.00019521507782087734,-0.0008548918852668817,0.0,0.0,0.0,0.0,0.0,0.0,0.0,0.0,0.0,0.007797054892740905,0.5495447220900855,9.809788679360095,0.0,0.0,0.0,0.0,0.0,0.0,0.0,0.0,0.0
2025/05/25 17:16:52.417898034,1748186212,416490688,mA1/imu,0.9663463096787456,-0.25724301835975166,-0.0006372136028979842,0.0006582053315519441,0.0,0.0,0.0,0.0,0.0,0.0,0.0,0.0,0.0,0.0006462990284771681,0.0002803745592217953,-0.0008562574935576831,0.0,0.0,0.0,0.0,0.0,0.0,0.0,0.0,0.0,0.007536449314166367,0.030403507136659368,9.810579439658973,0.0,0.0,0.0,0.0,0.0,0.0,0.0,0.0,0.0
2025/05/25 17:16:52.470539343,1748186212,469227779,mA1/imu,0.966351828411518,-0.25722228951161924,-0.0006302273848081651,0.0006635642849603712,0.0,0.0,0.0,0.0,0.0,0.0,0.0,0.0,0.0,0.0007779894501552542,0.00035505535942502014,-0.0008606689419246728,0.0,0.0,0.0,0.0,0.0,0.0,0.0,0.0,0.0,0.006311254092838479,0.0393460028566119,9.810823482347281,0.0,0.0,0.0,0.0,0.0,0.0,0.0,0.0,0.0
2025/05/25 17:16:52.523373254,1748186212,520035828,mA1/imu,0.9663576597675898,-0.25720038522675504,-0.0006220572603641669,0.0006695464739265907,0.0,0.0,0.0,0.0,0.0,0.0,0.0,0.0,0.0,0.0009319264436136719,0.00038607067953953165,-0.0009306920548027903,0.0,0.0,0.0,0.0,0.0,0.0,0.0,0.0,0.0,0.006598671309505838,-0.5826380185635497,9.80974294463578,0.0,0.0,0.0,0.0,0.0,0.0,0.0,0.0,0.0
2025/05/25 17:16:52.582813678,1748186212,572411789,mA1/imu,0.9663634148160971,-0.2571787707732536,-0.0006100654617489222,0.000676896345375203,0.0,0.0,0.0,0.0,0.0,0.0,0.0,0.0,0.0,-0.000630637126677338,0.0006156020913062951,-0.0008712681949848691,0.0,0.0,0.0,0.0,0.0,0.0,0.0,0.0,0.0,0.0030568576639713706,-0.06362003382761078,9.810205794494097,0.0,0.0,0.0,0.0,0.0,0.0,0.0,0.0,0.0
2025/05/25 17:16:52.632639659,1748186212,623952440,mA1/imu,0.9663693693796765,-0.25715643469655264,-0.0005931002848984223,0.0006769423430673246,0.0,0.0,0.0,0.0,0.0,0.0,0.0,0.0,0.0,-0.0007324780748553998,0.0006579666790945737,-0.0009848063302194503,0.0,0.0,0.0,0.0,0.0,0.0,0.0,0.0,0.0,0.008237696883154786,-0.06783240267611221,9.808386896804116,0.0,0.0,0.0,0.0,0.0,0.0,0.0,0.0,0.0
2025/05/25 17:16:52.670637833,1748186212,669239954,mA1/imu,0.9663755163015286,-0.2571333807663423,-0.0005724577345589624,0.0006769643768364182,0.0,0.0,0.0,0.0,0.0,0.0,0.0,0.0,0.0,-0.0008550614380970675,0.0009046142729892456,-0.0009344289124030276,0.0,0.0,0.0,0.0,0.0,0.0,0.0,0.0,0.0,0.00025248403066409006,0.5504106603495096,9.809418818705362,0.0,0.0,0.0,0.0,0.0,0.0,0.0,0.0,0.0
2025/05/25 17:16:52.724898361,1748186212,723409860,mA1/imu,0.9663814991471539,-0.2571109495057152,-0.0005472757914742621,0.0006769339530503499,0.0,0.0,0.0,0.0,0.0,0.0,0.0,0.0,0.0,0.0007428791880606441,0.0010064769237553776,-0.0009324802830231964,0.0,0.0,0.0,0.0,0.0,0.0,0.0,0.0,0.0,0.0026645389334056567,0.03180150302074142,9.810286354580098,0.0,0.0,0.0,0.0,0.0,0.0,0.0,0.0,0.0
2025/05/25 17:16:52.768769164,1748186212,766375118,mA1/imu,0.9663875688422029,-0.25708816575009286,-0.0005229168837740715,0.0006843803343228594,0.0,0.0,0.0,0.0,0.0,0.0,0.0,0.0,0.0,0.0008753442271786906,0.0010136887561131922,-0.0009489207725039142,0.0,0.0,0.0,0.0,0.0,0.0,0.0,0.0,0.0,0.003167019453335416,0.03972927454592633,9.810540543399728,0.0,0.0,0.0,0.0,0.0,0.0,0.0,0.0,0.0
2025/05/25 17:16:52.818531848,1748186212,816999667,mA1/imu,0.9663937482247339,-0.2570649636649389,-0.0004991052779090221,0.0006919118549639173,0.0,0.0,0.0,0.0,0.0,0.0,0.0,0.0,0.0,0.0010344809529980912,0.0009621221023804332,-0.0009664070851698179,0.0,0.0,0.0,0.0,0.0,0.0,0.0,0.0,0.0,0.003953293111139544,-0.5812767784936741,9.809505851196976,0.0,0.0,0.0,0.0,0.0,0.0,0.0,0.0,0.0
2025/05/25 17:16:52.870027174,1748186212,868268734,mA1/imu,0.9664000381405947,-0.25704133747274727,-0.0004774072663093303,0.0006994243208298005,0.0,0.0,0.0,0.0,0.0,0.0,0.0,0.0,0.0,-0.0005394485591610865,0.0008659946556808453,-0.0009839337456870483,0.0,0.0,0.0,0.0,0.0,0.0,0.0,0.0,0.0,0.004822585114971417,-0.06187132155913748,9.810148346039382,0.0,0.0,0.0,0.0,0.0,0.0,0.0,0.0,0.0
2025/05/25 17:16:52.923246691,1748186212,917997058,mA1/imu,0.9664064196012774,-0.2570173834630175,-0.0004573438909012312,0.0006982748953578248,0.0,0.0,0.0,0.0,0.0,0.0,0.0,0.0,0.0,-0.0006591429787626568,0.0006973306829886433,-0.0009945899032587416,0.0,0.0,0.0,0.0,0.0,0.0,0.0,0.0,0.0,0.004247811999843916,-0.06659169492109042,9.80867732657179,0.0,0.0,0.0,0.0,0.0,0.0,0.0,0.0,0.0
2025/05/25 17:16:52.976141713,1748186212,973411846,mA1/imu,0.9664128510788434,-0.25699323371330557,-0.00044233266609601166,0.0006952963771242235,0.0,0.0,0.0,0.0,0.0,0.0,0.0,0.0,0.0,-0.000810188364724675,0.0004619645843358583,-0.001001635044704831,0.0,0.0,0.0,0.0,0.0,0.0,0.0,0.0,0.0,0.005683684112075558,0.5503412617653416,9.809479930480352,0.0,0.0,0.0,0.0,0.0,0.0,0.0,0.0,0.0
2025/05/25 17:16:53.26507535,1748186213,22599165,mA1/imu,0.9664194511802517,-0.25696844185523526,-0.00043426452962765105,0.0006896994068493232,0.0,0.0,0.0,0.0,0.0,0.0,0.0,0.0,0.0,0.0007719371443562533,0.0001223729302847302,-0.0010457868938836552,0.0,0.0,0.0,0.0,0.0,0.0,0.0,0.0,0.0,0.007014050037637023,0.032322597346601784,9.810582404212393,0.0,0.0,0.0,0.0,0.0,0.0,0.0,0.0,0.0
2025/05/25 17:16:53.67953082,1748186213,65215009,mA1/imu,0.9664262118374569,-0.2569430107156124,-0.0004359415361051344,0.0006901252613941393,0.0,0.0,0.0,0.0,0.0,0.0,0.0,0.0,0.0,0.0008625487384421818,-0.00018472237293248558,-0.0010571088782183838,0.0,0.0,0.0,0.0,0.0,0.0,0.0,0.0,0.0,0.006121942883022147,0.03933638948717601,9.810708380783018,0.0,0.0,0.0,0.0,0.0,0.0,0.0,0.0,0.0
2025/05/25 17:16:53.117887315,1748186213,116690094,mA1/imu,0.9664323555192816,-0.2569198906730567,-0.0004411935998086943,0.0006908908777367102,0.0,0.0,0.0,0.0,0.0,0.0,0.0,0.0,0.0,0.0009826528222325569,-0.00024055020037474595,-0.0009014713713673536,0.0,0.0,0.0,0.0,0.0,0.0,0.0,0.0,0.0,0.00482396222268242,-0.5813681428633433,9.809688370169061,0.0,0.0,0.0,0.0,0.0,0.0,0.0,0.0,0.0
2025/05/25 17:16:53.171308747,1748186213,169209457,mA1/imu,0.9664381554569523,-0.25689805204869987,-0.0004518989967054139,0.0006916052660332433,0.0,0.0,0.0,0.0,0.0,0.0,0.0,0.0,0.0,-0.0006216673769738781,-0.0005244752171826624,-0.0009054264002664116,0.0,0.0,0.0,0.0,0.0,0.0,0.0,0.0,0.0,0.007706601189681509,-0.06208984453365832,9.810438070160437,0.0,0.0,0.0,0.0,0.0,0.0,0.0,0.0,0.0
2025/05/25 17:16:53.224866576,1748186213,222810527,mA1/imu,0.9664439796583671,-0.2568761345168564,-0.0004674574876853201,0.0006835066003707259,0.0,0.0,0.0,0.0,0.0,0.0,0.0,0.0,0.0,-0.0007661896649745429,-0.0007747859804682419,-0.0009090082003678986,0.0,0.0,0.0,0.0,0.0,0.0,0.0,0.0,0.0,0.006176474713535306,-0.06659930131275034,9.8089998825532,0.0,0.0,0.0,0.0,0.0,0.0,0.0,0.0,0.0
2025/05/25 17:16:53.281141315,1748186213,274115976,mA1/imu,0.9664498208370035,-0.256854143031528,-0.0004886413972586603,0.0006739742192633446,0.0,0.0,0.0,0.0,0.0,0.0,0.0,0.0,0.0,-0.0009358354848489192,-0.0009864851893808832,-0.0009122487468087308,0.0,0.0,0.0,0.0,0.0,0.0,0.0,0.0,0.0,0.0062761227429303686,0.5504569744283798,9.80984698446978,0.0,0.0,0.0,0.0,0.0,0.0,0.0,0.0,0.0
2025/05/25 17:16:53.318944149,1748186213,316934788,mA1/imu,0.9664556537127508,-0.2568321729461733,-0.0005142585833711774,0.0006632379029256878,0.0,0.0,0.0,0.0,0.0,0.0,0.0,0.0,0.0,0.0006153864656602184,-0.0011590369731922703,-0.0009091083122533245,0.0,0.0,0.0,0.0,0.0,0.0,0.0,0.0,0.0,0.006462298865339758,0.030901773280346802,9.810725598147208,0.0,0.0,0.0,0.0,0.0,0.0,0.0,0.0,0.0
2025/05/25 17:16:53.376465475,1748186213,369600447,mA1/imu,0.9664614566092797,-0.2568102805510882,-0.0005450503552214764,0.0006600091293806244,0.0,0.0,0.0,0.0,0.0,0.0,0.0,0.0,0.0,0.0007042822053271681,-0.0012594400575198124,-0.0009055934646580388,0.0,0.0,0.0,0.0,0.0,0.0,0.0,0.0,0.0,0.006003593686318624,0.03896886252874736,9.811072683139848,0.0,0.0,0.0,0.0,0.0,0.0,0.0,0.0,0.0
2025/05/25 17:16:53.429398912,1748186213,422416022,mA1/imu,0.9664672779816744,-0.2567883066656484,-0.0005777981578710912,0.0006574950727717676,0.0,0.0,0.0,0.0,0.0,0.0,0.0,0.0,0.0,0.0008288596293599206,-0.0013418976169028776,-0.0009259359897438713,0.0,0.0,0.0,0.0,0.0,0.0,0.0,0.0,0.0,0.01033558052973769,-0.581237036783097,9.809954820300046,0.0,0.0,0.0,0.0,0.0,0.0,0.0,0.0,0.0
2025/05/25 17:16:53.470106764,1748186213,467347380,mA1/imu,0.9664732787254038,-0.2567656463802768,-0.0006117240852835802,0.0006558523690847622,0.0,0.0,0.0,0.0,0.0,0.0,0.0,0.0,0.0,-0.0007662065933272765,-0.0013155963623118394,-0.0009410879853205323,0.0,0.0,0.0,0.0,0.0,0.0,0.0,0.0,0.0,0.00768938514559404,-0.06255791867967224,9.81066051589112,0.0,0.0,0.0,0.0,0.0,0.0,0.0,0.0,0.0
2025/05/25 17:16:53.537825830,1748186213,528401586,mA1/imu,0.9664793162833858,-0.2567428668509185,-0.0006421752664696248,0.0006474013421486589,0.0,0.0,0.0,0.0,0.0,0.0,0.0,0.0,0.0,-0.0009007992622832516,-0.001209035244259032,-0.0009451651486938188,0.0,0.0,0.0,0.0,0.0,0.0,0.0,0.0,0.0,0.006224764173247082,-0.06704266584373265,9.809143869589663,0.0,0.0,0.0,0.0,0.0,0.0,0.0,0.0,0.0
2025/05/25 17:16:53.577963489,1748186213,570832340,mA1/imu,0.9664853795134045,-0.25671999491908115,-0.0006689905448440803,0.0006386291789262884,0.0,0.0,0.0,0.0,0.0,0.0,0.0,0.0,0.0,-0.001027631908098548,-0.0010457681992861437,-0.0009490371455392537,0.0,0.0,0.0,0.0,0.0,0.0,0.0,0.0,0.0,0.006403692953255961,0.5518478219616134,9.809813457807735,0.0,0.0,0.0,0.0,0.0,0.0,0.0,0.0,0.0
2025/05/25 17:16:53.620810339,1748186213,615890672,mA1/imu,0.9664914679274795,-0.25669703289695023,-0.0006909339226342558,0.0006311383383342612,0.0,0.0,0.0,0.0,0.0,0.0,0.0,0.0,0.0,0.0005334036184882698,-0.0008294025020079145,-0.0009525969226285374,0.0,0.0,0.0,0.0,0.0,0.0,0.0,0.0,0.0,0.006129970431023226,0.03162054331832032,9.810691838621414,0.0,0.0,0.0,0.0,0.0,0.0,0.0,0.0,0.0
2025/05/25 17:16:53.672084522,1748186213,670148462,mA1/imu,0.9664975767399508,-0.256673977428586,-0.0007089315953880841,0.0006331530505897766,0.0,0.0,0.0,0.0,0.0,0.0,0.0,0.0,0.0,0.0006425491360843507,-0.0005707244576652145,-0.0009559148808170418,0.0,0.0,0.0,0.0,0.0,0.0,0.0,0.0,0.0,0.005997375288216228,0.03923297232773884,9.810937128995134,0.0,0.0,0.0,0.0,0.0,0.0,0.0,0.0,0.0
2025/05/25 17:16:53.724137067,1748186213,719461504,mA1/imu,0.9665037076138823,-0.25665084815580536,-0.0007203176541695762,0.0006375358828056756,0.0,0.0,0.0,0.0,0.0,0.0,0.0,0.0,0.0,0.0007915709635238936,-0.00029264116804553534,-0.0009578972617485504,0.0,0.0,0.0,0.0,0.0,0.0,0.0,0.0,0.0,0.007148593899709583,-0.5819365911939017,9.80985534784107,0.0,0.0,0.0,0.0,0.0,0.0,0.0,0.0,0.0
2025/05/25 17:16:53.771459916,1748186213,767316226,mA1/imu,0.966509859081222,-0.2566276521718096,-0.000724744587403796,0.0006443484027929063,0.0,0.0,0.0,0.0,0.0,0.0,0.0,0.0,0.0,-0.000779953277676449,1.4161938165733866e-05,-0.0009606563560459634,0.0,0.0,0.0,0.0,0.0,0.0,0.0,0.0,0.0,0.007708966498685488,-0.06260329534143609,9.810234900317091,0.0,0.0,0.0,0.0,0.0,0.0,0.0,0.0,0.0
2025/05/25 17:16:53.822230627,1748186213,817918504,mA1/imu,0.9665160375307548,-0.2566043931257853,-0.000720095981039236,0.0006450474201528883,0.0,0.0,0.0,0.0,0.0,0.0,0.0,0.0,0.0,-0.0008828398306266459,0.00031188501254837534,-0.0009637080476427834,0.0,0.0,0.0,0.0,0.0,0.0,0.0,0.0,0.0,0.006149856683945909,-0.06710484604798272,9.808681280040098,0.0,0.0,0.0,0.0,0.0,0.0,0.0,0.0,0.0
2025/05/25 17:16:53.887547768,1748186213,870799382,mA1/imu,0.9665222393497022,-0.2565810607431155,-0.000708663440286904,0.0006464568843628908,0.0,0.0,0.0,0.0,0.0,0.0,0.0,0.0,0.0,-0.0010051975447939426,0.0005678081724838285,-0.0009667965407740062,0.0,0.0,0.0,0.0,0.0,0.0,0.0,0.0,0.0,0.006931260934364998,0.5499592724579266,9.809358345179941,0.0,0.0,0.0,0.0,0.0,0.0,0.0,0.0,0.0
2025/05/25 17:16:53.933025548,1748186213,924044821,mA1/imu,0.9665284655564799,-0.25655764945914905,-0.0006911270877425049,0.000648163854014255,0.0,0.0,0.0,0.0,0.0,0.0,0.0,0.0,0.0,0.0005997395878327602,0.0007843980341995951,-0.0009700298800482284,0.0,0.0,0.0,0.0,0.0,0.0,0.0,0.0,0.0,0.006752896002203359,0.030740177359356725,9.810318949607707,0.0,0.0,0.0,0.0,0.0,0.0,0.0,0.0,0.0
2025/05/25 17:16:53.971218294,1748186213,968895154,mA1/imu,0.9665347106486227,-0.2565341497420705,-0.0006708195431317433,0.0006581250918074406,0.0,0.0,0.0,0.0,0.0,0.0,0.0,0.0,0.0,0.0007409135636486173,0.0009451497095407279,-0.0009731771607907936,0.0,0.0,0.0,0.0,0.0,0.0,0.0,0.0,0.0,0.007160253333482537,0.03878879269836716,9.810594662524053,0.0,0.0,0.0,0.0,0.0,0.0,0.0,0.0,0.0
2025/05/25 17:16:54.25306743,1748186214,21347542,mA1/imu,0.9665409791757558,-0.25651056377104464,-0.000647214416183713,0.0006688507542627724,0.0,0.0,0.0,0.0,0.0,0.0,0.0,0.0,0.0,0.0009151066615342891,0.0010476957350940494,-0.000976345974708835,0.0,0.0,0.0,0.0,0.0,0.0,0.0,0.0,0.0,0.008484572948740492,-0.5820694173869273,9.809555952479787,0.0,0.0,0.0,0.0,0.0,0.0,0.0,0.0,0.0
2025/05/25 17:16:54.75042662,1748186214,68114818,mA1/imu,0.9665472706365167,-0.2564868892645142,-0.0006218997577873753,0.000680074410911021,0.0,0.0,0.0,0.0,0.0,0.0,0.0,0.0,0.0,-0.0006389933401627487,0.0011037851506809208,-0.0009803643909619868,0.0,0.0,0.0,0.0,0.0,0.0,0.0,0.0,0.0,0.009187885478206575,-0.06279450531740596,9.81001359197487,0.0,0.0,0.0,0.0,0.0,0.0,0.0,0.0,0.0
2025/05/25 17:16:54.120461314,1748186214,115227941,mA1/imu,0.9665535965536605,-0.2564631070160979,-0.0005942729222790438,0.0006830582162794478,0.0,0.0,0.0,0.0,0.0,0.0,0.0,0.0,0.0,-0.0007321746434003843,0.0010986406758694697,-0.0009856368700371892,0.0,0.0,0.0,0.0,0.0,0.0,0.0,0.0,0.0,0.007540544823642064,-0.06724776688066039,9.808536585697365,0.0,0.0,0.0,0.0,0.0,0.0,0.0,0.0,0.0
2025/05/25 17:16:54.173225825,1748186214,165999895,mA1/imu,0.9665599528083513,-0.2564392065929946,-0.0005677973408666722,0.0006845109587854098,0.0,0.0,0.0,0.0,0.0,0.0,0.0,0.0,0.0,-0.0008520934121089241,0.0010097652020023995,-0.000990599067423492,0.0,0.0,0.0,0.0,0.0,0.0,0.0,0.0,0.0,0.008426391512430364,0.5498183984423509,9.809331153558173,0.0,0.0,0.0,0.0,0.0,0.0,0.0,0.0,0.0
2025/05/25 17:16:54.226181116,1748186214,219628613,mA1/imu,0.9665664567658594,-0.2564147438909141,-0.0005441158623885296,0.0006838920802837258,0.0,0.0,0.0,0.0,0.0,0.0,0.0,0.0,0.0,0.000754549838000132,0.000817601348611099,-0.0010549025875588882,0.0,0.0,0.0,0.0,0.0,0.0,0.0,0.0,0.0,0.013050035256366218,0.029136454273472678,9.81110427143487,0.0,0.0,0.0,0.0,0.0,0.0,0.0,0.0,0.0
2025/05/25 17:16:54.284453541,1748186214,274627041,mA1/imu,0.9665734462824821,-0.2563884156304466,-0.000527286794596369,0.0006893770748130717,0.0,0.0,0.0,0.0,0.0,0.0,0.0,0.0,0.0,0.0008717776877170657,0.0006891704954482298,-0.001071887284571425,0.0,0.0,0.0,0.0,0.0,0.0,0.0,0.0,0.0,0.002176383022486546,0.03829912185282881,9.811260759512814,0.0,0.0,0.0,0.0,0.0,0.0,0.0,0.0,0.0
2025/05/25 17:16:54.328022930,1748186214,326638626,mA1/imu,0.9665805030471468,-0.2563618288650473,-0.0005109871716674635,0.0006947821263750809,0.0,0.0,0.0,0.0,0.0,0.0,0.0,0.0,0.0,0.0010418575320729922,0.0006255280917859254,-0.0011598489996823994,0.0,0.0,0.0,0.0,0.0,0.0,0.0,0.0,0.0,0.008121714149673082,-0.5822079162005623,9.80978894822931,0.0,0.0,0.0,0.0,0.0,0.0,0.0,0.0,0.0
2025/05/25 17:16:54.373013012,1748186214,370310028,mA1/imu,0.9665886352789238,-0.25633117824320345,-0.0004977703775276507,0.0006995961193930762,0.0,0.0,0.0,0.0,0.0,0.0,0.0,0.0,0.0,-0.000524476019214623,0.0005432990427516963,-0.0013118572852585343,0.0,0.0,0.0,0.0,0.0,0.0,0.0,0.0,0.0,-0.001947692765059893,-0.061983102508516644,9.810232309071276,0.0,0.0,0.0,0.0,0.0,0.0,0.0,0.0,0.0
2025/05/25 17:16:54.426220239,1748186214,421540206,mA1/imu,0.9665969959220395,-0.25629968773000245,-0.0004812130454319554,0.0006971212210517668,0.0,0.0,0.0,0.0,0.0,0.0,0.0,0.0,0.0,-0.0006356644934383566,0.0006631693435058603,-0.0012995931599669621,0.0,0.0,0.0,0.0,0.0,0.0,0.0,0.0,0.0,-0.002752617629134921,-0.0664412221177635,9.8087988693455,0.0,0.0,0.0,0.0,0.0,0.0,0.0,0.0,0.0
2025/05/25 17:16:54.477765892,1748186214,474787646,mA1/imu,0.966605232398915,-0.25626866555084954,-0.0004624020054219386,0.0006942191381738862,0.0,0.0,0.0,0.0,0.0,0.0,0.0,0.0,0.0,-0.0007655732238746323,0.0007364366480943064,-0.0012737629104887824,0.0,0.0,0.0,0.0,0.0,0.0,0.0,0.0,0.0,-0.002203057443163331,0.5509982605506466,9.809580318562844,0.0,0.0,0.0,0.0,0.0,0.0,0.0,0.0,0.0
2025/05/25 17:16:54.527505925,1748186214,521863636,mA1/imu,0.9666132894948546,-0.25623831857751944,-0.00044213682473286635,0.000690781825203835,0.0,0.0,0.0,0.0,0.0,0.0,0.0,0.0,0.0,0.0008202535514854261,0.0007751975321200852,-0.0012385624095556363,0.0,0.0,0.0,0.0,0.0,0.0,0.0,0.0,0.0,-0.004573537757917981,0.03177100904412289,9.811174139283757,0.0,0.0,0.0,0.0,0.0,0.0,0.0,0.0,0.0
2025/05/25 17:16:54.573553255,1748186214,566072871,mA1/imu,0.9666212249152454,-0.2562084010411743,-0.0004241824887669995,0.0006948730038382856,0.0,0.0,0.0,0.0,0.0,0.0,0.0,0.0,0.0,0.000932134134735574,0.0006858522974675241,-0.0012478366104660087,0.0,0.0,0.0,0.0,0.0,0.0,0.0,0.0,0.0,-0.00022345534616362555,0.040711905644347846,9.811008255090233,0.0,0.0,0.0,0.0,0.0,0.0,0.0,0.0,0.0
2025/05/25 17:16:54.622636886,1748186214,621307874,mA1/imu,0.9666293409902095,-0.2561777918556486,-0.0004096657767983434,0.0006987637288526706,0.0,0.0,0.0,0.0,0.0,0.0,0.0,0.0,0.0,0.001071894994770307,0.000520940604988689,-0.0012780763043908814,0.0,0.0,0.0,0.0,0.0,0.0,0.0,0.0,0.0,0.0014971324864192113,-0.5802136171265249,9.809943100560687,0.0,0.0,0.0,0.0,0.0,0.0,0.0,0.0,0.0
2025/05/25 17:16:54.670953257,1748186214,664851102,mA1/imu,0.9666376454294672,-0.2561464603236967,-0.0003997539817415109,0.0007024948190629366,0.0,0.0,0.0,0.0,0.0,0.0,0.0,0.0,0.0,-0.000524303307339818,0.00033867260111841745,-0.001307748245361683,0.0,0.0,0.0,0.0,0.0,0.0,0.0,0.0,0.0,0.0022410002630979435,-0.060920017659093564,9.810388292700665,0.0,0.0,0.0,0.0,0.0,0.0,0.0,0.0,0.0
2025/05/25 17:16:54.726253256,1748186214,721679974,mA1/imu,0.9666461373761938,-0.2561144350461933,-0.0003930772082950291,0.0006976725322813638,0.0,0.0,0.0,0.0,0.0,0.0,0.0,0.0,0.0,-0.0006640877681544778,0.000132001353473278,-0.0013365559180792026,0.0,0.0,0.0,0.0,0.0,0.0,0.0,0.0,0.0,0.0006061772798782563,-0.06535054542735635,9.80887298725345,0.0,0.0,0.0,0.0,0.0,0.0,0.0,0.0,0.0
2025/05/25 17:16:54.775879316,1748186214,773426296,mA1/imu,0.9666548051595593,-0.25608173694395564,-0.0003919333826472906,0.000691414437805554,0.0,0.0,0.0,0.0,0.0,0.0,0.0,0.0,0.0,-0.00083436265817266,-0.00010152085920332847,-0.0013642774584818821,0.0,0.0,0.0,0.0,0.0,0.0,0.0,0.0,0.0,0.0012546767841454575,0.5516296605355938,9.80965854171684,0.0,0.0,0.0,0.0,0.0,0.0,0.0,0.0,0.0
2025/05/25 17:16:54.816633127,1748186214,814932640,mA1/imu,0.9666636427047308,-0.2560483886666435,-0.000396297907598487,0.0006837265567476767,0.0,0.0,0.0,0.0,0.0,0.0,0.0,0.0,0.0,0.0007153395424573775,-0.0003327673089185489,-0.0013910598784825567,0.0,0.0,0.0,0.0,0.0,0.0,0.0,0.0,0.0,0.00045698408686626474,0.032346141629666994,9.810613850456143,0.0,0.0,0.0,0.0,0.0,0.0,0.0,0.0,0.0
2025/05/25 17:16:54.873500838,1748186214,867303996,mA1/imu,0.9666726379866093,-0.2560144093187695,-0.00040811514744440653,0.0006831040900727401,0.0,0.0,0.0,0.0,0.0,0.0,0.0,0.0,0.0,0.0007960941625369987,-0.0005491234582309344,-0.0014166389321609253,0.0,0.0,0.0,0.0,0.0,0.0,0.0,0.0,0.0,0.0003938952760262626,0.04035395372207284,9.810887070555324,0.0,0.0,0.0,0.0,0.0,0.0,0.0,0.0,0.0
2025/05/25 17:16:54.919812414,1748186214,917897425,mA1/imu,0.9666817905911462,-0.2559798217539841,-0.00042492369329791236,0.0006826669383773621,0.0,0.0,0.0,0.0,0.0,0.0,0.0,0.0,0.0,0.0009077456748026544,-0.0007377961339228509,-0.0014412172273920235,0.0,0.0,0.0,0.0,0.0,0.0,0.0,0.0,0.0,0.002245263492343108,-0.5805838838493267,9.809736373758227,0.0,0.0,0.0,0.0,0.0,0.0,0.0,0.0,0.0
2025/05/25 17:16:54.972603511,1748186214,969160175,mA1/imu,0.9666910951641865,-0.25594464533290906,-0.00044590537327730714,0.0006828060304561972,0.0,0.0,0.0,0.0,0.0,0.0,0.0,0.0,0.0,-0.0007087261008916087,-0.000864783143066243,-0.001465335264965107,0.0,0.0,0.0,0.0,0.0,0.0,0.0,0.0,0.0,0.0025229103602538386,-0.06120195000374782,9.810226377423849,0.0,0.0,0.0,0.0,0.0,0.0,0.0,0.0,0.0
2025/05/25 17:16:55.22005986,1748186215,19107553,mA1/imu,0.9667005521336481,-0.2559089045623774,-0.0004678871244227182,0.0006753901263659801,0.0,0.0,0.0,0.0,0.0,0.0,0.0,0.0,0.0,-0.0008612174224620189,-0.0009478441094817748,-0.0014888057876379225,0.0,0.0,0.0,0.0,0.0,0.0,0.0,0.0,0.0,0.0008286211984547863,-0.06558514095260176,9.808695457278175,0.0,0.0,0.0,0.0,0.0,0.0,0.0,0.0,0.0
2025/05/25 17:16:55.72833045,1748186215,70407041,mA1/imu,0.9667101519871598,-0.2558726139952721,-0.0004915035316385401,0.0006677398200057407,0.0,0.0,0.0,0.0,0.0,0.0,0.0,0.0,0.0,-0.0010348502256590023,-0.00099345253438548,-0.0015114540970487683,0.0,0.0,0.0,0.0,0.0,0.0,0.0,0.0,0.0,0.0011392729818710048,0.5514114920601587,9.809574453076072,0.0,0.0,0.0,0.0,0.0,0.0,0.0,0.0,0.0
2025/05/25 17:16:55.125177652,1748186215,122005093,mA1/imu,0.9667198913236671,-0.25583578823454856,-0.0005153684394635096,0.0006599794969137829,0.0,0.0,0.0,0.0,0.0,0.0,0.0,0.0,0.0,0.0005209295885427808,-0.0009898133922769203,-0.0015334510948652774,0.0,0.0,0.0,0.0,0.0,0.0,0.0,0.0,0.0,0.0002069155887118061,0.03212445390277925,9.81046492754614,0.0,0.0,0.0,0.0,0.0,0.0,0.0,0.0,0.0
2025/05/25 17:16:55.179108679,1748186215,174696393,mA1/imu,0.9667297615104538,-0.2557984357689894,-0.000540383818055048,0.0006606462050765598,0.0,0.0,0.0,0.0,0.0,0.0,0.0,0.0,0.0,0.0006176635139006982,-0.0009362808314228312,-0.001554616258848032,0.0,0.0,0.0,0.0,0.0,0.0,0.0,0.0,0.0,9.621195670997135e-05,0.0401588894146578,9.810770791273141,0.0,0.0,0.0,0.0,0.0,0.0,0.0,0.0,0.0
2025/05/25 17:16:55.217800775,1748186215,216692729,mA1/imu,0.9667397653256404,-0.2557605703157203,-0.0005634622691469299,0.0006628123220892965,0.0,0.0,0.0,0.0,0.0,0.0,0.0,0.0,0.0,0.0007531603037030034,-0.0008385017850972519,-0.0015751650978420649,0.0,0.0,0.0,0.0,0.0,0.0,0.0,0.0,0.0,0.0021126320642101864,-0.5807950015859991,9.809569675986667,0.0,0.0,0.0,0.0,0.0,0.0,0.0,0.0,0.0
2025/05/25 17:16:55.269110277,1748186215,268045499,mA1/imu,0.9667499008391603,-0.255722201110491,-0.0005835693247686478,0.0006667334717894452,0.0,0.0,0.0,0.0,0.0,0.0,0.0,0.0,0.0,-0.0008326990766310148,-0.0006783470392206248,-0.0015957721238708301,0.0,0.0,0.0,0.0,0.0,0.0,0.0,0.0,0.0,0.0025316857999073033,-0.06135808428418738,9.810173581161,0.0,0.0,0.0,0.0,0.0,0.0,0.0,0.0,0.0
2025/05/25 17:16:55.325760050,1748186215,322569521,mA1/imu,0.9667600114736314,-0.2556839494998907,-0.0005978642011363552,0.0006638840549841958,0.0,0.0,0.0,0.0,0.0,0.0,0.0,0.0,0.0,-0.0009296703895532892,-0.0004998196036882719,-0.0015366159623849724,0.0,0.0,0.0,0.0,0.0,0.0,0.0,0.0,0.0,0.0020747056693237956,-0.0604028057293717,9.807418032536404,0.0,0.0,0.0,0.0,0.0,0.0,0.0,0.0,0.0
2025/05/25 17:16:55.368558330,1748186215,366801578,mA1/imu,0.9667697659040468,-0.2556470478593672,-0.0006080625350054754,0.0006609951425240846,0.0,0.0,0.0,0.0,0.0,0.0,0.0,0.0,0.0,-0.0010679582564620301,-0.00034561020493149527,-0.0015289631011696635,0.0,0.0,0.0,0.0,0.0,0.0,0.0,0.0,0.0,0.0023160282271551397,0.5505847688824672,9.809725594697754,0.0,0.0,0.0,0.0,0.0,0.0,0.0,0.0,0.0
2025/05/25 17:16:55.416494519,1748186215,414323037,mA1/imu,0.9667797341371901,-0.25560933977677575,-0.0006150348038963243,0.0006578850165342594,0.0,0.0,0.0,0.0,0.0,0.0,0.0,0.0,0.0,0.0005366243299202033,-0.0002753310291561273,-0.00159918395479529,0.0,0.0,0.0,0.0,0.0,0.0,0.0,0.0,0.0,0.006387190341412741,0.033038923183005456,9.811207406018509,0.0,0.0,0.0,0.0,0.0,0.0,0.0,0.0,0.0
2025/05/25 17:16:55.468744051,1748186215,466285690,mA1/imu,0.9667899943984027,-0.25557050243856544,-0.0006212806796064106,0.0006625894301321334,0.0,0.0,0.0,0.0,0.0,0.0,0.0,0.0,0.0,0.0006658659050260069,-0.00014009353425941691,-0.0016121688278322014,0.0,0.0,0.0,0.0,0.0,0.0,0.0,0.0,0.0,0.0028784084970126106,0.03923206714372557,9.810972496742725,0.0,0.0,0.0,0.0,0.0,0.0,0.0,0.0,0.0
2025/05/25 17:16:55.520668835,1748186215,517936240,mA1/imu,0.9668003388000761,-0.25553134577269193,-0.0006240528443952652,0.0006684173115788393,0.0,0.0,0.0,0.0,0.0,0.0,0.0,0.0,0.0,0.0008310917696383784,-4.57666285220362e-06,-0.0016248441638568201,0.0,0.0,0.0,0.0,0.0,0.0,0.0,0.0,0.0,0.004935608553398595,-0.5816858778441228,9.80974385982352,0.0,0.0,0.0,0.0,0.0,0.0,0.0,0.0,0.0
2025/05/25 17:16:55.572086787,1748186215,569956846,mA1/imu,0.9668107663336778,-0.25549187305980225,-0.0006234848622138976,0.0006754023299093051,0.0,0.0,0.0,0.0,0.0,0.0,0.0,0.0,0.0,-0.000729456837403118,0.00014416929999501828,-0.0016377851313402077,0.0,0.0,0.0,0.0,0.0,0.0,0.0,0.0,0.0,0.005568486611635368,-0.06219974916813856,9.810421274324009,0.0,0.0,0.0,0.0,0.0,0.0,0.0,0.0,0.0
2025/05/25 17:16:55.623231938,1748186215,620537018,mA1/imu,0.9668212809952914,-0.2554520960200434,-0.000617752867591491,0.0006750073963058272,0.0,0.0,0.0,0.0,0.0,0.0,0.0,0.0,0.0,-0.0008266177061209481,0.00027727502677911875,-0.0016506591835833396,0.0,0.0,0.0,0.0,0.0,0.0,0.0,0.0,0.0,0.003840860784012863,-0.06654628863564116,9.808934064286424,0.0,0.0,0.0,0.0,0.0,0.0,0.0,0.0,0.0
2025/05/25 17:16:55.676140932,1748186215,672468914,mA1/imu,0.9668318760551975,-0.2554120167132993,-0.0006091281437737572,0.0006738879260744176,0.0,0.0,0.0,0.0,0.0,0.0,0.0,0.0,0.0,-0.0009399703226680652,0.0003693403628224397,-0.001662888380295364,0.0,0.0,0.0,0.0,0.0,0.0,0.0,0.0,0.0,0.004767015048559904,0.5508283544982865,9.809903446031019,0.0,0.0,0.0,0.0,0.0,0.0,0.0,0.0,0.0
2025/05/25 17:16:55.723478247,1748186215,722633552,mA1/imu,0.9668425419674875,-0.2553716690444604,-0.0005983010671412343,0.0006721064844684142,0.0,0.0,0.0,0.0,0.0,0.0,0.0,0.0,0.0,0.0006617632127847569,0.0004292794726541533,-0.0016735382452969661,0.0,0.0,0.0,0.0,0.0,0.0,0.0,0.0,0.0,0.003935657106183066,0.031303235260360725,9.810741764324225,0.0,0.0,0.0,0.0,0.0,0.0,0.0,0.0,0.0
2025/05/25 17:16:55.769183914,1748186215,766193829,mA1/imu,0.966853268643372,-0.2553310627118229,-0.0005882036015251655,0.0006777496603496528,0.0,0.0,0.0,0.0,0.0,0.0,0.0,0.0,0.0,0.0007999344839404712,0.00045472294426057074,-0.0016837905588387783,0.0,0.0,0.0,0.0,0.0,0.0,0.0,0.0,0.0,0.004254504316386403,0.03922221135547414,9.811056156106886,0.0,0.0,0.0,0.0,0.0,0.0,0.0,0.0,0.0
2025/05/25 17:16:55.820004286,1748186215,818520929,mA1/imu,0.9668640594917225,-0.2552902064066762,-0.0005777056016864664,0.0006835438986467427,0.0,0.0,0.0,0.0,0.0,0.0,0.0,0.0,0.0,0.0009693583325580739,0.0004497002049009679,-0.00169369325705595,0.0,0.0,0.0,0.0,0.0,0.0,0.0,0.0,0.0,0.006339231836224102,-0.5817723273858382,9.809779860865305,0.0,0.0,0.0,0.0,0.0,0.0,0.0,0.0,0.0
2025/05/25 17:16:55.872954794,1748186215,869980140,mA1/imu,0.9668749126271238,-0.2552491052675899,-0.0005676346385318036,0.0006894804592317454,0.0,0.0,0.0,0.0,0.0,0.0,0.0,0.0,0.0,-0.0005932393934773778,0.0004337289522087097,-0.001703744194078536,0.0,0.0,0.0,0.0,0.0,0.0,0.0,0.0,0.0,0.007017797792690963,-0.06235754928532282,9.810361578625415,0.0,0.0,0.0,0.0,0.0,0.0,0.0,0.0,0.0
2025/05/25 17:16:55.921570378,1748186215,920024415,mA1/imu,0.9668858322165543,-0.25520776948338114,-0.0005566087511918466,0.0006870523392199969,0.0,0.0,0.0,0.0,0.0,0.0,0.0,0.0,0.0,-0.0006974549298394731,0.00038995916485587575,-0.0017138846782541767,0.0,0.0,0.0,0.0,0.0,0.0,0.0,0.0,0.0,0.005226788833391409,-0.06666954226748155,9.808831223381114,0.0,0.0,0.0,0.0,0.0,0.0,0.0,0.0,0.0
2025/05/25 17:16:55.976292496,1748186215,974278050,mA1/imu,0.9668968120898768,-0.25516619795289297,-0.0005471439550661023,0.0006832468007936952,0.0,0.0,0.0,0.0,0.0,0.0,0.0,0.0,0.0,-0.0008302013159401889,0.00030366226515640265,-0.001723690583078301,0.0,0.0,0.0,0.0,0.0,0.0,0.0,0.0,0.0,0.005913797666456235,0.5502821280626876,9.80977466445,0.0,0.0,0.0,0.0,0.0,0.0,0.0,0.0,0.0
2025/05/25 17:16:56.16332577,1748186216,14000391,mA1/imu,0.9669078501421507,-0.25512439807111076,-0.0005396792311083399,0.0006779296901401012,0.0,0.0,0.0,0.0,0.0,0.0,0.0,0.0,0.0,0.0007582161666885202,0.00019780666746093052,-0.0017331721757269502,0.0,0.0,0.0,0.0,0.0,0.0,0.0,0.0,0.0,0.005020109069179475,0.031039191333277413,9.8105825550087,0.0,0.0,0.0,0.0,0.0,0.0,0.0,0.0,0.0
2025/05/25 17:16:56.70657830,1748186216,67077717,mA1/imu,0.9669189381380224,-0.25508237342397855,-0.0005368088811542755,0.0006794664482621589,0.0,0.0,0.0,0.0,0.0,0.0,0.0,0.0,0.0,0.0008766706574840536,7.636844901696375e-05,-0.001742099417222124,0.0,0.0,0.0,0.0,0.0,0.0,0.0,0.0,0.0,0.005135712901459278,0.03906134387282491,9.81085255978255,0.0,0.0,0.0,0.0,0.0,0.0,0.0,0.0,0.0
2025/05/25 17:16:56.121777573,1748186216,119474202,mA1/imu,0.9669300789810181,-0.25504013520643526,-0.0005368846717958657,0.0006808454262357462,0.0,0.0,0.0,0.0,0.0,0.0,0.0,0.0,0.0,0.0010225105877384262,-5.041923696224763e-05,-0.0017505342208382557,0.0,0.0,0.0,0.0,0.0,0.0,0.0,0.0,0.0,0.007083170313756655,-0.5819023608931351,9.809547643080334,0.0,0.0,0.0,0.0,0.0,0.0,0.0,0.0,0.0
2025/05/25 17:16:56.179139948,1748186216,170488556,mA1/imu,0.9669412704647393,-0.254997690744563,-0.0005400102588989874,0.0006823312219222768,0.0,0.0,0.0,0.0,0.0,0.0,0.0,0.0,0.0,-0.0005662317122996148,-0.0001543267834412097,-0.001758970501111346,0.0,0.0,0.0,0.0,0.0,0.0,0.0,0.0,0.0,0.007489415434911393,-0.06245766857911153,9.810152337718971,0.0,0.0,0.0,0.0,0.0,0.0,0.0,0.0,0.0
2025/05/25 17:16:56.218693345,1748186216,215455057,mA1/imu,0.966952515797656,-0.254955054360887,-0.000543970176604185,0.0006756810402551159,0.0,0.0,0.0,0.0,0.0,0.0,0.0,0.0,0.0,-0.000698031210935077,-0.0002508169548947371,-0.0017671940118559265,0.0,0.0,0.0,0.0,0.0,0.0,0.0,0.0,0.0,0.005661418019075274,-0.06679007340304738,9.808614962724599,0.0,0.0,0.0,0.0,0.0,0.0,0.0,0.0,0.0
2025/05/25 17:16:56.267100720,1748186216,265694730,mA1/imu,0.9669638077919176,-0.25491223025739534,-0.0005503366041857648,0.0006681432318723716,0.0,0.0,0.0,0.0,0.0,0.0,0.0,0.0,0.0,-0.0008583235200491113,-0.000347984938965152,-0.0017750341085609677,0.0,0.0,0.0,0.0,0.0,0.0,0.0,0.0,0.0,0.006065146900681284,0.5501736592480237,9.809607204270607,0.0,0.0,0.0,0.0,0.0,0.0,0.0,0.0,0.0
2025/05/25 17:16:56.318683718,1748186216,315769335,mA1/imu,0.9669751275747247,-0.2548692901893489,-0.0005588064107031612,0.0006597769455047156,0.0,0.0,0.0,0.0,0.0,0.0,0.0,0.0,0.0,0.0007022404622963724,-0.0004443593820688851,-0.0017772029973819351,0.0,0.0,0.0,0.0,0.0,0.0,0.0,0.0,0.0,0.005736651915277768,0.03068222875888573,9.810425607555757,0.0,0.0,0.0,0.0,0.0,0.0,0.0,0.0,0.0
2025/05/25 17:16:56.370124129,1748186216,367800648,mA1/imu,0.9669864393251654,-0.25482634344254806,-0.0005713675363752088,0.00065908123728634,0.0,0.0,0.0,0.0,0.0,0.0,0.0,0.0,0.0,0.000795726880349858,-0.0005288484776710687,-0.0017750086688644907,0.0,0.0,0.0,0.0,0.0,0.0,0.0,0.0,0.0,0.0068202602198702755,0.03876753500517646,9.810753512002062,0.0,0.0,0.0,0.0,0.0,0.0,0.0,0.0,0.0
2025/05/25 17:16:56.421201474,1748186216,417590769,mA1/imu,0.9669974333779527,-0.2547845908828052,-0.0005846905009870146,0.0006589583839417766,0.0,0.0,0.0,0.0,0.0,0.0,0.0,0.0,0.0,0.0009581644707692677,-0.000534536770792856,-0.0017000516839176486,0.0,0.0,0.0,0.0,0.0,0.0,0.0,0.0,0.0,0.008559607779263852,-0.5794088338134831,9.809437347773988,0.0,0.0,0.0,0.0,0.0,0.0,0.0,0.0,0.0
2025/05/25 17:16:56.473071875,1748186216,469861391,mA1/imu,0.9670082155878443,-0.2547436288193475,-0.0005996870905906775,0.0006594975034721266,0.0,0.0,0.0,0.0,0.0,0.0,0.0,0.0,0.0,-0.000661969798614621,-0.0006140779435800501,-0.001689177269815296,0.0,0.0,0.0,0.0,0.0,0.0,0.0,0.0,0.0,0.011104948545298927,-0.061689415174950066,9.810125388982,0.0,0.0,0.0,0.0,0.0,0.0,0.0,0.0,0.0
2025/05/25 17:16:56.521601001,1748186216,520186079,mA1/imu,0.967018771243172,-0.25470353706948756,-0.0006158476510079688,0.0006519197101781863,0.0,0.0,0.0,0.0,0.0,0.0,0.0,0.0,0.0,-0.000780880338402011,-0.0007437765870511197,-0.001637309369273384,0.0,0.0,0.0,0.0,0.0,0.0,0.0,0.0,0.0,0.01105303427845561,-0.06511832953244678,9.80820507724659,0.0,0.0,0.0,0.0,0.0,0.0,0.0,0.0,0.0
2025/05/25 17:16:56.573979348,1748186216,572434987,mA1/imu,0.967029134335096,-0.2546641647378719,-0.0006343864931081584,0.0006435054424435534,0.0,0.0,0.0,0.0,0.0,0.0,0.0,0.0,0.0,-0.0009531451709092383,-0.0008147906342985318,-0.0016239702152775592,0.0,0.0,0.0,0.0,0.0,0.0,0.0,0.0,0.0,0.01023918790531367,0.5497754850349591,9.809724432229336,0.0,0.0,0.0,0.0,0.0,0.0,0.0,0.0,0.0
2025/05/25 17:16:56.625016434,1748186216,622945680,mA1/imu,0.9670394794013755,-0.25462485059725404,-0.0006542368220240932,0.0006345956376954808,0.0,0.0,0.0,0.0,0.0,0.0,0.0,0.0,0.0,0.0006155531894002596,-0.0008931555927901009,-0.0016493791206305026,0.0,0.0,0.0,0.0,0.0,0.0,0.0,0.0,0.0,0.01383544533388099,0.0323303340928359,9.811278115708095,0.0,0.0,0.0,0.0,0.0,0.0,0.0,0.0,0.0
2025/05/25 17:16:56.672244673,1748186216,668912661,mA1/imu,0.9670499839534374,-0.2545848943389769,-0.000677465422156981,0.0006333645632077969,0.0,0.0,0.0,0.0,0.0,0.0,0.0,0.0,0.0,0.0007083702584530968,-0.0009111729475449502,-0.0016517334787682536,0.0,0.0,0.0,0.0,0.0,0.0,0.0,0.0,0.0,0.009925150235310555,0.03849246934319901,9.8110757529167,0.0,0.0,0.0,0.0,0.0,0.0,0.0,0.0,0.0
2025/05/25 17:16:56.719266754,1748186216,718129925,mA1/imu,0.9670604535697708,-0.25454506018813294,-0.0007001486533876291,0.0006334564800325175,0.0,0.0,0.0,0.0,0.0,0.0,0.0,0.0,0.0,0.0008353624355787463,-0.000863281658158559,-0.0016454771070151053,0.0,0.0,0.0,0.0,0.0,0.0,0.0,0.0,0.0,0.011598845911546167,-0.5824705999094352,9.809789318261677,0.0,0.0,0.0,0.0,0.0,0.0,0.0,0.0,0.0
2025/05/25 17:16:56.771883285,1748186216,769865185,mA1/imu,0.9670708848632921,-0.2545053639170507,-0.0007209647202677054,0.0006352928858756354,0.0,0.0,0.0,0.0,0.0,0.0,0.0,0.0,0.0,-0.0007637331246428895,-0.0007411024387294844,-0.0016397160065887949,0.0,0.0,0.0,0.0,0.0,0.0,0.0,0.0,0.0,0.011678624129652789,-0.06300583161400825,9.810351417408166,0.0,0.0,0.0,0.0,0.0,0.0,0.0,0.0,0.0
2025/05/25 17:16:56.824887142,1748186216,819974792,mA1/imu,0.9670812850572017,-0.25446580850201694,-0.0007366502515087881,0.0006306678469746949,0.0,0.0,0.0,0.0,0.0,0.0,0.0,0.0,0.0,-0.0008959015765317467,-0.0005776782794136431,-0.0016342710182733415,0.0,0.0,0.0,0.0,0.0,0.0,0.0,0.0,0.0,0.009870940619432033,-0.06731272856222684,9.808841235167474,0.0,0.0,0.0,0.0,0.0,0.0,0.0,0.0,0.0
2025/05/25 17:16:56.872765218,1748186216,871336657,mA1/imu,0.9670916518775823,-0.25442638302208553,-0.0007481001121648013,0.0006267672696452618,0.0,0.0,0.0,0.0,0.0,0.0,0.0,0.0,0.0,-0.0010468743864884694,-0.00039499498037119733,-0.001629036003803941,0.0,0.0,0.0,0.0,0.0,0.0,0.0,0.0,0.0,0.010177527555083613,0.5496768471363214,9.809871957120832,0.0,0.0,0.0,0.0,0.0,0.0,0.0,0.0,0.0
2025/05/25 17:16:56.924152487,1748186216,921146927,mA1/imu,0.9671019881207795,-0.25438708001961335,-0.0007545266160665152,0.0006235234688622724,0.0,0.0,0.0,0.0,0.0,0.0,0.0,0.0,0.0,0.000534033608100037,-0.00019236357700428656,-0.0016240492581747132,0.0,0.0,0.0,0.0,0.0,0.0,0.0,0.0,0.0,0.009218971417467123,0.030489926151570496,9.81078228444796,0.0,0.0,0.0,0.0,0.0,0.0,0.0,0.0,0.0
2025/05/25 17:16:56.984991640,1748186216,973213241,mA1/imu,0.9671122909626356,-0.25434788494524374,-0.0007577293214831437,0.0006292369656083078,0.0,0.0,0.0,0.0,0.0,0.0,0.0,0.0,0.0,0.0006553596975891578,1.7147099686245915e-05,-0.0016191985384480202,0.0,0.0,0.0,0.0,0.0,0.0,0.0,0.0,0.0,0.009220910374617886,0.038562383168754724,9.811080343672474,0.0,0.0,0.0,0.0,0.0,0.0,0.0,0.0,0.0
2025/05/25 17:16:57.26915885,1748186217,23565855,mA1/imu,0.9671224949323786,-0.25430907828617816,-0.0007524301733080192,0.0006374526181302336,0.0,0.0,0.0,0.0,0.0,0.0,0.0,0.0,0.0,0.0008150718817536181,0.0004756159614151713,-0.0015881385302488522,0.0,0.0,0.0,0.0,0.0,0.0,0.0,0.0,0.0,0.0022719956302319332,-0.5834892354263737,9.810135094959655,0.0,0.0,0.0,0.0,0.0,0.0,0.0,0.0,0.0
2025/05/25 17:16:57.75903621,1748186217,74069861,mA1/imu,0.9671311729603337,-0.2542761077614828,-0.0007304283643843062,0.0006494493394100009,0.0,0.0,0.0,0.0,0.0,0.0,0.0,0.0,0.0,-0.0006810505957598736,0.001245412589006889,-0.0012246246434675936,0.0,0.0,0.0,0.0,0.0,0.0,0.0,0.0,0.0,-0.0034599044284781173,-0.049475194568318434,9.810031280782965,0.0,0.0,0.0,0.0,0.0,0.0,0.0,0.0,0.0
2025/05/25 17:16:57.120484316,1748186217,117701162,mA1/imu,0.9671386428359553,-0.2542477871260552,-0.0006929615556867232,0.0006542776265246804,0.0,0.0,0.0,0.0,0.0,0.0,0.0,0.0,0.0,-0.0006578035724793898,0.0016567281635421105,-0.0011783152790279569,0.0,0.0,0.0,0.0,0.0,0.0,0.0,0.0,0.0,0.0018891045790364325,-0.05618405211405436,9.807691772832417,0.0,0.0,0.0,0.0,0.0,0.0,0.0,0.0,0.0
2025/05/25 17:16:57.170290347,1748186217,168723616,mA1/imu,0.9671459964792569,-0.2542199268102872,-0.0006469111268482253,0.0006571245782072789,0.0,0.0,0.0,0.0,0.0,0.0,0.0,0.0,0.0,-0.0006459995480865827,0.0019381255671916532,-0.0011328093141230076,0.0,0.0,0.0,0.0,0.0,0.0,0.0,0.0,0.0,0.001463190498182141,0.5727953031197449,9.8087254894634,0.0,0.0,0.0,0.0,0.0,0.0,0.0,0.0,0.0
2025/05/25 17:16:57.221473007,1748186217,219341535,mA1/imu,0.9671522364001307,-0.2541963274042769,-0.0005891600861951641,0.0006570013668410409,0.0,0.0,0.0,0.0,0.0,0.0,0.0,0.0,0.0,0.001160587803698439,0.002496198173739223,-0.0008172957067486491,0.0,0.0,0.0,0.0,0.0,0.0,0.0,0.0,0.0,-0.013178726914089495,0.049688194433703994,9.812381546921877,0.0,0.0,0.0,0.0,0.0,0.0,0.0,0.0,0.0
2025/05/25 17:16:57.273662572,1748186217,271084402,mA1/imu,0.9671566868683659,-0.2541795385678437,-0.0005205912184456487,0.0006589415962403327,0.0,0.0,0.0,0.0,0.0,0.0,0.0,0.0,0.0,0.0016685228938773226,0.0026811570204152207,-0.0006566794859695528,0.0,0.0,0.0,0.0,0.0,0.0,0.0,0.0,0.0,0.0033338608818493055,0.0745010739514328,9.81127746940576,0.0,0.0,0.0,0.0,0.0,0.0,0.0,0.0,0.0
2025/05/25 17:16:57.323885796,1748186217,320916373,mA1/imu,0.9671596868205673,-0.25416827354549676,-0.00045037971242946155,0.0006527404984727537,0.0,0.0,0.0,0.0,0.0,0.0,0.0,0.0,0.0,0.002739693780620705,0.0026451796063107877,-0.00028974672134815234,0.0,0.0,0.0,0.0,0.0,0.0,0.0,0.0,0.0,-0.0024901064257827708,-0.5011001171547842,9.80992041422361,0.0,0.0,0.0,0.0,0.0,0.0,0.0,0.0,0.0
2025/05/25 17:16:57.373299993,1748186217,372098272,mA1/imu,0.967160856674079,-0.254163965281979,-0.0003823017063376516,0.0006402460527119788,0.0,0.0,0.0,0.0,0.0,0.0,0.0,0.0,0.0,0.002519524111164743,0.002246353756765091,-0.00016855169754497913,0.0,0.0,0.0,0.0,0.0,0.0,0.0,0.0,0.0,0.01563322191378337,-0.3806554996103978,9.808358960925913,0.0,0.0,0.0,0.0,0.0,0.0,0.0,0.0,0.0
2025/05/25 17:16:57.424025393,1748186217,415549913,mA1/imu,0.967161996762841,-0.254159723266252,-0.0003326919344488981,0.0006296054425068456,0.0,0.0,0.0,0.0,0.0,0.0,0.0,0.0,0.0,0.001739831568781959,0.0014952586881807038,-0.00018896188103460968,0.0,0.0,0.0,0.0,0.0,0.0,0.0,0.0,0.0,0.014714633305317738,-0.3956210859763325,9.812010798915964,0.0,0.0,0.0,0.0,0.0,0.0,0.0,0.0,0.0
2025/05/25 17:16:57.467852032,1748186217,466543122,mA1/imu,0.9671633066752763,-0.25415485910203656,-0.000296918462247054,0.0005980428047321463,0.0,0.0,0.0,0.0,0.0,0.0,0.0,0.0,0.0,0.0010894244743505023,0.0007706700802675511,-0.0002085712208293855,0.0,0.0,0.0,0.0,0.0,0.0,0.0,0.0,0.0,0.013447342887360074,0.3001567949674605,9.810351684256192,0.0,0.0,0.0,0.0,0.0,0.0,0.0,0.0,0.0
2025/05/25 17:16:57.520563371,1748186217,519416910,mA1/imu,0.967164866195064,-0.25414902852006244,-0.0002789879059613232,0.0005613073494987802,0.0,0.0,0.0,0.0,0.0,0.0,0.0,0.0,0.0,0.002038484900714175,-1.5516040720249565e-05,-0.0002864021624902368,0.0,0.0,0.0,0.0,0.0,0.0,0.0,0.0,0.0,0.015862569887149406,0.02502736639631993,9.810327753222348,0.0,0.0,0.0,0.0,0.0,0.0,0.0,0.0,0.0
2025/05/25 17:16:57.573898786,1748186217,571344865,mA1/imu,0.9671672031692221,-0.25414019806657967,-0.000283349009035125,0.0005296733365316914,0.0,0.0,0.0,0.0,0.0,0.0,0.0,0.0,0.0,0.0014564196672274027,-0.0008031654966551355,-0.00040507370969005427,0.0,0.0,0.0,0.0,0.0,0.0,0.0,0.0,0.0,0.012789139491166918,0.021446886573069646,9.808910162960734,0.0,0.0,0.0,0.0,0.0,0.0,0.0,0.0,0.0
2025/05/25 17:16:57.623711527,1748186217,622003974,mA1/imu,0.9671698122184293,-0.25413034359880293,-0.000301653283299339,0.0004814571831803999,0.0,0.0,0.0,0.0,0.0,0.0,0.0,0.0,0.0,0.0009044393234414351,-0.0014545943752128944,-0.00041106325524771975,0.0,0.0,0.0,0.0,0.0,0.0,0.0,0.0,0.0,0.012912403932343186,0.6119848335991226,9.81033116087677,0.0,0.0,0.0,0.0,0.0,0.0,0.0,0.0,0.0
2025/05/25 17:16:57.670017676,1748186217,666714603,mA1/imu,0.9671724435849255,-0.2541203507532657,-0.0003383699689313627,0.00044408193546315814,0.0,0.0,0.0,0.0,0.0,0.0,0.0,0.0,0.0,-1.9716918774653592e-05,-0.002012182005327312,-0.0004166730572077877,0.0,0.0,0.0,0.0,0.0,0.0,0.0,0.0,0.0,0.011567029109722165,0.12864047974276374,9.810053982456747,0.0,0.0,0.0,0.0,0.0,0.0,0.0,0.0,0.0
2025/05/25 17:16:57.720048985,1748186217,719010219,mA1/imu,0.9671751087129932,-0.2541102389907443,-0.0003822708243632833,0.0003865166146212052,0.0,0.0,0.0,0.0,0.0,0.0,0.0,0.0,0.0,0.0021274814807959556,-0.0024388630111150745,-0.00042203006759339334,0.0,0.0,0.0,0.0,0.0,0.0,0.0,0.0,0.0,0.010752067289851626,0.08943345078648883,9.81116506923285,0.0,0.0,0.0,0.0,0.0,0.0,0.0,0.0,0.0
2025/05/25 17:16:57.768164611,1748186217,765356626,mA1/imu,0.967177787139653,-0.254099994456569,-0.0004414540198548623,0.0003549636097445428,0.0,0.0,0.0,0.0,0.0,0.0,0.0,0.0,0.0,0.0008007711570631753,-0.0027099314372101314,-0.0004268427047463304,0.0,0.0,0.0,0.0,0.0,0.0,0.0,0.0,0.0,0.009468840817845995,0.4826324282546267,9.81005662895696,0.0,0.0,0.0,0.0,0.0,0.0,0.0,0.0,0.0
2025/05/25 17:16:57.815849824,1748186217,814889770,mA1/imu,0.9671804900800088,-0.2540896310559848,-0.000504858729920705,0.0003226702499002218,0.0,0.0,0.0,0.0,0.0,0.0,0.0,0.0,0.0,-3.708814842986328e-05,-0.0028139729305355693,-0.00043177633224562514,0.0,0.0,0.0,0.0,0.0,0.0,0.0,0.0,0.0,0.009702952178380355,0.5353784645488469,9.810479427290009,0.0,0.0,0.0,0.0,0.0,0.0,0.0,0.0,0.0
2025/05/25 17:16:57.869273709,1748186217,867483536,mA1/imu,0.9671832155832883,-0.25407915683550275,-0.0005690670208830772,0.0002927771441529617,0.0,0.0,0.0,0.0,0.0,0.0,0.0,0.0,0.0,0.00018672443868277897,-0.002741418333081272,-0.0004359717504783448,0.0,0.0,0.0,0.0,0.0,0.0,0.0,0.0,0.0,0.007993562702146172,0.14375120019229515,9.809677881616672,0.0,0.0,0.0,0.0,0.0,0.0,0.0,0.0,0.0
2025/05/25 17:16:57.920833971,1748186217,918939165,mA1/imu,0.9671864231478893,-0.2540668145605199,-0.0006328606513544155,0.0002758710902872831,0.0,0.0,0.0,0.0,0.0,0.0,0.0,0.0,0.0,0.00024046632451710183,-0.0025299635644845195,-0.0005774207572915195,0.0,0.0,0.0,0.0,0.0,0.0,0.0,0.0,0.0,0.006737646083019152,0.5284254599678956,9.810501163267663,0.0,0.0,0.0,0.0,0.0,0.0,0.0,0.0,0.0
2025/05/25 17:16:57.974089905,1748186217,972917517,mA1/imu,0.9671901277821875,-0.25405256909462937,-0.0006903619942899014,0.00026880738663198606,0.0,0.0,0.0,0.0,0.0,0.0,0.0,0.0,0.0,0.00018244717463469526,-0.0021244101979148848,-0.0005978261361212848,0.0,0.0,0.0,0.0,0.0,0.0,0.0,0.0,0.0,0.006016653006233302,0.08420658548406812,9.809309713656699,0.0,0.0,0.0,0.0,0.0,0.0,0.0,0.0,0.0
2025/05/25 17:16:58.18005910,1748186218,15303075,mA1/imu,0.9671939635137257,-0.25403782506757866,-0.0007386065975145892,0.00027356505324016393,0.0,0.0,0.0,0.0,0.0,0.0,0.0,0.0,0.0,0.0007067895787932291,-0.0016198655913862727,-0.0006177892125253104,0.0,0.0,0.0,0.0,0.0,0.0,0.0,0.0,0.0,0.006459516045301461,-0.5116882970882407,9.80977905242558,0.0,0.0,0.0,0.0,0.0,0.0,0.0,0.0,0.0
2025/05/25 17:16:58.68877986,1748186218,65915064,mA1/imu,0.9671979295274277,-0.2540225924449452,-0.0007758565976915714,0.0002927318668908991,0.0,0.0,0.0,0.0,0.0,0.0,0.0,0.0,0.0,-0.000575412313904478,-0.001000454814294289,-0.0006370454151406023,0.0,0.0,0.0,0.0,0.0,0.0,0.0,0.0,0.0,0.0057939493287559336,0.05176041330920358,9.808465035022843,0.0,0.0,0.0,0.0,0.0,0.0,0.0,0.0,0.0
2025/05/25 17:16:58.117560335,1748186218,116550981,mA1/imu,0.9672011317180952,-0.2540103112603671,-0.0007931737505512935,0.00032163962558559345,0.0,0.0,0.0,0.0,0.0,0.0,0.0,0.0,0.0,-0.0001987596485310472,7.378529162138065e-05,-0.000381482283882343,0.0,0.0,0.0,0.0,0.0,0.0,0.0,0.0,0.0,-0.007699267010985384,-0.5382983962437831,9.808667429069354,0.0,0.0,0.0,0.0,0.0,0.0,0.0,0.0,0.0
2025/05/25 17:16:58.171216428,1748186218,167978851,mA1/imu,0.9672035578910456,-0.25400103556669834,-0.0007905700388959959,0.00035571471871053903,0.0,0.0,0.0,0.0,0.0,0.0,0.0,0.0,0.0,-0.001084855470218112,0.0006808541141005318,-0.00038256155489273225,0.0,0.0,0.0,0.0,0.0,0.0,0.0,0.0,0.0,0.008348088905064038,0.04042116502582108,9.810050559370021,0.0,0.0,0.0,0.0,0.0,0.0,0.0,0.0,0.0
2025/05/25 17:16:58.220535828,1748186218,218992180,mA1/imu,0.9672061360614801,-0.25399118290275224,-0.0007782638554245336,0.00040457144426353595,0.0,0.0,0.0,0.0,0.0,0.0,0.0,0.0,0.0,-0.002232723870142784,0.0011496378181518798,-0.0004205005455329704,0.0,0.0,0.0,0.0,0.0,0.0,0.0,0.0,0.0,0.009937735406622378,-0.033164710801190475,9.810797639397745,0.0,0.0,0.0,0.0,0.0,0.0,0.0,0.0,0.0
2025/05/25 17:16:58.271885726,1748186218,269968650,mA1/imu,0.9672088385329677,-0.2539809041507001,-0.0007520999184004729,0.00044422540804229664,0.0,0.0,0.0,0.0,0.0,0.0,0.0,0.0,0.0,-0.0005500452425874513,0.0015847548852561497,-0.0004255361855954192,0.0,0.0,0.0,0.0,0.0,0.0,0.0,0.0,0.0,0.009262625283212,-0.5430070575913699,9.80963412668296,0.0,0.0,0.0,0.0,0.0,0.0,0.0,0.0,0.0
2025/05/25 17:16:58.326737918,1748186218,320464624,mA1/imu,0.9672113938675139,-0.2539711703499499,-0.0007204009934388597,0.0004952033385987394,0.0,0.0,0.0,0.0,0.0,0.0,0.0,0.0,0.0,-0.0021877307377254837,0.001822244093755259,-0.0003718320783580625,0.0,0.0,0.0,0.0,0.0,0.0,0.0,0.0,0.0,0.01501564075650034,0.6017899624689251,9.810622154505994,0.0,0.0,0.0,0.0,0.0,0.0,0.0,0.0,0.0
2025/05/25 17:16:58.375336514,1748186218,373017767,mA1/imu,0.9672137547464024,-0.2539621683544043,-0.0006846251073133463,0.0005486005448966313,0.0,0.0,0.0,0.0,0.0,0.0,0.0,0.0,0.0,-0.002323308480566845,0.001982525099200705,-0.00036886079160556955,0.0,0.0,0.0,0.0,0.0,0.0,0.0,0.0,0.0,0.012654019727594402,-0.04712047501573331,9.811351947231403,0.0,0.0,0.0,0.0,0.0,0.0,0.0,0.0,0.0
2025/05/25 17:16:58.424593809,1748186218,423168738,mA1/imu,0.9672158627765995,-0.25395413768903224,-0.0006439536818247724,0.0005967139963983371,0.0,0.0,0.0,0.0,0.0,0.0,0.0,0.0,0.0,-0.002600134508206867,0.002094006205665952,-0.00030491708936511186,0.0,0.0,0.0,0.0,0.0,0.0,0.0,0.0,0.0,0.012489853213986539,-0.07358669605908627,9.809820502612645,0.0,0.0,0.0,0.0,0.0,0.0,0.0,0.0,0.0
2025/05/25 17:16:58.478474861,1748186218,476452014,mA1/imu,0.9672177772733758,-0.25394686163498814,-0.0006013083522963445,0.0006334195736199832,0.0,0.0,0.0,0.0,0.0,0.0,0.0,0.0,0.0,-0.0019922253652092906,0.001975766904284787,-0.0002950332274571451,0.0,0.0,0.0,0.0,0.0,0.0,0.0,0.0,0.0,0.014745170546527403,0.17891402150968685,9.810376026863604,0.0,0.0,0.0,0.0,0.0,0.0,0.0,0.0,0.0
2025/05/25 17:16:58.518222256,1748186218,517350778,mA1/imu,0.9672199483723495,-0.2539386003592329,-0.0005620859818928634,0.0006654153079760711,0.0,0.0,0.0,0.0,0.0,0.0,0.0,0.0,0.0,-0.0018897008586768356,0.0017563995904050812,-0.0003700213074138779,0.0,0.0,0.0,0.0,0.0,0.0,0.0,0.0,0.0,0.014156233665730596,0.5700401371139011,9.811993845905615,0.0,0.0,0.0,0.0,0.0,0.0,0.0,0.0,0.0
2025/05/25 17:16:58.572221101,1748186218,570681095,mA1/imu,0.9672223395505398,-0.25392949182113395,-0.0005284402972586474,0.0006926822454600829,0.0,0.0,0.0,0.0,0.0,0.0,0.0,0.0,0.0,-0.0016412310411329633,0.0014632433541589861,-0.00037865545431364046,0.0,0.0,0.0,0.0,0.0,0.0,0.0,0.0,0.0,0.014064936368633383,0.5671565519924026,9.812394433459865,0.0,0.0,0.0,0.0,0.0,0.0,0.0,0.0,0.0
2025/05/25 17:16:58.624247237,1748186218,622688698,mA1/imu,0.9672247883215436,-0.25392018552464307,-0.0004997112610220084,0.0007060652460644984,0.0,0.0,0.0,0.0,0.0,0.0,0.0,0.0,0.0,0.0004958725147309252,0.001101918455927084,-0.000387250149883918,0.0,0.0,0.0,0.0,0.0,0.0,0.0,0.0,0.0,0.013382718112451487,0.06422924822088165,9.809097319825659,0.0,0.0,0.0,0.0,0.0,0.0,0.0,0.0,0.0
2025/05/25 17:16:58.670857551,1748186218,666743307,mA1/imu,0.967227286915649,-0.2539106805561029,-0.0004798391287950895,0.0007151920999849289,0.0,0.0,0.0,0.0,0.0,0.0,0.0,0.0,0.0,0.0008690408594796007,0.0006931569278120355,-0.0003956877385555624,0.0,0.0,0.0,0.0,0.0,0.0,0.0,0.0,0.0,0.013269913512200384,0.06709168528512957,9.809058595113237,0.0,0.0,0.0,0.0,0.0,0.0,0.0,0.0,0.0
2025/05/25 17:16:58.719386468,1748186218,717695842,mA1/imu,0.9672298383296496,-0.2539009816098295,-0.0004685316657375828,0.000715444227805327,0.0,0.0,0.0,0.0,0.0,0.0,0.0,0.0,0.0,0.0012992874989067199,0.0002554273173906625,-0.00040418102298665445,0.0,0.0,0.0,0.0,0.0,0.0,0.0,0.0,0.0,0.01328015028956556,-0.5562026825083196,9.809386811604393,0.0,0.0,0.0,0.0,0.0,0.0,0.0,0.0,0.0
2025/05/25 17:16:58.771815468,1748186218,770313422,mA1/imu,0.9672324449665786,-0.25389108991932335,-0.0004653562633665398,0.0007037805771999348,0.0,0.0,0.0,0.0,0.0,0.0,0.0,0.0,0.0,0.0005730608786250744,-0.0001711609321127017,-0.00041270144233260394,0.0,0.0,0.0,0.0,0.0,0.0,0.0,0.0,0.0,0.013197679290862286,-0.23889088938759756,9.809639480249022,0.0,0.0,0.0,0.0,0.0,0.0,0.0,0.0,0.0
2025/05/25 17:16:58.824735677,1748186218,822729750,mA1/imu,0.967235106338328,-0.25388100514648804,-0.0004701962916851512,0.0006805938138994104,0.0,0.0,0.0,0.0,0.0,0.0,0.0,0.0,0.0,0.0008188540383822793,-0.0005885744792119001,-0.000421309069842196,0.0,0.0,0.0,0.0,0.0,0.0,0.0,0.0,0.0,0.012530872374151295,-0.6275140308077085,9.810124910334002,0.0,0.0,0.0,0.0,0.0,0.0,0.0,0.0,0.0
2025/05/25 17:16:58.874648374,1748186218,873740848,mA1/imu,0.9672378212517133,-0.25387072544792777,-0.00048253004419666895,0.0006473527152936822,0.0,0.0,0.0,0.0,0.0,0.0,0.0,0.0,0.0,0.0006848013015084004,-0.0009558197908101022,-0.0004295275455699743,0.0,0.0,0.0,0.0,0.0,0.0,0.0,0.0,0.0,0.012419606125288732,-0.024932327313869723,9.810313325361204,0.0,0.0,0.0,0.0,0.0,0.0,0.0,0.0,0.0
2025/05/25 17:16:58.919883278,1748186218,915636816,mA1/imu,0.9672405878183483,-0.25386025381815785,-0.0005010763433267985,0.0006047567236011319,0.0,0.0,0.0,0.0,0.0,0.0,0.0,0.0,0.0,0.0014587705980863665,-0.0012649472199773519,-0.00043774086863334835,0.0,0.0,0.0,0.0,0.0,0.0,0.0,0.0,0.0,0.011860806825075242,0.01756587997428395,9.808066767411994,0.0,0.0,0.0,0.0,0.0,0.0,0.0,0.0,0.0
2025/05/25 17:16:58.971019112,1748186218,969347113,mA1/imu,0.9672433994053847,-0.253849591681065,-0.0005258522732923161,0.0005608827493448019,0.0,0.0,0.0,0.0,0.0,0.0,0.0,0.0,0.0,0.0011760160521931268,-0.0014841769041604503,-0.0004456173337083244,0.0,0.0,0.0,0.0,0.0,0.0,0.0,0.0,0.0,0.011246452945450111,0.12879572656796046,9.809191775699084,0.0,0.0,0.0,0.0,0.0,0.0,0.0,0.0,0.0
2025/05/25 17:16:59.26447741,1748186219,22314959,mA1/imu,0.96724625608395,-0.2538387466150639,-0.0005541472305397562,0.0005135458325108299,0.0,0.0,0.0,0.0,0.0,0.0,0.0,0.0,0.0,0.002614390212047617,-0.001624437882856309,-0.00045327851712583574,0.0,0.0,0.0,0.0,0.0,0.0,0.0,0.0,0.0,0.01065830584988804,-0.4548508277172671,9.809402648131632,0.0,0.0,0.0,0.0,0.0,0.0,0.0,0.0,0.0
2025/05/25 17:16:59.75723460,1748186219,73477791,mA1/imu,0.9672491544623236,-0.25382772963044686,-0.0005837744604267798,0.00046483325187254214,0.0,0.0,0.0,0.0,0.0,0.0,0.0,0.0,0.0,0.002269836834252355,-0.0016456336154250916,-0.0004601257882563935,0.0,0.0,0.0,0.0,0.0,0.0,0.0,0.0,0.0,0.0098168554457778,0.06715826693352799,9.810213714136083,0.0,0.0,0.0,0.0,0.0,0.0,0.0,0.0,0.0
2025/05/25 17:16:59.117051030,1748186219,115760505,mA1/imu,0.9672514199644017,-0.25381911010421976,-0.0006105749961391683,0.0004208573683561031,0.0,0.0,0.0,0.0,0.0,0.0,0.0,0.0,0.0,0.0027881629400294474,-0.001386987883114897,-0.0002996267250126195,0.0,0.0,0.0,0.0,0.0,0.0,0.0,0.0,0.0,0.008246736010812598,-0.4539971486144218,9.809084618665148,0.0,0.0,0.0,0.0,0.0,0.0,0.0,0.0,0.0
2025/05/25 17:16:59.171762487,1748186219,170393617,mA1/imu,0.9672532627403965,-0.25381208920896264,-0.0006344469687179164,0.0003828400223968054,0.0,0.0,0.0,0.0,0.0,0.0,0.0,0.0,0.0,0.0017777206757759064,-0.001259240899492823,-0.0002862923475354204,0.0,0.0,0.0,0.0,0.0,0.0,0.0,0.0,0.0,0.010295496949337644,0.05196461148273563,9.808980788187295,0.0,0.0,0.0,0.0,0.0,0.0,0.0,0.0,0.0
2025/05/25 17:16:59.223075937,1748186219,220681068,mA1/imu,0.9672550204924627,-0.2538053797805525,-0.0006560910469624699,0.0003522372967785473,0.0,0.0,0.0,0.0,0.0,0.0,0.0,0.0,0.0,0.0024690363974889913,-0.0010684461650798853,-0.0002734827692604295,0.0,0.0,0.0,0.0,0.0,0.0,0.0,0.0,0.0,0.009984843208710757,-0.5154492692275633,9.809423628164161,0.0,0.0,0.0,0.0,0.0,0.0,0.0,0.0,0.0
2025/05/25 17:16:59.269519709,1748186219,264836676,mA1/imu,0.9672566922082997,-0.2537989851476507,-0.0006746057396990361,0.0003338014039951591,0.0,0.0,0.0,0.0,0.0,0.0,0.0,0.0,0.0,-0.00012670805273501135,-0.0008161950387671088,-0.00025774450588217997,0.0,0.0,0.0,0.0,0.0,0.0,0.0,0.0,0.0,0.012885829155871002,-0.049555995959491055,9.81189344000133,0.0,0.0,0.0,0.0,0.0,0.0,0.0,0.0,0.0
2025/05/25 17:16:59.317918764,1748186219,316291845,mA1/imu,0.9672585519444078,-0.2537918944244866,-0.000686256286882105,0.0003115560085635695,0.0,0.0,0.0,0.0,0.0,0.0,0.0,0.0,0.0,6.312253584729162e-05,-0.0005770747450311275,-0.0003180427157898393,0.0,0.0,0.0,0.0,0.0,0.0,0.0,0.0,0.0,0.012202622297144342,-0.07145919242295772,9.809659725726913,0.0,0.0,0.0,0.0,0.0,0.0,0.0,0.0,0.0
2025/05/25 17:16:59.370735927,1748186219,369252299,mA1/imu,0.967260562957833,-0.25378422618784174,-0.0006935534337461934,0.00029810798208731136,0.0,0.0,0.0,0.0,0.0,0.0,0.0,0.0,0.0,-0.00051493439411122,-0.0003007074654600971,-0.0003172486147260593,0.0,0.0,0.0,0.0,0.0,0.0,0.0,0.0,0.0,0.011435731985047808,0.5964705309541932,9.810768993743356,0.0,0.0,0.0,0.0,0.0,0.0,0.0,0.0,0.0
2025/05/25 17:16:59.422028335,1748186219,419714879,mA1/imu,0.9672627321358094,-0.25377594521688007,-0.0006988893423013402,0.00029699181085246875,0.0,0.0,0.0,0.0,0.0,0.0,0.0,0.0,0.0,-0.00040457516484821923,-0.00016119214674049023,-0.0003728444966170129,0.0,0.0,0.0,0.0,0.0,0.0,0.0,0.0,0.0,0.016506693341254507,0.6275871594956332,9.811338323518635,0.0,0.0,0.0,0.0,0.0,0.0,0.0,0.0,0.0
2025/05/25 17:16:59.474357123,1748186219,471133603,mA1/imu,0.9672650799391175,-0.253766973607777,-0.0007024387053988897,0.0003079223727399,0.0,0.0,0.0,0.0,0.0,0.0,0.0,0.0,0.0,-5.323712325205904e-05,6.427990028894237e-05,-0.00036915802575387583,0.0,0.0,0.0,0.0,0.0,0.0,0.0,0.0,0.0,0.013038876544461935,0.04323756130482575,9.809540646667228,0.0,0.0,0.0,0.0,0.0,0.0,0.0,0.0,0.0
2025/05/25 17:16:59.522391763,1748186219,521062472,mA1/imu,0.9672675404279142,-0.253757556427578,-0.0007047435833855177,0.00033335704561639266,0.0,0.0,0.0,0.0,0.0,0.0,0.0,0.0,0.0,-0.001044677630110907,0.00023325980163759987,-0.00040228701533061664,0.0,0.0,0.0,0.0,0.0,0.0,0.0,0.0,0.0,0.014545482335862817,-0.006799519064290381,9.811453935306572,0.0,0.0,0.0,0.0,0.0,0.0,0.0,0.0,0.0
2025/05/25 17:16:59.576609399,1748186219,573590653,mA1/imu,0.9672700950527389,-0.2537477864029844,-0.0007026513264426603,0.00036110021358896536,0.0,0.0,0.0,0.0,0.0,0.0,0.0,0.0,0.0,-0.0012660284407223262,0.00043768747162598666,-0.0004037411603018115,0.0,0.0,0.0,0.0,0.0,0.0,0.0,0.0,0.0,0.014186625561459425,-0.6353769139873483,9.810463455255736,0.0,0.0,0.0,0.0,0.0,0.0,0.0,0.0,0.0
2025/05/25 17:16:59.625561516,1748186219,623860490,mA1/imu,0.9672717388734893,-0.25374152387095766,-0.000688741135279697,0.00038454642018107937,0.0,0.0,0.0,0.0,0.0,0.0,0.0,0.0,0.0,-0.000492147771172599,0.0010490772171827508,-0.00011296185225977945,0.0,0.0,0.0,0.0,0.0,0.0,0.0,0.0,0.0,-0.0018984157396623649,-0.44367713694656236,9.807788334820042,0.0,0.0,0.0,0.0,0.0,0.0,0.0,0.0,0.0
2025/05/25 17:16:59.668359384,1748186219,667158512,mA1/imu,0.9672724199536215,-0.25373892200569337,-0.0006697544624575167,0.0004201016707093442,0.0,0.0,0.0,0.0,0.0,0.0,0.0,0.0,0.0,-0.0014202167049700285,0.0011175343168910946,-0.00010192264911786814,0.0,0.0,0.0,0.0,0.0,0.0,0.0,0.0,0.0,0.015280980994557238,0.6381746616052296,9.810321168350587,0.0,0.0,0.0,0.0,0.0,0.0,0.0,0.0,0.0
2025/05/25 17:16:59.723847320,1748186219,721566122,mA1/imu,0.9672730261172011,-0.25373656717828535,-0.0006535729068016235,0.00046932409631134466,0.0,0.0,0.0,0.0,0.0,0.0,0.0,0.0,0.0,-0.001143543614569305,0.0011214607397745716,-9.143305893455967e-05,0.0,0.0,0.0,0.0,0.0,0.0,0.0,0.0,0.0,0.015245013970285042,0.0329542626056118,9.810220253069902,0.0,0.0,0.0,0.0,0.0,0.0,0.0,0.0,0.0
2025/05/25 17:16:59.774009064,1748186219,772091793,mA1/imu,0.9672735676489621,-0.25373446067058203,-0.0006366615271771607,0.0005132815576055483,0.0,0.0,0.0,0.0,0.0,0.0,0.0,0.0,0.0,-0.0016910892669932368,0.0010756111119669873,-8.165106249859765e-05,0.0,0.0,0.0,0.0,0.0,0.0,0.0,0.0,0.0,0.015709787112726567,-0.005887740773316651,9.808988580572867,0.0,0.0,0.0,0.0,0.0,0.0,0.0,0.0,0.0
2025/05/25 17:16:59.824780236,1748186219,822581092,mA1/imu,0.9672740435354031,-0.25373261116543977,-0.0006200682133042386,0.0005497719979638601,0.0,0.0,0.0,0.0,0.0,0.0,0.0,0.0,0.0,-0.0012375119027411249,0.0009554049476266742,-7.077360019124929e-05,0.0,0.0,0.0,0.0,0.0,0.0,0.0,0.0,0.0,0.016307937029140934,0.20404362384998773,9.810359729473696,0.0,0.0,0.0,0.0,0.0,0.0,0.0,0.0,0.0
2025/05/25 17:16:59.873511105,1748186219,866665260,mA1/imu,0.9672744471383032,-0.25373102463992314,-0.0006072827171916138,0.0005850266372013264,0.0,0.0,0.0,0.0,0.0,0.0,0.0,0.0,0.0,-0.0008072147303418153,0.0007783497685649581,-5.998242285169993e-05,0.0,0.0,0.0,0.0,0.0,0.0,0.0,0.0,0.0,0.015430234482072445,0.23418686961480734,9.810006394089351,0.0,0.0,0.0,0.0,0.0,0.0,0.0,0.0,0.0
2025/05/25 17:16:59.916845137,1748186219,915054356,mA1/imu,0.9672748994524547,-0.25372924327699264,-0.000598677652650543,0.0006177219411956591,0.0,0.0,0.0,0.0,0.0,0.0,0.0,0.0,0.0,-0.001237337929610214,0.0005987718058963402,-0.00011105658887248634,0.0,0.0,0.0,0.0,0.0,0.0,0.0,0.0,0.0,0.014459137403992746,0.6261600111703025,9.810038208837142,0.0,0.0,0.0,0.0,0.0,0.0,0.0,0.0,0.0
2025/05/25 17:16:59.969379955,1748186219,966403978,mA1/imu,0.9672757139514696,-0.253726082905737,-0.0005936316421083178,0.0006447126951928501,0.0,0.0,0.0,0.0,0.0,0.0,0.0,0.0,0.0,0.00020521753435371785,0.00038367878738035247,-0.00013563382326803525,0.0,0.0,0.0,0.0,0.0,0.0,0.0,0.0,0.0,0.014385242613018,-0.1891960430675062,9.808899604724791,0.0,0.0,0.0,0.0,0.0,0.0,0.0,0.0,0.0
2025/05/25 17:17:00.20681420,1748186220,18046207,mA1/imu,0.9672766018766144,-0.25372263484358876,-0.0005935868258383617,0.0006690924724150296,0.0,0.0,0.0,0.0,0.0,0.0,0.0,0.0,0.0,-0.0003295988957839219,0.00013764141139713633,-0.0001458486587111416,0.0,0.0,0.0,0.0,0.0,0.0,0.0,0.0,0.0,0.015772295212695832,-0.047207939967854294,9.810705836871582,0.0,0.0,0.0,0.0,0.0,0.0,0.0,0.0,0.0
2025/05/25 17:17:00.71658898,1748186220,70001594,mA1/imu,0.9672775563941413,-0.2537189622808048,-0.0005962253318286224,0.0006794046542304924,0.0,0.0,0.0,0.0,0.0,0.0,0.0,0.0,0.0,-0.0005586097682014967,-9.13244748838507e-05,-0.0001554816179551463,0.0,0.0,0.0,0.0,0.0,0.0,0.0,0.0,0.0,0.014809202826080713,-0.007849762309165764,9.811884202947963,0.0,0.0,0.0,0.0,0.0,0.0,0.0,0.0,0.0
2025/05/25 17:17:00.123060174,1748186220,120914855,mA1/imu,0.967277694657916,-0.25371841545312407,-0.0005983092294852572,0.0006849111542156102,0.0,0.0,0.0,0.0,0.0,0.0,0.0,0.0,0.0,-0.0009137048474561574,8.645842815510023e-05,0.00010740347115392642,0.0,0.0,0.0,0.0,0.0,0.0,0.0,0.0,0.0,-0.0003625709889997202,-0.05007537419905317,9.809701606729268,0.0,0.0,0.0,0.0,0.0,0.0,0.0,0.0,0.0
2025/05/25 17:17:00.175085308,1748186220,173537664,mA1/imu,0.9672769791236769,-0.25372115417116964,-0.0005991745802451208,0.0006801273747061841,0.0,0.0,0.0,0.0,0.0,0.0,0.0,0.0,0.0,-0.0005443115866745338,-0.00019237030968318527,0.00011799330979998018,0.0,0.0,0.0,0.0,0.0,0.0,0.0,0.0,0.0,0.017221869873774116,-0.05109773401993806,9.809180516332747,0.0,0.0,0.0,0.0,0.0,0.0,0.0,0.0,0.0
2025/05/25 17:17:00.224834902,1748186220,222298369,mA1/imu,0.967276933006392,-0.2537213809288988,-0.0006060504442553993,0.0006545503340407405,0.0,0.0,0.0,0.0,0.0,0.0,0.0,0.0,0.0,-0.00018282847928012877,-0.00069112284934384,-5.916634451936316e-05,0.0,0.0,0.0,0.0,0.0,0.0,0.0,0.0,0.0,0.01817436098276857,0.37462572255423593,9.810276931248334,0.0,0.0,0.0,0.0,0.0,0.0,0.0,0.0,0.0
2025/05/25 17:17:00.267238480,1748186220,265215099,mA1/imu,0.9672773208390602,-0.25371991604489996,-0.0006217532125735741,0.0006342046370924506,0.0,0.0,0.0,0.0,0.0,0.0,0.0,0.0,0.0,0.0005134738406563871,-0.0008829329303161109,-6.319280470281454e-05,0.0,0.0,0.0,0.0,0.0,0.0,0.0,0.0,0.0,0.014959683858546102,-0.020138259621051757,9.811202469106663,0.0,0.0,0.0,0.0,0.0,0.0,0.0,0.0,0.0
2025/05/25 17:17:00.316249332,1748186220,314928581,mA1/imu,0.9672777435915718,-0.25371836741508463,-0.0006358853251193272,0.000593665288583405,0.0,0.0,0.0,0.0,0.0,0.0,0.0,0.0,0.0,0.002039631614226817,-0.0010046373143442356,-6.717894912094118e-05,0.0,0.0,0.0,0.0,0.0,0.0,0.0,0.0,0.0,0.014871313725754171,0.06737325055460326,9.811110967121051,0.0,0.0,0.0,0.0,0.0,0.0,0.0,0.0,0.0
2025/05/25 17:17:00.370536255,1748186220,366689598,mA1/imu,0.9672781824205627,-0.25371673845320375,-0.0006528016697875518,0.0005552403275185615,0.0,0.0,0.0,0.0,0.0,0.0,0.0,0.0,0.0,0.002578325466484147,-0.0010677943836898429,-6.98243689441449e-05,0.0,0.0,0.0,0.0,0.0,0.0,0.0,0.0,0.0,0.013330506849285726,0.09570301541287976,9.809319477286532,0.0,0.0,0.0,0.0,0.0,0.0,0.0,0.0,0.0
2025/05/25 17:17:00.419070844,1748186220,417103008,mA1/imu,0.9672778409625602,-0.25371809567159537,-0.0006646565338546672,0.0005143377094256577,0.0,0.0,0.0,0.0,0.0,0.0,0.0,0.0,0.0,0.00265001895835726,-0.0006837119402142077,0.00018292948254520046,0.0,0.0,0.0,0.0,0.0,0.0,0.0,0.0,0.0,-0.0006599632091617794,0.08969723283913181,9.811046188290996,0.0,0.0,0.0,0.0,0.0,0.0,0.0,0.0,0.0
2025/05/25 17:17:00.474606700,1748186220,469992154,mA1/imu,0.9672766179773185,-0.2537228042843639,-0.0006731048351935741,0.0004794062158975866,0.0,0.0,0.0,0.0,0.0,0.0,0.0,0.0,0.0,0.0025253663653540767,-0.0006891631143840992,0.00020071424187626213,0.0,0.0,0.0,0.0,0.0,0.0,0.0,0.0,0.0,0.014357111112389713,-0.23454654960260243,9.809707763947877,0.0,0.0,0.0,0.0,0.0,0.0,0.0,0.0,0.0
2025/05/25 17:17:00.521354468,1748186220,519950674,mA1/imu,0.9672752829733855,-0.2537279495992365,-0.0006792510275423182,0.0004394985391678656,0.0,0.0,0.0,0.0,0.0,0.0,0.0,0.0,0.0,-0.0002067392413244478,-0.0006152976910192784,0.0002186858342039279,0.0,0.0,0.0,0.0,0.0,0.0,0.0,0.0,0.0,0.015290006595896948,0.5194871569856152,9.811080841744609,0.0,0.0,0.0,0.0,0.0,0.0,0.0,0.0,0.0
2025/05/25 17:17:00.578186927,1748186220,574602651,mA1/imu,0.9672738299609863,-0.25373354494885825,-0.0006836601766401519,0.00039830773728536994,0.0,0.0,0.0,0.0,0.0,0.0,0.0,0.0,0.0,0.0011113263173558807,-0.0005476944335535036,0.00023726416293695814,0.0,0.0,0.0,0.0,0.0,0.0,0.0,0.0,0.0,0.014537787584452466,-0.012183081870597983,9.81144832705558,0.0,0.0,0.0,0.0,0.0,0.0,0.0,0.0,0.0
2025/05/25 17:17:00.617280365,1748186220,614438059,mA1/imu,0.9672726541975747,-0.253738087848663,-0.0006849989775326623,0.00035495476317670677,0.0,0.0,0.0,0.0,0.0,0.0,0.0,0.0,0.0,0.0012526680557215367,-0.0004394189410480215,0.0001322346572115168,0.0,0.0,0.0,0.0,0.0,0.0,0.0,0.0,0.0,0.014675513238839914,0.6341167057219619,9.812275898779276,0.0,0.0,0.0,0.0,0.0,0.0,0.0,0.0,0.0
2025/05/25 17:17:00.667840602,1748186220,665467550,mA1/imu,0.9672718425280514,-0.2537412128495888,-0.000686623687917996,0.00032878856309655473,0.0,0.0,0.0,0.0,0.0,0.0,0.0,0.0,0.0,0.0016028625144669658,-0.00025379359109800153,0.00012591449280834294,0.0,0.0,0.0,0.0,0.0,0.0,0.0,0.0,0.0,0.01265896001649617,-0.17432199085611572,9.810735149936631,0.0,0.0,0.0,0.0,0.0,0.0,0.0,0.0,0.0
2025/05/25 17:17:00.722898568,1748186220,719326298,mA1/imu,0.9672710723154113,-0.25374418549050004,-0.0006838439121706135,0.00030553078566484426,0.0,0.0,0.0,0.0,0.0,0.0,0.0,0.0,0.0,0.0008171319731697904,-3.803363431441846e-05,0.00011979477562799405,0.0,0.0,0.0,0.0,0.0,0.0,0.0,0.0,0.0,0.01245446507075367,0.012338289605263609,9.809837252538154,0.0,0.0,0.0,0.0,0.0,0.0,0.0,0.0,0.0
2025/05/25 17:17:00.775299663,1748186220,772597633,mA1/imu,0.9672703415095011,-0.25374700702962977,-0.0006774161757629862,0.00028977046613423674,0.0,0.0,0.0,0.0,0.0,0.0,0.0,0.0,0.0,0.0002506350342683045,0.00017047143075629706,0.00011391454076349851,0.0,0.0,0.0,0.0,0.0,0.0,0.0,0.0,0.0,0.012882562588343206,-0.00989678417440699,9.809801503359143,0.0,0.0,0.0,0.0,0.0,0.0,0.0,0.0,0.0
2025/05/25 17:17:00.822018793,1748186220,815964777,mA1/imu,0.9672696479487566,-0.25374968352148125,-0.0006681390026540007,0.00028259531104844055,0.0,0.0,0.0,0.0,0.0,0.0,0.0,0.0,0.0,2.107198128984485e-05,0.00036060119660096906,0.00010825606143595177,0.0,0.0,0.0,0.0,0.0,0.0,0.0,0.0,0.0,0.012873305114740994,-0.03666788253890843,9.810043449232019,0.0,0.0,0.0,0.0,0.0,0.0,0.0,0.0,0.0
2025/05/25 17:17:00.871320445,1748186220,866549630,mA1/imu,0.9672689925511777,-0.25375222183263874,-0.0006548366488133446,0.00027776427454501775,0.0,0.0,0.0,0.0,0.0,0.0,0.0,0.0,0.0,0.0009108080838323049,0.0005325413594297206,0.00010267077275474964,0.0,0.0,0.0,0.0,0.0,0.0,0.0,0.0,0.0,0.012493087867436468,-0.34162581422468286,9.809298088699109,0.0,0.0,0.0,0.0,0.0,0.0,0.0,0.0,0.0
2025/05/25 17:17:00.920594450,1748186220,919337624,mA1/imu,0.9672680779479808,-0.25375573465632106,-0.000639640357220191,0.0002887422091822011,0.0,0.0,0.0,0.0,0.0,0.0,0.0,0.0,0.0,-0.001111192196378726,0.0009430211913992206,0.0002500687735908765,0.0,0.0,0.0,0.0,0.0,0.0,0.0,0.0,0.0,-0.0057129363729027105,0.5904626811218584,9.812139811497477,0.0,0.0,0.0,0.0,0.0,0.0,0.0,0.0,0.0
2025/05/25 17:17:00.973897418,1748186220,972068079,mA1/imu,0.9672662835525723,-0.25376259445574467,-0.0006200764138742842,0.00031283018559235675,0.0,0.0,0.0,0.0,0.0,0.0,0.0,0.0,0.0,-0.0012292242704484023,0.0010177500176154956,0.0002942548512414312,0.0,0.0,0.0,0.0,0.0,0.0,0.0,0.0,0.0,0.014973706279400669,-0.11908982164391212,9.809594247578207,0.0,0.0,0.0,0.0,0.0,0.0,0.0,0.0,0.0
2025/05/25 17:17:01.25108208,1748186221,23627008,mA1/imu,0.9672643593807579,-0.25376995282716613,-0.0005991096759525554,0.0003334387886794344,0.0,0.0,0.0,0.0,0.0,0.0,0.0,0.0,0.0,-0.0010489148799655737,0.0010179848136113586,0.00031204613179519933,0.0,0.0,0.0,0.0,0.0,0.0,0.0,0.0,0.0,0.014162772848392995,-0.4657767157437921,9.809551968696749,0.0,0.0,0.0,0.0,0.0,0.0,0.0,0.0,0.0
2025/05/25 17:17:01.67311072,1748186221,65543327,mA1/imu,0.9672623223854251,-0.25377772640123036,-0.0005803663606397324,0.0003584007030600216,0.0,0.0,0.0,0.0,0.0,0.0,0.0,0.0,0.0,-0.00035070455192677747,0.0009455609438193407,0.000329208546086021,0.0,0.0,0.0,0.0,0.0,0.0,0.0,0.0,0.0,0.014500177905356935,-0.23060229394155748,9.809338508821872,0.0,0.0,0.0,0.0,0.0,0.0,0.0,0.0,0.0
2025/05/25 17:17:01.116627933,1748186221,115353065,mA1/imu,0.967260455688601,-0.25378482032339533,-0.0005665864399939623,0.0003934644938949511,0.0,0.0,0.0,0.0,0.0,0.0,0.0,0.0,0.0,-0.0015244372753773357,0.0008513526384437436,0.00027026321147249796,0.0,0.0,0.0,0.0,0.0,0.0,0.0,0.0,0.0,0.01387334244670686,0.39713295836156254,9.810609768646632,0.0,0.0,0.0,0.0,0.0,0.0,0.0,0.0,0.0
2025/05/25 17:17:01.172651544,1748186221,169817498,mA1/imu,0.967258780279923,-0.2537911791442978,-0.0005548617033954039,0.0004260145920975681,0.0,0.0,0.0,0.0,0.0,0.0,0.0,0.0,0.0,-0.0007465553205400336,0.0007399369717901275,0.0002597724286347788,0.0,0.0,0.0,0.0,0.0,0.0,0.0,0.0,0.0,0.013233666150163297,0.05571382417053305,9.809705770922761,0.0,0.0,0.0,0.0,0.0,0.0,0.0,0.0,0.0
2025/05/25 17:17:01.223118696,1748186221,221041485,mA1/imu,0.9672571812869967,-0.25379722286354783,-0.0005472452754308082,0.0004641530923158055,0.0,0.0,0.0,0.0,0.0,0.0,0.0,0.0,0.0,-0.002026656249262676,0.000640982425724609,0.00024455702705868186,0.0,0.0,0.0,0.0,0.0,0.0,0.0,0.0,0.0,0.012544872716404525,0.5964032256134959,9.810929412325192,0.0,0.0,0.0,0.0,0.0,0.0,0.0,0.0,0.0
2025/05/25 17:17:01.277317642,1748186221,274976528,mA1/imu,0.967255680454885,-0.2538028788602316,-0.0005431253164762022,0.0005023195265968374,0.0,0.0,0.0,0.0,0.0,0.0,0.0,0.0,0.0,-0.0018445678079512503,0.0004831573369462597,0.00022852411551507333,0.0,0.0,0.0,0.0,0.0,0.0,0.0,0.0,0.0,0.01255028993462801,-0.020261835582530804,9.809418370328162,0.0,0.0,0.0,0.0,0.0,0.0,0.0,0.0,0.0
2025/05/25 17:17:01.324663261,1748186221,318767629,mA1/imu,0.9672542798801396,-0.25380814363133414,-0.0005424846368085425,0.0005385075558280311,0.0,0.0,0.0,0.0,0.0,0.0,0.0,0.0,0.0,-0.0012192731378815988,0.0003263716684838654,0.00021241173919393124,0.0,0.0,0.0,0.0,0.0,0.0,0.0,0.0,0.0,0.011526181078799987,-0.6094972623607282,9.808746337279201,0.0,0.0,0.0,0.0,0.0,0.0,0.0,0.0,0.0
2025/05/25 17:17:01.370710705,1748186221,369835796,mA1/imu,0.9672529707001455,-0.2538130862672776,-0.0005419404631579536,0.0005605459457527058,0.0,0.0,0.0,0.0,0.0,0.0,0.0,0.0,0.0,-0.0014335478545595612,0.00019178220379251966,0.0002000694349430184,0.0,0.0,0.0,0.0,0.0,0.0,0.0,0.0,0.0,0.011344179257153164,-0.005853413103375048,9.809362132299215,0.0,0.0,0.0,0.0,0.0,0.0,0.0,0.0,0.0
2025/05/25 17:17:01.424709727,1748186221,421429342,mA1/imu,0.9672517387717927,-0.25381772198127306,-0.0005455699670283754,0.0005832705991345835,0.0,0.0,0.0,0.0,0.0,0.0,0.0,0.0,0.0,-0.001176678731902539,3.429455423624626e-05,0.00018698844434098658,0.0,0.0,0.0,0.0,0.0,0.0,0.0,0.0,0.0,0.01117027667421822,0.627731417646324,9.811068989603339,0.0,0.0,0.0,0.0,0.0,0.0,0.0,0.0,0.0
2025/05/25 17:17:01.478534821,1748186221,475246634,mA1/imu,0.9672505840434695,-0.253822036571742,-0.0005545143051375108,0.0006114998165349619,0.0,0.0,0.0,0.0,0.0,0.0,0.0,0.0,0.0,-0.0022615215758206813,-0.00011877378930769991,0.0001736865749603222,0.0,0.0,0.0,0.0,0.0,0.0,0.0,0.0,0.0,0.011318949616773336,0.4887822628472973,9.810651634067458,0.0,0.0,0.0,0.0,0.0,0.0,0.0,0.0,0.0
2025/05/25 17:17:01.518532700,1748186221,516346577,mA1/imu,0.9672479125628025,-0.25383219527010875,-0.0005530650879503742,0.0006216158516437729,0.0,0.0,0.0,0.0,0.0,0.0,0.0,0.0,0.0,3.750966606202204e-06,0.00028649051734622584,0.0005574803760812436,0.0,0.0,0.0,0.0,0.0,0.0,0.0,0.0,0.0,0.006067727368846975,-0.5797362596540336,9.809024403984134,0.0,0.0,0.0,0.0,0.0,0.0,0.0,0.0,0.0
2025/05/25 17:17:01.571358744,1748186221,567698192,mA1/imu,0.9672443151737968,-0.2538459011710514,-0.0005496260297447736,0.0006254069532330474,0.0,0.0,0.0,0.0,0.0,0.0,0.0,0.0,0.0,0.0013066076769538827,8.762567043841538e-05,0.0005733665695191005,0.0,0.0,0.0,0.0,0.0,0.0,0.0,0.0,0.0,0.011670300865160799,-0.5101662354243536,9.808828418635587,0.0,0.0,0.0,0.0,0.0,0.0,0.0,0.0,0.0
2025/05/25 17:17:01.623295579,1748186221,617547049,mA1/imu,0.9672406130697545,-0.2538600021573522,-0.0005507552837045566,0.0006264197729951043,0.0,0.0,0.0,0.0,0.0,0.0,0.0,0.0,0.0,0.0007078570029672528,-0.00012584864322826998,0.0005898344423224081,0.0,0.0,0.0,0.0,0.0,0.0,0.0,0.0,0.0,0.012688509966242696,0.05586753667012438,9.809756996120237,0.0,0.0,0.0,0.0,0.0,0.0,0.0,0.0,0.0
2025/05/25 17:17:01.674550702,1748186221,673506700,mA1/imu,0.9672368036855573,-0.25387450694881264,-0.000556406467735053,0.000625083583746011,0.0,0.0,0.0,0.0,0.0,0.0,0.0,0.0,0.0,-0.0010403393608883853,-0.0003126472216393097,0.0006062888062811233,0.0,0.0,0.0,0.0,0.0,0.0,0.0,0.0,0.0,0.012686143923609837,0.08321291603970371,9.810497198590134,0.0,0.0,0.0,0.0,0.0,0.0,0.0,0.0,0.0
2025/05/25 17:17:01.724898386,1748186221,722956545,mA1/imu,0.9672328964764271,-0.25388942970631817,-0.0005620784693475872,0.0006045866489847014,0.0,0.0,0.0,0.0,0.0,0.0,0.0,0.0,0.0,0.0010121831558546962,-0.0004939273109097101,0.0006229802454046055,0.0,0.0,0.0,0.0,0.0,0.0,0.0,0.0,0.0,0.011370173627478265,-0.5847566655953911,9.80954951847987,0.0,0.0,0.0,0.0,0.0,0.0,0.0,0.0,0.0
2025/05/25 17:17:01.777626220,1748186221,774814927,mA1/imu,0.9672288853256068,-0.2539047539600855,-0.0005700333771378153,0.0005782475263298815,0.0,0.0,0.0,0.0,0.0,0.0,0.0,0.0,0.0,0.00212038629006102,-0.0006296111716717063,0.0006393947061816124,0.0,0.0,0.0,0.0,0.0,0.0,0.0,0.0,0.0,0.010990258536102429,-0.4330980139456639,9.809322840006157,0.0,0.0,0.0,0.0,0.0,0.0,0.0,0.0,0.0
2025/05/25 17:17:01.815588823,1748186221,814766580,mA1/imu,0.9672247688338454,-0.2539204752013693,-0.0005802399504827207,0.000549681202980097,0.0,0.0,0.0,0.0,0.0,0.0,0.0,0.0,0.0,0.002456356838874845,-0.0007282502871718528,0.0006557697256937952,0.0,0.0,0.0,0.0,0.0,0.0,0.0,0.0,0.0,0.011274166599034248,-0.5169893633180447,9.809358217300463,0.0,0.0,0.0,0.0,0.0,0.0,0.0,0.0,0.0
2025/05/25 17:17:01.874517191,1748186221,869556669,mA1/imu,0.9672205512505873,-0.25393658262153423,-0.0005910180801304153,0.0005176317572869976,0.0,0.0,0.0,0.0,0.0,0.0,0.0,0.0,0.0,0.0025332614800397278,-0.0007619166930264887,0.0006711945484382135,0.0,0.0,0.0,0.0,0.0,0.0,0.0,0.0,0.0,0.010520808064014911,-0.5200313623867497,9.80947254167631,0.0,0.0,0.0,0.0,0.0,0.0,0.0,0.0,0.0
2025/05/25 17:17:01.926042369,1748186221,923666585,mA1/imu,0.967216236185642,-0.2539530581173141,-0.0006019245627726182,0.00048416790995645906,0.0,0.0,0.0,0.0,0.0,0.0,0.0,0.0,0.0,0.0008124789125226262,-0.0007591587990705421,0.0006861915587227437,0.0,0.0,0.0,0.0,0.0,0.0,0.0,0.0,0.0,0.011353649791817378,0.611653424682382,9.811774357264609,0.0,0.0,0.0,0.0,0.0,0.0,0.0,0.0,0.0
2025/05/25 17:17:01.976606753,1748186221,974465912,mA1/imu,0.9672118249119561,-0.25396989091905897,-0.0006128202012657792,0.00045244717455055205,0.0,0.0,0.0,0.0,0.0,0.0,0.0,0.0,0.0,0.0007821531209346959,-0.0007280719067619939,0.000700955507236603,0.0,0.0,0.0,0.0,0.0,0.0,0.0,0.0,0.0,0.010637903554968584,-0.017136144872390346,9.810683873955046,0.0,0.0,0.0,0.0,0.0,0.0,0.0,0.0,0.0
2025/05/25 17:17:02.20657632,1748186222,15741714,mA1/imu,0.9672073235478748,-0.25398707572171464,-0.0006209266232119726,0.0004160430473612866,0.0,0.0,0.0,0.0,0.0,0.0,0.0,0.0,0.0,0.0022262172913742294,-0.0006523488418724112,0.0007152422425868877,0.0,0.0,0.0,0.0,0.0,0.0,0.0,0.0,0.0,0.01012429883111503,-0.5422001852599175,9.809949431201531,0.0,0.0,0.0,0.0,0.0,0.0,0.0,0.0,0.0
2025/05/25 17:17:02.71450636,1748186222,67369503,mA1/imu,0.9672027306194394,-0.25400460628833604,-0.0006263974458760494,0.00038143524686414367,0.0,0.0,0.0,0.0,0.0,0.0,0.0,0.0,0.0,0.0024975676942641505,-0.0005092889030428031,0.000729677040909935,0.0,0.0,0.0,0.0,0.0,0.0,0.0,0.0,0.0,0.009409490146723102,-0.33087381511142966,9.809164995813509,0.0,0.0,0.0,0.0,0.0,0.0,0.0,0.0,0.0
2025/05/25 17:17:02.123069946,1748186222,120705810,mA1/imu,0.9671980412485565,-0.25402248150315393,-0.0006313117241378213,0.0003596407130683852,0.0,0.0,0.0,0.0,0.0,0.0,0.0,0.0,0.0,0.0006207197623042917,-0.0003462258286516211,0.0007445695744181015,0.0,0.0,0.0,0.0,0.0,0.0,0.0,0.0,0.0,0.010474449774671228,0.6230602940420433,9.81120319826738,0.0,0.0,0.0,0.0,0.0,0.0,0.0,0.0,0.0
2025/05/25 17:17:02.173999063,1748186222,172126618,mA1/imu,0.9671932562974211,-0.2540407061148446,-0.0006346569789251101,0.00034902719284645334,0.0,0.0,0.0,0.0,0.0,0.0,0.0,0.0,0.0,-0.00030178111332506823,-0.0001655712295691687,0.0007591472648965491,0.0,0.0,0.0,0.0,0.0,0.0,0.0,0.0,0.0,0.010337941866824346,-0.05411720320551807,9.810905077169354,0.0,0.0,0.0,0.0,0.0,0.0,0.0,0.0,0.0
2025/05/25 17:17:02.228412922,1748186222,222801298,mA1/imu,0.9671883879704177,-0.2540592760567702,-0.0006308888836743906,0.00032924749219579434,0.0,0.0,0.0,0.0,0.0,0.0,0.0,0.0,0.0,0.0014558896191042435,1.8644936104734475e-05,0.0007728416410353442,0.0,0.0,0.0,0.0,0.0,0.0,0.0,0.0,0.0,0.009598229849763624,-0.5432767522532613,9.809558454221355,0.0,0.0,0.0,0.0,0.0,0.0,0.0,0.0,0.0
2025/05/25 17:17:02.267133706,1748186222,264553832,mA1/imu,0.9671834300279596,-0.25407816242809994,-0.0006267107799646772,0.0003275516897566033,0.0,0.0,0.0,0.0,0.0,0.0,0.0,0.0,0.0,0.001451391797593692,0.00021301700198338066,0.0007864441614857281,0.0,0.0,0.0,0.0,0.0,0.0,0.0,0.0,0.0,0.00943952654712209,-0.5240720504014975,9.808591446902884,0.0,0.0,0.0,0.0,0.0,0.0,0.0,0.0,0.0
2025/05/25 17:17:02.316913671,1748186222,314934462,mA1/imu,0.9671784147982793,-0.25409726060893656,-0.0006209052096121169,0.0003325297617776694,0.0,0.0,0.0,0.0,0.0,0.0,0.0,0.0,0.0,0.0008099590868156112,0.00026021147614968,0.0007790872730639133,0.0,0.0,0.0,0.0,0.0,0.0,0.0,0.0,0.0,0.016465561871087143,-0.5500915607918476,9.808405552858456,0.0,0.0,0.0,0.0,0.0,0.0,0.0,0.0,0.0
2025/05/25 17:17:02.367550311,1748186222,366342257,mA1/imu,0.9671734817107687,-0.25411603789959974,-0.0006156096163853983,0.0003414417648861073,0.0,0.0,0.0,0.0,0.0,0.0,0.0,0.0,0.0,0.0006996086653896582,0.00030632532050081575,0.0007785268868208098,0.0,0.0,0.0,0.0,0.0,0.0,0.0,0.0,0.0,0.013140055899547746,-0.5377726388761397,9.808563167695402,0.0,0.0,0.0,0.0,0.0,0.0,0.0,0.0,0.0
2025/05/25 17:17:02.420674510,1748186222,417255966,mA1/imu,0.9671672394957535,-0.2541397896997878,-0.0006034833801103567,0.0003659854119810421,0.0,0.0,0.0,0.0,0.0,0.0,0.0,0.0,0.0,-0.001172800573521139,0.0010370165612045958,0.0011933768530056853,0.0,0.0,0.0,0.0,0.0,0.0,0.0,0.0,0.0,-0.00949900897558941,-0.014712964148149456,9.807823745191303,0.0,0.0,0.0,0.0,0.0,0.0,0.0,0.0,0.0
2025/05/25 17:17:02.473245935,1748186222,468264570,mA1/imu,0.9671591107518743,-0.25417075735373484,-0.0005800395343030702,0.0003796709248251544,0.0,0.0,0.0,0.0,0.0,0.0,0.0,0.0,0.0,-0.0019328181188164389,0.0010546758147475107,0.0013266202709876708,0.0,0.0,0.0,0.0,0.0,0.0,0.0,0.0,0.0,0.013969859012701237,0.563862628665817,9.809905300116336,0.0,0.0,0.0,0.0,0.0,0.0,0.0,0.0,0.0
2025/05/25 17:17:02.523138093,1748186222,519946942,mA1/imu,0.9671504401567389,-0.2542037187697137,-0.00056536125514915,0.00041932675275218917,0.0,0.0,0.0,0.0,0.0,0.0,0.0,0.0,0.0,-8.10337100015881e-05,0.0008765523279428815,0.0013989907334093538,0.0,0.0,0.0,0.0,0.0,0.0,0.0,0.0,0.0,0.016608096501455682,-0.5484789616630743,9.808299195671694,0.0,0.0,0.0,0.0,0.0,0.0,0.0,0.0,0.0
2025/05/25 17:17:02.575929626,1748186222,573378113,mA1/imu,0.9671414510522305,-0.2542378947078119,-0.000552514784483311,0.0004486407679951163,0.0,0.0,0.0,0.0,0.0,0.0,0.0,0.0,0.0,-0.000533176933156168,0.0007248071307964232,0.0014233424194039354,0.0,0.0,0.0,0.0,0.0,0.0,0.0,0.0,0.0,0.014063770698035457,0.05953698532449622,9.809896155869977,0.0,0.0,0.0,0.0,0.0,0.0,0.0,0.0,0.0
2025/05/25 17:17:02.616837378,1748186222,614281184,mA1/imu,0.9671323258151264,-0.2542725371227314,-0.0005483288840140915,0.0004904732700379278,0.0,0.0,0.0,0.0,0.0,0.0,0.0,0.0,0.0,-0.002338759586479449,0.0004927206651451979,0.001439523966895304,0.0,0.0,0.0,0.0,0.0,0.0,0.0,0.0,0.0,0.015639127516987105,0.572478299231893,9.810673840335124,0.0,0.0,0.0,0.0,0.0,0.0,0.0,0.0,0.0
2025/05/25 17:17:02.669489524,1748186222,667648039,mA1/imu,0.9671231337965153,-0.254307421009346,-0.0005496219223706461,0.0005268879626960442,0.0,0.0,0.0,0.0,0.0,0.0,0.0,0.0,0.0,-0.0008548062022656528,0.00020591117283450368,0.001445065270546587,0.0,0.0,0.0,0.0,0.0,0.0,0.0,0.0,0.0,0.016065376768132026,-0.5792443177962675,9.808828488047993,0.0,0.0,0.0,0.0,0.0,0.0,0.0,0.0,0.0
2025/05/25 17:17:02.720365979,1748186222,717554899,mA1/imu,0.9671137735373466,-0.25434293180493023,-0.0005585030408333414,0.000556910746794737,0.0,0.0,0.0,0.0,0.0,0.0,0.0,0.0,0.0,0.00043568483626167095,-0.0002349686857771525,0.001496132805404159,0.0,0.0,0.0,0.0,0.0,0.0,0.0,0.0,0.0,0.021840820674068062,-0.42603855278167857,9.809073315009552,0.0,0.0,0.0,0.0,0.0,0.0,0.0,0.0,0.0
2025/05/25 17:17:02.771578289,1748186222,768567325,mA1/imu,0.9671041958757393,-0.2543792079920459,-0.0005803156595865768,0.0005967366371506049,0.0,0.0,0.0,0.0,0.0,0.0,0.0,0.0,0.0,-0.001031918232472364,-0.0005936465089562905,0.0015034606092390107,0.0,0.0,0.0,0.0,0.0,0.0,0.0,0.0,0.0,0.018388664508070283,0.03292657093188632,9.81070024478956,0.0,0.0,0.0,0.0,0.0,0.0,0.0,0.0,0.0
2025/05/25 17:17:02.820443433,1748186222,818362311,mA1/imu,0.9670945996158146,-0.25441553753144375,-0.0006099831799165093,0.0006305370996650692,0.0,0.0,0.0,0.0,0.0,0.0,0.0,0.0,0.0,-0.0020481970857483315,-0.000941933167606807,0.0015015774772751895,0.0,0.0,0.0,0.0,0.0,0.0,0.0,0.0,0.0,0.019092103021392998,-0.20108504630852858,9.811159276352338,0.0,0.0,0.0,0.0,0.0,0.0,0.0,0.0,0.0
2025/05/25 17:17:02.872025421,1748186222,870285819,mA1/imu,0.9670850539452847,-0.2544516926107949,-0.0006439211481510276,0.0006480190601899893,0.0,0.0,0.0,0.0,0.0,0.0,0.0,0.0,0.0,-0.001459935315532408,-0.001247670922696918,0.0014903467482230992,0.0,0.0,0.0,0.0,0.0,0.0,0.0,0.0,0.0,0.019140319460649535,-0.018925156011382283,9.810896371540595,0.0,0.0,0.0,0.0,0.0,0.0,0.0,0.0,0.0
2025/05/25 17:17:02.922566335,1748186222,920093818,mA1/imu,0.9670727543149493,-0.25449832316211746,-0.000668812297054924,0.0006663778803240026,0.0,0.0,0.0,0.0,0.0,0.0,0.0,0.0,0.0,-0.0018855713965976306,-0.00019660147867039702,0.002392147935937784,0.0,0.0,0.0,0.0,0.0,0.0,0.0,0.0,0.0,-0.03249576876430119,0.5215974637251733,9.80870713132867,0.0,0.0,0.0,0.0,0.0,0.0,0.0,0.0,0.0
2025/05/25 17:17:02.974693524,1748186222,972972419,mA1/imu,0.9670573877137281,-0.2545566299310207,-0.0006833464183794441,0.0006812225289988165,0.0,0.0,0.0,0.0,0.0,0.0,0.0,0.0,0.0,-0.0016568582191064587,-0.0005359953624831904,0.0024246486286767645,0.0,0.0,0.0,0.0,0.0,0.0,0.0,0.0,0.0,0.022264591856091635,0.5574333066885672,9.810445794940872,0.0,0.0,0.0,0.0,0.0,0.0,0.0,0.0,0.0
2025/05/25 17:17:03.26690326,1748186223,23726417,mA1/imu,0.9670419880351485,-0.25461508053447757,-0.000702517912716154,0.0006786825705547819,0.0,0.0,0.0,0.0,0.0,0.0,0.0,0.0,0.0,0.0008354227615839162,-0.0009217388899044875,0.0023997136818851663,0.0,0.0,0.0,0.0,0.0,0.0,0.0,0.0,0.0,0.025319668188203845,0.08232586007535497,9.812042080593226,0.0,0.0,0.0,0.0,0.0,0.0,0.0,0.0,0.0
2025/05/25 17:17:03.67768834,1748186223,64618850,mA1/imu,0.9670265754382102,-0.2546735238345446,-0.0007310546265924113,0.0006813318398782446,0.0,0.0,0.0,0.0,0.0,0.0,0.0,0.0,0.0,0.0018482719843094584,-0.0011888180516188018,0.0024288052965238866,0.0,0.0,0.0,0.0,0.0,0.0,0.0,0.0,0.0,0.021004534686423344,-0.4952488734711724,9.80953171916058,0.0,0.0,0.0,0.0,0.0,0.0,0.0,0.0,0.0
2025/05/25 17:17:03.116392061,1748186223,115145632,mA1/imu,0.9670109729423021,-0.25473268965738965,-0.0007622449326209564,0.0006738039454752278,0.0,0.0,0.0,0.0,0.0,0.0,0.0,0.0,0.0,-0.00014192208249479106,-0.0013497692491947653,0.0024581268236867865,0.0,0.0,0.0,0.0,0.0,0.0,0.0,0.0,0.0,0.021817737357547468,-0.02335695439109054,9.810908030840485,0.0,0.0,0.0,0.0,0.0,0.0,0.0,0.0,0.0
2025/05/25 17:17:03.172977569,1748186223,167237220,mA1/imu,0.9669951786918957,-0.25479256840116654,-0.0007954711826404858,0.0006623441426064076,0.0,0.0,0.0,0.0,0.0,0.0,0.0,0.0,0.0,-0.0017171079363854768,-0.0014247396666834387,0.0024875015428925482,0.0,0.0,0.0,0.0,0.0,0.0,0.0,0.0,0.0,0.021564835594658032,0.4790793450515426,9.811477492509153,0.0,0.0,0.0,0.0,0.0,0.0,0.0,0.0,0.0
2025/05/25 17:17:03.217408783,1748186223,216589711,mA1/imu,0.9669793615363859,-0.25485259954837014,-0.0008220470356689804,0.000625383716303532,0.0,0.0,0.0,0.0,0.0,0.0,0.0,0.0,0.0,-0.000311784557101083,-0.0013634120851416915,0.0024452954632730294,0.0,0.0,0.0,0.0,0.0,0.0,0.0,0.0,0.0,0.021846294684904448,0.5624255761760447,9.809968280841737,0.0,0.0,0.0,0.0,0.0,0.0,0.0,0.0,0.0
2025/05/25 17:17:03.268772900,1748186223,267586762,mA1/imu,0.9669636867660244,-0.25491203946344976,-0.0008475521056746363,0.0006018869249816187,0.0,0.0,0.0,0.0,0.0,0.0,0.0,0.0,0.0,0.0007220001557758864,-0.001074944380633451,0.0024837037839688806,0.0,0.0,0.0,0.0,0.0,0.0,0.0,0.0,0.0,0.010564787989507692,0.6205584654669735,9.81199315843902,0.0,0.0,0.0,0.0,0.0,0.0,0.0,0.0,0.0
2025/05/25 17:17:03.318799852,1748186223,317470651,mA1/imu,0.9669479539560359,-0.2549717277637071,-0.0008639736826511756,0.0005709035831703885,0.0,0.0,0.0,0.0,0.0,0.0,0.0,0.0,0.0,0.0023907749903911623,-0.0010262657106228032,0.002327938174274916,0.0,0.0,0.0,0.0,0.0,0.0,0.0,0.0,0.0,0.03721948528987012,0.08531879598823344,9.809170564296206,0.0,0.0,0.0,0.0,0.0,0.0,0.0,0.0,0.0
2025/05/25 17:17:03.371312716,1748186223,368458102,mA1/imu,0.9669354279012176,-0.25501918729905027,-0.0008887447371326641,0.0005500105578815006,0.0,0.0,0.0,0.0,0.0,0.0,0.0,0.0,0.0,0.0022177308998054847,-0.0012058207952255144,0.0017909997729217795,0.0,0.0,0.0,0.0,0.0,0.0,0.0,0.0,0.0,0.008724052737975718,-0.3775148661867287,9.808470525355716,0.0,0.0,0.0,0.0,0.0,0.0,0.0,0.0,0.0
2025/05/25 17:17:03.423289411,1748186223,420167245,mA1/imu,0.96692430070131,-0.2550613390092695,-0.0009067189170451534,0.0005365788728929474,0.0,0.0,0.0,0.0,0.0,0.0,0.0,0.0,0.0,0.0009915103333373312,-0.000608710762027615,0.0016821248669681322,0.0,0.0,0.0,0.0,0.0,0.0,0.0,0.0,0.0,0.008145810441505353,-0.6337319417741376,9.81144291693625,0.0,0.0,0.0,0.0,0.0,0.0,0.0,0.0,0.0
2025/05/25 17:17:03.475651316,1748186223,471900825,mA1/imu,0.9669135192291531,-0.25510229628976006,-0.0009015758599714294,0.0005019168797259943,0.0,0.0,0.0,0.0,0.0,0.0,0.0,0.0,0.0,-0.0011850100883725873,0.00016136217207828979,0.001706116464861508,0.0,0.0,0.0,0.0,0.0,0.0,0.0,0.0,0.0,0.008337912349377453,0.47965273442442374,9.809432745810506,0.0,0.0,0.0,0.0,0.0,0.0,0.0,0.0,0.0
2025/05/25 17:17:03.523468584,1748186223,522562110,mA1/imu,0.9669031169450732,-0.25514182132569696,-0.0008845270231016154,0.000480691640780358,0.0,0.0,0.0,0.0,0.0,0.0,0.0,0.0,0.0,0.0004602266572134425,0.0006400954095302503,0.0015617260400556917,0.0,0.0,0.0,0.0,0.0,0.0,0.0,0.0,0.0,0.013268520584153103,0.5959655198054759,9.810833124775307,0.0,0.0,0.0,0.0,0.0,0.0,0.0,0.0,0.0
2025/05/25 17:17:03.570123632,1748186223,564932590,mA1/imu,0.9668931163918997,-0.2551798542904157,-0.0008523556758035606,0.00046575539133462246,0.0,0.0,0.0,0.0,0.0,0.0,0.0,0.0,0.0,0.000369512266460323,0.0014025099283509915,0.001582724013334891,0.0,0.0,0.0,0.0,0.0,0.0,0.0,0.0,0.0,0.0035827043904711024,0.592350677116575,9.810645209737917,0.0,0.0,0.0,0.0,0.0,0.0,0.0,0.0,0.0
2025/05/25 17:17:03.618376962,1748186223,615697191,mA1/imu,0.9668829163778532,-0.25521867227159617,-0.0008029641158802466,0.00045889999935709276,0.0,0.0,0.0,0.0,0.0,0.0,0.0,0.0,0.0,0.0012818109182463368,0.002115350181899086,0.0016172736745907774,0.0,0.0,0.0,0.0,0.0,0.0,0.0,0.0,0.0,0.0037648815392213562,0.03269365406792729,9.807366499419748,0.0,0.0,0.0,0.0,0.0,0.0,0.0,0.0,0.0
2025/05/25 17:17:03.668982838,1748186223,667087664,mA1/imu,0.9668724515314819,-0.2552585077440089,-0.0007382887382927168,0.00046002558910718196,0.0,0.0,0.0,0.0,0.0,0.0,0.0,0.0,0.0,0.0006513266162107094,0.0027427463745037374,0.0016656310737007346,0.0,0.0,0.0,0.0,0.0,0.0,0.0,0.0,0.0,0.0036902525809996596,-0.0041384872954288825,9.807858878161719,0.0,0.0,0.0,0.0,0.0,0.0,0.0,0.0,0.0
2025/05/25 17:17:03.721050245,1748186223,719770360,mA1/imu,0.9668620977974197,-0.2552979325571854,-0.0006599246969655259,0.00046257344727752175,0.0,0.0,0.0,0.0,0.0,0.0,0.0,0.0,0.0,0.001180240620776525,0.0032424855360717805,0.0016098731089523941,0.0,0.0,0.0,0.0,0.0,0.0,0.0,0.0,0.0,0.0025299826367765153,-0.2424049574694862,9.808074260721881,0.0,0.0,0.0,0.0,0.0,0.0,0.0,0.0,0.0
2025/05/25 17:17:03.776912030,1748186223,773417787,mA1/imu,0.966851759706627,-0.25533724676537084,-0.0005755920898353526,0.0004835909687588942,0.0,0.0,0.0,0.0,0.0,0.0,0.0,0.0,0.0,-0.00043649908975176973,0.0036016632666762056,0.0016480808289315982,0.0,0.0,0.0,0.0,0.0,0.0,0.0,0.0,0.0,0.0028370207597463483,-0.059474197071847146,9.808213631179868,0.0,0.0,0.0,0.0,0.0,0.0,0.0,0.0,0.0
2025/05/25 17:17:03.816264237,1748186223,814047442,mA1/imu,0.9668411329820912,-0.2553776794305441,-0.0004793065211829695,0.0004844459056826681,0.0,0.0,0.0,0.0,0.0,0.0,0.0,0.0,0.0,-0.0012222421428837059,0.0038258138784802898,0.0016951321911135445,0.0,0.0,0.0,0.0,0.0,0.0,0.0,0.0,0.0,2.4332628011172752e-05,0.5307511512681636,9.808622067030658,0.0,0.0,0.0,0.0,0.0,0.0,0.0,0.0,0.0
2025/05/25 17:17:03.882240513,1748186223,875657658,mA1/imu,0.9668300538431243,-0.2554197338886296,-0.0003870813516633566,0.0005066497707712905,0.0,0.0,0.0,0.0,0.0,0.0,0.0,0.0,0.0,0.0004930747412266367,0.003772484114228865,0.0017704978520120236,0.0,0.0,0.0,0.0,0.0,0.0,0.0,0.0,0.0,0.0008725552978570972,0.607037123103891,9.810490103922405,0.0,0.0,0.0,0.0,0.0,0.0,0.0,0.0,0.0
2025/05/25 17:17:03.922335994,1748186223,920851676,mA1/imu,0.9668186881361966,-0.25546281629755563,-0.00029982891529763714,0.0005327875250507891,0.0,0.0,0.0,0.0,0.0,0.0,0.0,0.0,0.0,0.0003438956043756097,0.0034725390913624005,0.0017535661306906035,0.0,0.0,0.0,0.0,0.0,0.0,0.0,0.0,0.0,0.008815921413086859,0.032256165001109054,9.80738694933547,0.0,0.0,0.0,0.0,0.0,0.0,0.0,0.0,0.0
2025/05/25 17:17:03.975323773,1748186223,971901083,mA1/imu,0.9668076723378675,-0.25550452639665827,-0.00022383182067266675,0.0005582103276272296,0.0,0.0,0.0,0.0,0.0,0.0,0.0,0.0,0.0,1.6823770172930996e-05,0.0030049927793305902,0.0017175640672139393,0.0,0.0,0.0,0.0,0.0,0.0,0.0,0.0,0.0,0.0029591723252414418,0.4311899557191503,9.809578545460806,0.0,0.0,0.0,0.0,0.0,0.0,0.0,0.0,0.0
2025/05/25 17:17:04.26018711,1748186224,23235166,mA1/imu,0.9667971557911487,-0.25554429749115765,-0.00016263958971096884,0.0005874710716787349,0.0,0.0,0.0,0.0,0.0,0.0,0.0,0.0,0.0,-0.001082584660448912,0.002430107543060955,0.0016001763709674063,0.0,0.0,0.0,0.0,0.0,0.0,0.0,0.0,0.0,0.0021617943333199115,0.5869899125555308,9.811011087453194,0.0,0.0,0.0,0.0,0.0,0.0,0.0,0.0,0.0
2025/05/25 17:17:04.77904734,1748186224,74628605,mA1/imu,0.9667870990566869,-0.2555823075378369,-0.00011708977184262547,0.0006127488684947769,0.0,0.0,0.0,0.0,0.0,0.0,0.0,0.0,0.0,-0.00019983614960971795,0.00173989524051219,0.0015561887389588468,0.0,0.0,0.0,0.0,0.0,0.0,0.0,0.0,0.0,0.0018121471012045843,-0.09586361438342843,9.810173070325773,0.0,0.0,0.0,0.0,0.0,0.0,0.0,0.0,0.0
2025/05/25 17:17:04.119641215,1748186224,114485325,mA1/imu,0.9667771655941471,-0.2556198148289935,-9.096531430592091e-05,0.0006434888109137023,0.0,0.0,0.0,0.0,0.0,0.0,0.0,0.0,0.0,-0.00011482578704691001,0.0010232035330616587,0.0015555497947543266,0.0,0.0,0.0,0.0,0.0,0.0,0.0,0.0,0.0,0.0005101921383324985,-0.5883650982393278,9.808620999664052,0.0,0.0,0.0,0.0,0.0,0.0,0.0,0.0,0.0
2025/05/25 17:17:04.171635400,1748186224,167989995,mA1/imu,0.966767334524734,-0.2556569591349406,-8.050669716177435e-05,0.0006585290336523058,0.0,0.0,0.0,0.0,0.0,0.0,0.0,0.0,0.0,0.00027384488843164144,0.0002234595027686306,0.0015266247188871012,0.0,0.0,0.0,0.0,0.0,0.0,0.0,0.0,0.0,0.003654561142180465,-0.5567609351998715,9.809599749386255,0.0,0.0,0.0,0.0,0.0,0.0,0.0,0.0,0.0
2025/05/25 17:17:04.221699550,1748186224,219451375,mA1/imu,0.9667575759117855,-0.2556938052482985,-9.290761285247345e-05,0.0006773056836706607,0.0,0.0,0.0,0.0,0.0,0.0,0.0,0.0,0.0,-0.0007151867522038226,-0.0006144678391694081,0.0015395755431259516,0.0,0.0,0.0,0.0,0.0,0.0,0.0,0.0,0.0,0.0007798563439387195,0.004132082991744852,9.810758972625285,0.0,0.0,0.0,0.0,0.0,0.0,0.0,0.0,0.0
2025/05/25 17:17:04.271941250,1748186224,270837466,mA1/imu,0.9667476643994446,-0.2557312328547079,-0.00012410476611873073,0.0006888532768427658,0.0,0.0,0.0,0.0,0.0,0.0,0.0,0.0,0.0,-0.0007802858522087354,-0.0014155741653280546,0.0015403888668167347,0.0,0.0,0.0,0.0,0.0,0.0,0.0,0.0,0.0,0.003625459773455295,-0.0004239748116350618,9.81143603730614,0.0,0.0,0.0,0.0,0.0,0.0,0.0,0.0,0.0
2025/05/25 17:17:04.324252698,1748186224,321286692,mA1/imu,0.9667375714167663,-0.2557693361067157,-0.00017236578600906025,0.0006964257163707765,0.0,0.0,0.0,0.0,0.0,0.0,0.0,0.0,0.0,-0.0007728185043089367,-0.0019141346808077887,0.0016906174989230653,0.0,0.0,0.0,0.0,0.0,0.0,0.0,0.0,0.0,-0.014463712143525518,0.008096581794992917,9.811678051685115,0.0,0.0,0.0,0.0,0.0,0.0,0.0,0.0,0.0
2025/05/25 17:17:04.380583548,1748186224,375349606,mA1/imu,0.9667260012864546,-0.2558130081512533,-0.0002317558689004818,0.000699704599002043,0.0,0.0,0.0,0.0,0.0,0.0,0.0,0.0,0.0,0.00030224590186018156,-0.00253304281040175,0.0018447693295245797,0.0,0.0,0.0,0.0,0.0,0.0,0.0,0.0,0.0,0.0056156593114866215,-0.5624451187409488,9.810157384817263,0.0,0.0,0.0,0.0,0.0,0.0,0.0,0.0,0.0
2025/05/25 17:17:04.420234648,1748186224,417857062,mA1/imu,0.9667143224199736,-0.2558570490838642,-0.0003081811266164185,0.0007030551768258674,0.0,0.0,0.0,0.0,0.0,0.0,0.0,0.0,0.0,-0.001156818139625412,-0.003177728270618672,0.0018038918485909418,0.0,0.0,0.0,0.0,0.0,0.0,0.0,0.0,0.0,0.007359832260074315,-0.6687868271512108,9.811434665355412,0.0,0.0,0.0,0.0,0.0,0.0,0.0,0.0,0.0
2025/05/25 17:17:04.475702625,1748186224,470431585,mA1/imu,0.9667027819521907,-0.2559006083267243,-0.0003903558798542412,0.0006764955246265533,0.0,0.0,0.0,0.0,0.0,0.0,0.0,0.0,0.0,-0.0010569256452391752,-0.003594505426884219,0.0017961113604888883,0.0,0.0,0.0,0.0,0.0,0.0,0.0,0.0,0.0,0.005915882232647051,0.5796637177258671,9.811445288157744,0.0,0.0,0.0,0.0,0.0,0.0,0.0,0.0,0.0
2025/05/25 17:17:04.525086948,1748186224,523376709,mA1/imu,0.9666910015312165,-0.25594496130016026,-0.0004851189454547145,0.0006700770418068477,0.0,0.0,0.0,0.0,0.0,0.0,0.0,0.0,0.0,0.0006379897479578255,-0.003818631551332773,0.0018564755296405716,0.0,0.0,0.0,0.0,0.0,0.0,0.0,0.0,0.0,0.006430735443524477,-0.5614789736378264,9.80997532025784,0.0,0.0,0.0,0.0,0.0,0.0,0.0,0.0,0.0
2025/05/25 17:17:04.566949319,1748186224,564895144,mA1/imu,0.9666790749664619,-0.25598986466646717,-0.0005795303687443026,0.0006475759268926515,0.0,0.0,0.0,0.0,0.0,0.0,0.0,0.0,0.0,-0.0006934868670751188,-0.0038998665828832947,0.0018534540929762773,0.0,0.0,0.0,0.0,0.0,0.0,0.0,0.0,0.0,0.00679697572118488,0.5941941142551393,9.81117498746312,0.0,0.0,0.0,0.0,0.0,0.0,0.0,0.0,0.0
2025/05/25 17:17:04.618972483,1748186224,616180082,mA1/imu,0.966667115338518,-0.25603484847344177,-0.0006736223186586902,0.000625078604422992,0.0,0.0,0.0,0.0,0.0,0.0,0.0,0.0,0.0,-0.0008044171416684171,-0.0038266869240880554,0.0018808442552806005,0.0,0.0,0.0,0.0,0.0,0.0,0.0,0.0,0.0,0.011288825146173267,0.5806257378570124,9.809815298519233,0.0,0.0,0.0,0.0,0.0,0.0,0.0,0.0,0.0
2025/05/25 17:17:04.669937019,1748186224,668468632,mA1/imu,0.9666548124129553,-0.2560810981906537,-0.0007641114190056135,0.0006007679107708314,0.0,0.0,0.0,0.0,0.0,0.0,0.0,0.0,0.0,0.0006160453215689254,-0.003639238357615426,0.0019146105917898853,0.0,0.0,0.0,0.0,0.0,0.0,0.0,0.0,0.0,0.00843673531714998,-0.5994644404757298,9.80989221867775,0.0,0.0,0.0,0.0,0.0,0.0,0.0,0.0,0.0
2025/05/25 17:17:04.719760888,1748186224,718379644,mA1/imu,0.9666426840054047,-0.2561267096501361,-0.000843422811232758,0.000564535724139579,0.0,0.0,0.0,0.0,0.0,0.0,0.0,0.0,0.0,0.002109100076988293,-0.003308708476785689,0.0018537643284251835,0.0,0.0,0.0,0.0,0.0,0.0,0.0,0.0,0.0,0.012799169689846181,-0.507779372378334,9.809307311356719,0.0,0.0,0.0,0.0,0.0,0.0,0.0,0.0,0.0
2025/05/25 17:17:04.774624984,1748186224,771453203,mA1/imu,0.9666307967999944,-0.25617137128278117,-0.000913922278245127,0.0005440211178640752,0.0,0.0,0.0,0.0,0.0,0.0,0.0,0.0,0.0,0.0008805296706691025,-0.0026889428024642597,0.001842000516370622,0.0,0.0,0.0,0.0,0.0,0.0,0.0,0.0,0.0,0.008238240411250262,0.030760184233205437,9.808153019549772,0.0,0.0,0.0,0.0,0.0,0.0,0.0,0.0,0.0
2025/05/25 17:17:04.823577585,1748186224,820763522,mA1/imu,0.9666186883029508,-0.25621694072090323,-0.0009626381662692577,0.000513847122064272,0.0,0.0,0.0,0.0,0.0,0.0,0.0,0.0,0.0,0.0003512646603457156,-0.0018626900944887974,0.0019114776737464319,0.0,0.0,0.0,0.0,0.0,0.0,0.0,0.0,0.0,0.008674886880349831,0.07099100385535939,9.807943938426863,0.0,0.0,0.0,0.0,0.0,0.0,0.0,0.0,0.0
2025/05/25 17:17:04.876382120,1748186224,873241838,mA1/imu,0.9666063878913858,-0.256263288988534,-0.000991220474930321,0.00048485700716989163,0.0,0.0,0.0,0.0,0.0,0.0,0.0,0.0,0.0,0.0010349065732002836,-0.0010829251785310211,0.001920328002238627,0.0,0.0,0.0,0.0,0.0,0.0,0.0,0.0,0.0,0.010186965833531932,0.023722681254253745,9.809800876315382,0.0,0.0,0.0,0.0,0.0,0.0,0.0,0.0,0.0
2025/05/25 17:17:04.931135720,1748186224,923904965,mA1/imu,0.9665942085956133,-0.25630922486165997,-0.0010015856827705822,0.0004625865918298235,0.0,0.0,0.0,0.0,0.0,0.0,0.0,0.0,0.0,0.001230883884837787,-0.0003293569647047272,0.0018853370905953482,0.0,0.0,0.0,0.0,0.0,0.0,0.0,0.0,0.0,0.011814396883329244,-0.2128981217018508,9.809420872405548,0.0,0.0,0.0,0.0,0.0,0.0,0.0,0.0,0.0
2025/05/25 17:17:04.969335679,1748186224,966444754,mA1/imu,0.9665821494042689,-0.2563547674196671,-0.0009924140061161025,0.00044360869284965955,0.0,0.0,0.0,0.0,0.0,0.0,0.0,0.0,0.0,0.000577186123326349,0.00047750902582204127,0.0018829178738985915,0.0,0.0,0.0,0.0,0.0,0.0,0.0,0.0,0.0,0.011104386892870709,0.2567203690921856,9.80800685992272,0.0,0.0,0.0,0.0,0.0,0.0,0.0,0.0,0.0
2025/05/25 17:17:05.16991663,1748186225,16238437,mA1/imu,0.9665702978989589,-0.25639958044125105,-0.0009648344339726686,0.000428326491925209,0.0,0.0,0.0,0.0,0.0,0.0,0.0,0.0,0.0,0.0009165770841021647,0.001170835217461596,0.0018233692630436255,0.0,0.0,0.0,0.0,0.0,0.0,0.0,0.0,0.0,0.014995803290705784,0.05753421621279543,9.807375086371225,0.0,0.0,0.0,0.0,0.0,0.0,0.0,0.0,0.0
2025/05/25 17:17:05.69532204,1748186225,67233064,mA1/imu,0.9665587055884535,-0.25644345204132835,-0.0009213535403594904,0.000419122838517098,0.0,0.0,0.0,0.0,0.0,0.0,0.0,0.0,0.0,0.0018141635789286142,0.001843270036512519,0.0018099963359886828,0.0,0.0,0.0,0.0,0.0,0.0,0.0,0.0,0.0,0.012526856568141754,-0.5577555615159356,9.80873754336858,0.0,0.0,0.0,0.0,0.0,0.0,0.0,0.0,0.0
2025/05/25 17:17:05.120584681,1748186225,119228200,mA1/imu,0.9665469007488566,-0.2564881619894776,-0.0008612027372130657,0.00041199743321249403,0.0,0.0,0.0,0.0,0.0,0.0,0.0,0.0,0.0,0.0013775457567771602,0.002507168015947301,0.0018957353185238392,0.0,0.0,0.0,0.0,0.0,0.0,0.0,0.0,0.0,0.009799225443943363,0.04522262495001041,9.809873078368893,0.0,0.0,0.0,0.0,0.0,0.0,0.0,0.0,0.0
2025/05/25 17:17:05.171996655,1748186225,170209012,mA1/imu,0.9665347568546047,-0.2565341320837107,-0.0007922098159828186,0.000418654600782714,0.0,0.0,0.0,0.0,0.0,0.0,0.0,0.0,0.0,-0.0002556764604817715,0.0028554298532570375,0.0019086267758767876,0.0,0.0,0.0,0.0,0.0,0.0,0.0,0.0,0.0,0.016145359652570215,0.17753830381693378,9.809782585480896,0.0,0.0,0.0,0.0,0.0,0.0,0.0,0.0,0.0
2025/05/25 17:17:05.222585134,1748186225,220594725,mA1/imu,0.9665226963868565,-0.2565797825298835,-0.0007171443712236767,0.00042222026115417907,0.0,0.0,0.0,0.0,0.0,0.0,0.0,0.0,0.0,0.0013002959776712549,0.002955271000183833,0.0018762369328547306,0.0,0.0,0.0,0.0,0.0,0.0,0.0,0.0,0.0,0.017783930266727158,-0.5721578981515857,9.807877852862962,0.0,0.0,0.0,0.0,0.0,0.0,0.0,0.0,0.0
2025/05/25 17:17:05.274792294,1748186225,272912116,mA1/imu,0.9665107117801311,-0.2566251138941698,-0.000641788216690636,0.00042783285684344326,0.0,0.0,0.0,0.0,0.0,0.0,0.0,0.0,0.0,0.0007978264603237317,0.0029425541530645393,0.0018774640781576855,0.0,0.0,0.0,0.0,0.0,0.0,0.0,0.0,0.0,0.01766493602668988,-0.524236619236001,9.808871741143824,0.0,0.0,0.0,0.0,0.0,0.0,0.0,0.0,0.0
2025/05/25 17:17:05.324733672,1748186225,322171948,mA1/imu,0.9664986602111834,-0.25667064989840804,-0.0005714574351039585,0.0004367231573655669,0.0,0.0,0.0,0.0,0.0,0.0,0.0,0.0,0.0,0.0005924169852226478,0.0026714198884262904,0.0019030942066289417,0.0,0.0,0.0,0.0,0.0,0.0,0.0,0.0,0.0,0.022680149909070996,0.03135228163591537,9.810218368234008,0.0,0.0,0.0,0.0,0.0,0.0,0.0,0.0,0.0
2025/05/25 17:17:05.369498911,1748186225,366547716,mA1/imu,0.9664863922506299,-0.2567169364215511,-0.0005129331861821081,0.0004528225275266793,0.0,0.0,0.0,0.0,0.0,0.0,0.0,0.0,0.0,-0.0003236729172933537,0.002255690347294578,0.0019210073236582204,0.0,0.0,0.0,0.0,0.0,0.0,0.0,0.0,0.0,0.0193517037447815,0.1290347608685366,9.810955091794172,0.0,0.0,0.0,0.0,0.0,0.0,0.0,0.0,0.0
2025/05/25 17:17:05.422017907,1748186225,418678657,mA1/imu,0.9664733599563867,-0.25676606082570674,-0.00046241069486980375,0.0004697648466225334,0.0,0.0,0.0,0.0,0.0,0.0,0.0,0.0,0.0,-0.0006993132077861496,0.002010527927179032,0.0021034744717171963,0.0,0.0,0.0,0.0,0.0,0.0,0.0,0.0,0.0,0.01690842517060437,-0.03164565508956689,9.81078668185432,0.0,0.0,0.0,0.0,0.0,0.0,0.0,0.0,0.0
2025/05/25 17:17:05.474613866,1748186225,470790480,mA1/imu,0.9664598104169166,-0.2568171066440809,-0.0004232920571605566,0.00047896523321464874,0.0,0.0,0.0,0.0,0.0,0.0,0.0,0.0,0.0,-0.00036976836360625304,0.0013300809727509208,0.002120386556471545,0.0,0.0,0.0,0.0,0.0,0.0,0.0,0.0,0.0,0.022441948962545862,0.0005476003114756444,9.81144103787703,0.0,0.0,0.0,0.0,0.0,0.0,0.0,0.0,0.0
2025/05/25 17:17:05.523865288,1748186225,520646669,mA1/imu,0.9664457834408006,-0.25686988502758384,-0.00040546358822237885,0.0004954136570579359,0.0,0.0,0.0,0.0,0.0,0.0,0.0,0.0,0.0,-0.0007229435226690093,0.0005325847564187216,0.002231468238260815,0.0,0.0,0.0,0.0,0.0,0.0,0.0,0.0,0.0,0.023713419007503143,0.5960322017171887,9.813126458467547,0.0,0.0,0.0,0.0,0.0,0.0,0.0,0.0,0.0
2025/05/25 17:17:05.574250045,1748186225,571688522,mA1/imu,0.9664312265591615,-0.2569246015027696,-0.00041008725444459837,0.0005150751803036371,0.0,0.0,0.0,0.0,0.0,0.0,0.0,0.0,0.0,-0.0005095904648278542,-0.000317718332544884,0.0022876264736861746,0.0,0.0,0.0,0.0,0.0,0.0,0.0,0.0,0.0,0.022603503971354678,0.014578971194586798,9.811792535164136,0.0,0.0,0.0,0.0,0.0,0.0,0.0,0.0,0.0
2025/05/25 17:17:05.624050300,1748186225,621926331,mA1/imu,0.9664163528102097,-0.2569804805165618,-0.00043400200808622067,0.0005265897323964312,0.0,0.0,0.0,0.0,0.0,0.0,0.0,0.0,0.0,-0.000788274642129638,-0.0011559242852700405,0.002313148410230803,0.0,0.0,0.0,0.0,0.0,0.0,0.0,0.0,0.0,0.02652576347147954,0.005863552665742764,9.8095623526038,0.0,0.0,0.0,0.0,0.0,0.0,0.0,0.0,0.0
2025/05/25 17:17:05.680351101,1748186225,676387640,mA1/imu,0.9664013125898658,-0.2570369498442385,-0.0004766852131615331,0.0005312349407351496,0.0,0.0,0.0,0.0,0.0,0.0,0.0,0.0,0.0,0.0007181163473710636,-0.0018798027775399496,0.002356479124142871,0.0,0.0,0.0,0.0,0.0,0.0,0.0,0.0,0.0,0.021480588759316226,-0.17603809251314567,9.810422880429762,0.0,0.0,0.0,0.0,0.0,0.0,0.0,0.0,0.0
2025/05/25 17:17:05.721768149,1748186225,717773513,mA1/imu,0.9663859123027138,-0.25709466984745866,-0.0005406468503559381,0.000554021534975078,0.0,0.0,0.0,0.0,0.0,0.0,0.0,0.0,0.0,-0.0021309866267508965,-0.0024677254026242517,0.0024105103972785562,0.0,0.0,0.0,0.0,0.0,0.0,0.0,0.0,0.0,0.0215601367410105,-0.1427110360781873,9.813222116574654,0.0,0.0,0.0,0.0,0.0,0.0,0.0,0.0,0.0
2025/05/25 17:17:05.770808533,1748186225,768747279,mA1/imu,0.9663701558720424,-0.25715371706276957,-0.0006128503812505174,0.0005586188823764372,0.0,0.0,0.0,0.0,0.0,0.0,0.0,0.0,0.0,-0.0017135536595710508,-0.002898683970982032,0.002464992035678947,0.0,0.0,0.0,0.0,0.0,0.0,0.0,0.0,0.0,0.020985532981240458,-0.24922968543006851,9.811395918648286,0.0,0.0,0.0,0.0,0.0,0.0,0.0,0.0,0.0
2025/05/25 17:17:05.823804914,1748186225,821881636,mA1/imu,0.966354027149971,-0.2572141064840763,-0.0006933920307343259,0.0005628890858262048,0.0,0.0,0.0,0.0,0.0,0.0,0.0,0.0,0.0,-0.0016158817094715607,-0.003154392128534815,0.002520932279410967,0.0,0.0,0.0,0.0,0.0,0.0,0.0,0.0,0.0,0.01990119533482637,-0.04157138459417667,9.811694631501934,0.0,0.0,0.0,0.0,0.0,0.0,0.0,0.0,0.0
2025/05/25 17:17:05.875171638,1748186225,873609216,mA1/imu,0.9663375293478977,-0.257275839822808,-0.0007766395384074401,0.0005643122334090852,0.0,0.0,0.0,0.0,0.0,0.0,0.0,0.0,0.0,-0.0018433766523889648,-0.003210458042263419,0.002576091228419795,0.0,0.0,0.0,0.0,0.0,0.0,0.0,0.0,0.0,0.018979551517624593,-0.06299336041890714,9.812019606474875,0.0,0.0,0.0,0.0,0.0,0.0,0.0,0.0,0.0
2025/05/25 17:17:05.926595984,1748186225,923210484,mA1/imu,0.9663210034871214,-0.2573376502115266,-0.0008586074142611046,0.0005610673408369115,0.0,0.0,0.0,0.0,0.0,0.0,0.0,0.0,0.0,-0.0012926262584373614,-0.003223970796035636,0.0024594344182571476,0.0,0.0,0.0,0.0,0.0,0.0,0.0,0.0,0.0,0.02987067648605917,0.3624462441588856,9.811119900671752,0.0,0.0,0.0,0.0,0.0,0.0,0.0,0.0,0.0
