time,header_stamp_secs,header_stamp_nsecs,header_frame_id,orientation_x,orientation_y,orientation_z,orientation_w,orientation_covariance_0,orientation_covariance_1,orientation_covariance_2,orientation_covariance_3,orientation_covariance_4,orientation_covariance_5,orientation_covariance_6,orientation_covariance_7,orientation_covariance_8,angular_velocity_x,angular_velocity_y,angular_velocity_z,angular_velocity_covariance_0,angular_velocity_covariance_1,angular_velocity_covariance_2,angular_velocity_covariance_3,angular_velocity_covariance_4,angular_velocity_covariance_5,angular_velocity_covariance_6,angular_velocity_covariance_7,angular_velocity_covariance_8,linear_acceleration_x,linear_acceleration_y,linear_acceleration_z,linear_acceleration_covariance_0,linear_acceleration_covariance_1,linear_acceleration_covariance_2,linear_acceleration_covariance_3,linear_acceleration_covariance_4,linear_acceleration_covariance_5,linear_acceleration_covariance_6,linear_acceleration_covariance_7,linear_acceleration_covariance_8
2025/05/21 11:26:18.550301777,1747819578,534682543,mA1/imu,0.2762614882030819,-0.9610820853392351,-0.0008866334941834604,-0.00017104634629405135,0.0,0.0,0.0,0.0,0.0,0.0,0.0,0.0,0.0,3.368901794010557e-05,0.00012975118842554405,-6.08944542911237e-05,0.0,0.0,0.0,0.0,0.0,0.0,0.0,0.0,0.0,0.007805150666071585,-0.01604568680626858,9.80907503436946,0.0,0.0,0.0,0.0,0.0,0.0,0.0,0.0,0.0
2025/05/21 11:26:18.586707946,1747819578,586499590,mA1/imu,0.27626294971241,-0.9610816676490415,-0.0008845849177980644,-0.00016803172050285588,0.0,0.0,0.0,0.0,0.0,0.0,0.0,0.0,0.0,5.195259870856734e-05,0.00014344531539415336,-6.058643572413079e-05,0.0,0.0,0.0,0.0,0.0,0.0,0.0,0.0,0.0,0.00781464221622504,-0.015657860081700753,9.808610748705846,0.0,0.0,0.0,0.0,0.0,0.0,0.0,0.0,0.0
2025/05/21 11:26:18.629578733,1747819578,627593560,mA1/imu,0.27626440468319396,-0.9610812522309788,-0.0008821084977511691,-0.00016492353354125445,0.0,0.0,0.0,0.0,0.0,0.0,0.0,0.0,0.0,6.580900226024153e-05,0.0001481062225112036,-6.033165957913277e-05,0.0,0.0,0.0,0.0,0.0,0.0,0.0,0.0,0.0,0.00787222314096582,-0.01591569571023082,9.811009527661883,0.0,0.0,0.0,0.0,0.0,0.0,0.0,0.0,0.0
2025/05/21 11:26:18.678103468,1747819578,677984084,mA1/imu,0.27626585373780177,-0.9610808387155123,-0.0008793755280742247,-0.00016189839813855752,0.0,0.0,0.0,0.0,0.0,0.0,0.0,0.0,0.0,7.535562554109437e-05,0.0001441902894285428,-6.009885385247767e-05,0.0,0.0,0.0,0.0,0.0,0.0,0.0,0.0,0.0,0.007895667073630501,-0.015842352540648936,9.810574925819042,0.0,0.0,0.0,0.0,0.0,0.0,0.0,0.0,0.0
2025/05/21 11:26:18.731432659,1747819578,730988128,mA1/imu,0.2762672973894579,-0.9610804267093511,-0.0008766246598129039,-0.00015911788802485646,0.0,0.0,0.0,0.0,0.0,0.0,0.0,0.0,0.0,7.255893422757325e-05,0.000131688254712636,-5.988945117045995e-05,0.0,0.0,0.0,0.0,0.0,0.0,0.0,0.0,0.0,0.007940996010279117,-0.015907653249584982,9.808618919986346,0.0,0.0,0.0,0.0,0.0,0.0,0.0,0.0,0.0
2025/05/21 11:26:18.781084875,1747819578,780874770,mA1/imu,0.27626873595310847,-0.961080016000752,-0.0008739599970373673,-0.00015675710395393285,0.0,0.0,0.0,0.0,0.0,0.0,0.0,0.0,0.0,7.75805642754729e-05,0.00011175299107256097,-5.969504862356403e-05,0.0,0.0,0.0,0.0,0.0,0.0,0.0,0.0,0.0,0.007943451576463426,-0.01559438579973172,9.808231432730693,0.0,0.0,0.0,0.0,0.0,0.0,0.0,0.0,0.0
2025/05/21 11:26:18.835367261,1747819578,831996629,mA1/imu,0.2762701691435945,-0.9610796066145034,-0.0008714196690560043,-0.00015498013237162807,0.0,0.0,0.0,0.0,0.0,0.0,0.0,0.0,0.0,7.736498894271265e-05,8.549763885198597e-05,-5.9491669068352205e-05,0.0,0.0,0.0,0.0,0.0,0.0,0.0,0.0,0.0,0.007972389612710028,-0.015900025814036694,9.810750452201296,0.0,0.0,0.0,0.0,0.0,0.0,0.0,0.0,0.0
2025/05/21 11:26:18.880098021,1747819578,876408528,mA1/imu,0.27627159641831556,-0.9610791985551357,-0.0008691601271512145,-0.00015387581624858908,0.0,0.0,0.0,0.0,0.0,0.0,0.0,0.0,0.0,7.258330299844181e-05,5.4969838874470405e-05,-5.9262410168784025e-05,0.0,0.0,0.0,0.0,0.0,0.0,0.0,0.0,0.0,0.0079677105089767,-0.015857759724592375,9.810404708227386,0.0,0.0,0.0,0.0,0.0,0.0,0.0,0.0,0.0
2025/05/21 11:26:18.929166851,1747819578,928380593,mA1/imu,0.2762730170851886,-0.961078791907331,-0.0008673046152069296,-0.00015349037924718498,0.0,0.0,0.0,0.0,0.0,0.0,0.0,0.0,0.0,6.311397314133031e-05,2.217700647159552e-05,-5.899853916154978e-05,0.0,0.0,0.0,0.0,0.0,0.0,0.0,0.0,0.0,0.007959314949865454,-0.015419060649637356,9.808618887827611,0.0,0.0,0.0,0.0,0.0,0.0,0.0,0.0,0.0
2025/05/21 11:26:18.979041184,1747819578,977460630,mA1/imu,0.27627443041685595,-0.9610783868039456,-0.0008659404097198285,-0.00015382904225650507,0.0,0.0,0.0,0.0,0.0,0.0,0.0,0.0,0.0,5.087844989136827e-05,-1.130203877765027e-05,-5.8709242548750205e-05,0.0,0.0,0.0,0.0,0.0,0.0,0.0,0.0,0.0,0.00795280976997525,-0.015418466755331187,9.808330579609043,0.0,0.0,0.0,0.0,0.0,0.0,0.0,0.0,0.0
2025/05/21 11:26:19.29406828,1747819579,29131272,mA1/imu,0.27627583563296976,-0.9610779834264888,-0.0008651229707204563,-0.00015485613883978907,0.0,0.0,0.0,0.0,0.0,0.0,0.0,0.0,0.0,3.686898006922779e-05,-4.2824781606342245e-05,-5.8388703707388826e-05,0.0,0.0,0.0,0.0,0.0,0.0,0.0,0.0,0.0,0.007914311696706072,-0.01587796761793973,9.810967231571063,0.0,0.0,0.0,0.0,0.0,0.0,0.0,0.0,0.0
2025/05/21 11:26:19.79654657,1747819579,79387780,mA1/imu,0.27627723197873477,-0.9610775819778985,-0.0008648810856464449,-0.00015649406324245071,0.0,0.0,0.0,0.0,0.0,0.0,0.0,0.0,0.0,2.1158640854594157e-05,-7.134670391681978e-05,-5.803052522463757e-05,0.0,0.0,0.0,0.0,0.0,0.0,0.0,0.0,0.0,0.007900149677101955,-0.015878347031946308,9.81071944305283,0.0,0.0,0.0,0.0,0.0,0.0,0.0,0.0,0.0
2025/05/21 11:26:19.132005554,1747819579,131609791,mA1/imu,0.2762756819886701,-0.9610780288280996,-0.0008636008308572432,-0.0001556894179500963,0.0,0.0,0.0,0.0,0.0,0.0,0.0,0.0,0.0,7.084743819187872e-05,0.00023779390892931127,0.0002499080554477836,0.0,0.0,0.0,0.0,0.0,0.0,0.0,0.0,0.0,-0.010048218223233676,-0.0018774759389602012,9.80721729721311,0.0,0.0,0.0,0.0,0.0,0.0,0.0,0.0,0.0
2025/05/21 11:26:19.181718717,1747819579,181507602,mA1/imu,0.2762658835049137,-0.9610808500165895,-0.000859611413244469,-0.00014970256430159678,0.0,0.0,0.0,0.0,0.0,0.0,0.0,0.0,0.0,9.195389981725863e-05,0.00021004594174133903,0.000461074699393763,0.0,0.0,0.0,0.0,0.0,0.0,0.0,0.0,0.0,0.011216040849439567,-0.011829905727747078,9.808058314985958,0.0,0.0,0.0,0.0,0.0,0.0,0.0,0.0,0.0
2025/05/21 11:26:19.232808158,1747819579,232471409,mA1/imu,0.276255028285787,-0.9610839730168476,-0.000856963919461704,-0.0001475459638461455,0.0,0.0,0.0,0.0,0.0,0.0,0.0,0.0,0.0,6.770322540062518e-05,4.658480651069377e-05,0.0004458618722182496,0.0,0.0,0.0,0.0,0.0,0.0,0.0,0.0,0.0,0.011073728198909907,-0.016519692666564417,9.811469493663019,0.0,0.0,0.0,0.0,0.0,0.0,0.0,0.0,0.0
2025/05/21 11:26:19.282735657,1747819579,282603661,mA1/imu,0.2762445239490489,-0.9610869928659127,-0.0008561050842378073,-0.00014905101522834314,0.0,0.0,0.0,0.0,0.0,0.0,0.0,0.0,0.0,3.7363465545393124e-05,-0.00011079565287450303,0.00043147322845135493,0.0,0.0,0.0,0.0,0.0,0.0,0.0,0.0,0.0,0.010939131540858953,-0.016261334350236533,9.811202747432452,0.0,0.0,0.0,0.0,0.0,0.0,0.0,0.0,0.0
2025/05/21 11:26:19.334030844,1747819579,333744608,mA1/imu,0.2762343561723493,-0.9610899137171945,-0.0008570473841091369,-0.00015391849962815744,0.0,0.0,0.0,0.0,0.0,0.0,0.0,0.0,0.0,4.371094590168673e-06,-0.0002533482116526139,0.0004173400020429615,0.0,0.0,0.0,0.0,0.0,0.0,0.0,0.0,0.0,0.010711109169787209,-0.01571845502959669,9.809482846180414,0.0,0.0,0.0,0.0,0.0,0.0,0.0,0.0,0.0
2025/05/21 11:26:19.383793889,1747819579,383612499,mA1/imu,0.2762245242246154,-0.9610927359043416,-0.0008596913678558817,-0.0001616772843179549,0.0,0.0,0.0,0.0,0.0,0.0,0.0,0.0,0.0,-2.9078928432023822e-05,-0.000373918322315802,0.0004032797432595593,0.0,0.0,0.0,0.0,0.0,0.0,0.0,0.0,0.0,0.010566295297325591,-0.01570990418754632,9.809190502304686,0.0,0.0,0.0,0.0,0.0,0.0,0.0,0.0,0.0
2025/05/21 11:26:19.434937065,1747819579,434606605,mA1/imu,0.2762150176314544,-0.9610954626759708,-0.0008638241646618028,-0.00017165759312219106,0.0,0.0,0.0,0.0,0.0,0.0,0.0,0.0,0.0,-6.096468042381288e-05,-0.000462534927783303,0.00038998767413837544,0.0,0.0,0.0,0.0,0.0,0.0,0.0,0.0,0.0,0.010206311331423776,-0.01616090157156789,9.81176773046042,0.0,0.0,0.0,0.0,0.0,0.0,0.0,0.0,0.0
2025/05/21 11:26:19.484928396,1747819579,484432459,mA1/imu,0.27620582524328574,-0.9610980975575588,-0.0008691630618276932,-0.00018310786022775294,0.0,0.0,0.0,0.0,0.0,0.0,0.0,0.0,0.0,-8.99031831504117e-05,-0.0005194861356482958,0.0003769895561792193,0.0,0.0,0.0,0.0,0.0,0.0,0.0,0.0,0.0,0.010080539636604154,-0.016150588779426704,9.811411074387719,0.0,0.0,0.0,0.0,0.0,0.0,0.0,0.0,0.0
2025/05/21 11:26:19.535860053,1747819579,535535101,mA1/imu,0.27619693827214054,-0.9611006434862969,-0.0008753685055444494,-0.00019521603689681718,0.0,0.0,0.0,0.0,0.0,0.0,0.0,0.0,0.0,-0.00011388112296073361,-0.0005394685494503574,0.0003644040918082786,0.0,0.0,0.0,0.0,0.0,0.0,0.0,0.0,0.0,0.009766515561264654,-0.015657207989584178,9.809528588133642,0.0,0.0,0.0,0.0,0.0,0.0,0.0,0.0,0.0
2025/05/21 11:26:19.575649085,1747819579,575349162,mA1/imu,0.27618834660852903,-0.9611031038464947,-0.0008820742465759954,-0.00020716974848337074,0.0,0.0,0.0,0.0,0.0,0.0,0.0,0.0,0.0,-0.000132483762647121,-0.0005255723582489796,0.0003522926233450143,0.0,0.0,0.0,0.0,0.0,0.0,0.0,0.0,0.0,0.009665416629437646,-0.0156652171962256,9.809123016657576,0.0,0.0,0.0,0.0,0.0,0.0,0.0,0.0,0.0
2025/05/21 11:26:19.626922228,1747819579,626395365,mA1/imu,0.2761800399013087,-0.9611054821462289,-0.0008888983706257787,-0.00021819317825568042,0.0,0.0,0.0,0.0,0.0,0.0,0.0,0.0,0.0,-0.00014469665396409017,-0.0004778907035525743,0.00034067344403472966,0.0,0.0,0.0,0.0,0.0,0.0,0.0,0.0,0.0,0.009439017721509915,-0.016122031881216168,9.811538905343694,0.0,0.0,0.0,0.0,0.0,0.0,0.0,0.0,0.0
2025/05/21 11:26:19.676719707,1747819579,676502972,mA1/imu,0.27617200874465786,-0.9611077816293165,-0.0008954733085529083,-0.00022760726739036265,0.0,0.0,0.0,0.0,0.0,0.0,0.0,0.0,0.0,-0.0001504161137782754,-0.00040241908941285087,0.0003294202497177441,0.0,0.0,0.0,0.0,0.0,0.0,0.0,0.0,0.0,0.009374882415544907,-0.016119601313250607,9.811101792919592,0.0,0.0,0.0,0.0,0.0,0.0,0.0,0.0,0.0
2025/05/21 11:26:19.729357429,1747819579,727486137,mA1/imu,0.2761642512208394,-0.9611100033817654,-0.0009014484312299117,-0.00023481452597086053,0.0,0.0,0.0,0.0,0.0,0.0,0.0,0.0,0.0,-0.00014882434167309266,-0.00030129491066157075,0.00031805642146735694,0.0,0.0,0.0,0.0,0.0,0.0,0.0,0.0,0.0,0.009188929129731094,-0.01564266935799066,9.80910617554669,0.0,0.0,0.0,0.0,0.0,0.0,0.0,0.0,0.0
2025/05/21 11:26:19.777598809,1747819579,777400175,mA1/imu,0.2761567634106826,-0.9611121489869429,-0.0009065250291768307,-0.00023938380965537166,0.0,0.0,0.0,0.0,0.0,0.0,0.0,0.0,0.0,-0.00014070887354003005,-0.0001840324611225365,0.000307071310240622,0.0,0.0,0.0,0.0,0.0,0.0,0.0,0.0,0.0,0.009176846751108785,-0.01564701340643539,9.80865951956695,0.0,0.0,0.0,0.0,0.0,0.0,0.0,0.0,0.0
2025/05/21 11:26:19.830372059,1747819579,829901113,mA1/imu,0.27614953705819334,-0.9611142211654946,-0.0009104619525962087,-0.00024107057726116475,0.0,0.0,0.0,0.0,0.0,0.0,0.0,0.0,0.0,-0.00012625235616912188,-5.7611647505534306e-05,0.0002964637743579045,0.0,0.0,0.0,0.0,0.0,0.0,0.0,0.0,0.0,0.009159915703626965,-0.016101192777659295,9.811039990455829,0.0,0.0,0.0,0.0,0.0,0.0,0.0,0.0,0.0
2025/05/21 11:26:19.881259035,1747819579,881001206,mA1/imu,0.27614256446401375,-0.9611162223406681,-0.0009130897996516469,-0.00023981630300285367,0.0,0.0,0.0,0.0,0.0,0.0,0.0,0.0,0.0,-0.00010641499759375511,6.968059674823782e-05,0.0002861433166289468,0.0,0.0,0.0,0.0,0.0,0.0,0.0,0.0,0.0,0.009182270807807643,-0.016092226497485075,9.810603684987077,0.0,0.0,0.0,0.0,0.0,0.0,0.0,0.0,0.0
2025/05/21 11:26:19.932948785,1747819579,932603405,mA1/imu,0.276136576866344,-0.9611179426166303,-0.0009142564049968902,-0.00023544030992241418,0.0,0.0,0.0,0.0,0.0,0.0,0.0,0.0,0.0,-8.858275866602219e-05,0.00017097170682688992,0.0001994598930115301,0.0,0.0,0.0,0.0,0.0,0.0,0.0,0.0,0.0,0.012458257161063723,-0.017771131211819526,9.8081263450371,0.0,0.0,0.0,0.0,0.0,0.0,0.0,0.0,0.0
2025/05/21 11:26:19.982568810,1747819579,982359049,mA1/imu,0.276133737390895,-0.9611187589930174,-0.0009149542616922096,-0.00023031490996665475,0.0,0.0,0.0,0.0,0.0,0.0,0.0,0.0,0.0,-8.171433625972757e-05,0.0002039916345647291,6.503571360511643e-05,0.0,0.0,0.0,0.0,0.0,0.0,0.0,0.0,0.0,0.011692610562154869,-0.017622187192588727,9.807733983466266,0.0,0.0,0.0,0.0,0.0,0.0,0.0,0.0,0.0
2025/05/21 11:26:20.33859133,1747819580,33579369,mA1/imu,0.276135962795985,-0.9611181195308514,-0.0009160923919328524,-0.00022613036842595983,0.0,0.0,0.0,0.0,0.0,0.0,0.0,0.0,0.0,-0.00010662396239532363,7.44315762241971e-05,-0.00023585919229479618,0.0,0.0,0.0,0.0,0.0,0.0,0.0,0.0,0.0,0.014019947655967674,-0.02107530783039758,9.811688970559251,0.0,0.0,0.0,0.0,0.0,0.0,0.0,0.0,0.0
2025/05/21 11:26:20.83658988,1747819580,83465689,mA1/imu,0.2761426948846342,-0.9611161857461977,-0.0009169280272780805,-0.00022091067154649652,0.0,0.0,0.0,0.0,0.0,0.0,0.0,0.0,0.0,-7.485412002894184e-05,0.00031267931428040916,-0.00027679465896884,0.0,0.0,0.0,0.0,0.0,0.0,0.0,0.0,0.0,0.003327746722996369,-0.015285018179212401,9.810426408214376,0.0,0.0,0.0,0.0,0.0,0.0,0.0,0.0,0.0
2025/05/21 11:26:20.135891060,1747819580,135612816,mA1/imu,0.27615184233608464,-0.9611135604984304,-0.000915951330301196,-0.00021173940766236666,0.0,0.0,0.0,0.0,0.0,0.0,0.0,0.0,0.0,-6.421978787009449e-05,0.00034361500248964675,-0.0004970587703904708,0.0,0.0,0.0,0.0,0.0,0.0,0.0,0.0,0.0,0.005653499502899395,-0.016849776438931402,9.80816912328347,0.0,0.0,0.0,0.0,0.0,0.0,0.0,0.0,0.0
2025/05/21 11:26:20.175730996,1747819580,175458948,mA1/imu,0.27616408263406106,-0.961110048438072,-0.0009135192949345394,-0.0001993407933399304,0.0,0.0,0.0,0.0,0.0,0.0,0.0,0.0,0.0,-2.6054011526839746e-05,0.0006200033764460199,-0.0005031927628316325,0.0,0.0,0.0,0.0,0.0,0.0,0.0,0.0,0.0,0.002499606340084958,-0.014762530856204468,9.808285219095902,0.0,0.0,0.0,0.0,0.0,0.0,0.0,0.0,0.0
2025/05/21 11:26:20.228129463,1747819580,227828694,mA1/imu,0.2761759917249155,-0.9611066352260076,-0.0009080963200471967,-0.00018077714163835677,0.0,0.0,0.0,0.0,0.0,0.0,0.0,0.0,0.0,2.2577174795046392e-05,0.0008689085743498093,-0.0004895070609864656,0.0,0.0,0.0,0.0,0.0,0.0,0.0,0.0,0.0,0.0029215413072809105,-0.015419343673539834,9.81089979520384,0.0,0.0,0.0,0.0,0.0,0.0,0.0,0.0,0.0
2025/05/21 11:26:20.277807892,1747819580,277654155,mA1/imu,0.2761875860502733,-0.9611033144543896,-0.0009008575423015879,-0.00015720113918791324,0.0,0.0,0.0,0.0,0.0,0.0,0.0,0.0,0.0,4.703606053745003e-05,0.0010559509770420206,-0.0004764085648201433,0.0,0.0,0.0,0.0,0.0,0.0,0.0,0.0,0.0,0.003172051294738602,-0.01717642458934103,9.810615806434676,0.0,0.0,0.0,0.0,0.0,0.0,0.0,0.0,0.0
2025/05/21 11:26:20.328962532,1747819580,328733624,mA1/imu,0.2761988602600469,-0.9611000876637951,-0.0008910694007637375,-0.00013068672258630316,0.0,0.0,0.0,0.0,0.0,0.0,0.0,0.0,0.0,0.00010550646906598327,0.0011656894504902006,-0.000462680499117304,0.0,0.0,0.0,0.0,0.0,0.0,0.0,0.0,0.0,0.0038800069685113675,-0.01579425906350843,9.808962352207205,0.0,0.0,0.0,0.0,0.0,0.0,0.0,0.0,0.0
2025/05/21 11:26:20.378902685,1747819580,378448703,mA1/imu,0.27620980671827866,-0.9610969557621113,-0.0008796009996051733,-0.00010295404466215122,0.0,0.0,0.0,0.0,0.0,0.0,0.0,0.0,0.0,0.00015210742110220886,0.0012011875008958598,-0.0004490392652582111,0.0,0.0,0.0,0.0,0.0,0.0,0.0,0.0,0.0,0.004114112166601241,-0.015403063327514822,9.80871852653648,0.0,0.0,0.0,0.0,0.0,0.0,0.0,0.0,0.0
2025/05/21 11:26:20.430419123,1747819580,430128578,mA1/imu,0.2762204428414301,-0.9610939127225395,-0.0008672588585788364,-7.580393142212115e-05,0.0,0.0,0.0,0.0,0.0,0.0,0.0,0.0,0.0,0.00018787484717645058,0.0011567482312410643,-0.00043670375386209377,0.0,0.0,0.0,0.0,0.0,0.0,0.0,0.0,0.0,0.004684441129810362,-0.015775341617175163,9.811240841622894,0.0,0.0,0.0,0.0,0.0,0.0,0.0,0.0,0.0
2025/05/21 11:26:20.480453250,1747819580,480193538,mA1/imu,0.27623078445092747,-0.961090953268785,-0.0008547946011050684,-5.091869074297663e-05,0.0,0.0,0.0,0.0,0.0,0.0,0.0,0.0,0.0,0.0002134754027071618,0.0010444547055283384,-0.00042468237772086507,0.0,0.0,0.0,0.0,0.0,0.0,0.0,0.0,0.0,0.004820418821674106,-0.01571889639663715,9.810995046013074,0.0,0.0,0.0,0.0,0.0,0.0,0.0,0.0,0.0
2025/05/21 11:26:20.531504416,1747819580,531207607,mA1/imu,0.2762408325204032,-0.9610880766211677,-0.000842932156244223,-2.9840223405898407e-05,0.0,0.0,0.0,0.0,0.0,0.0,0.0,0.0,0.0,0.00022787650628524047,0.0008658788787621965,-0.0004125605153049061,0.0,0.0,0.0,0.0,0.0,0.0,0.0,0.0,0.0,0.005247114033105261,-0.015275684907196219,9.809442645680988,0.0,0.0,0.0,0.0,0.0,0.0,0.0,0.0,0.0
2025/05/21 11:26:20.581340340,1747819580,581098474,mA1/imu,0.27625059246237715,-0.9610852809385747,-0.0008323080514323991,-1.3809926489538696e-05,0.0,0.0,0.0,0.0,0.0,0.0,0.0,0.0,0.0,0.00023195199735624904,0.0006404132340876132,-0.0004009537322323271,0.0,0.0,0.0,0.0,0.0,0.0,0.0,0.0,0.0,0.005292668913675933,-0.015254168095219636,9.809142145565607,0.0,0.0,0.0,0.0,0.0,0.0,0.0,0.0,0.0
2025/05/21 11:26:20.632843398,1747819580,632515816,mA1/imu,0.2762600843422914,-0.9610825602561353,-0.0008235027489570827,-3.7315893238016272e-06,0.0,0.0,0.0,0.0,0.0,0.0,0.0,0.0,0.0,0.00022143874387081975,0.0003781259714519767,-0.00039049890537955575,0.0,0.0,0.0,0.0,0.0,0.0,0.0,0.0,0.0,0.00547968041120076,-0.015976183950601894,9.811572911849387,0.0,0.0,0.0,0.0,0.0,0.0,0.0,0.0,0.0
2025/05/21 11:26:20.682316192,1747819580,682091285,mA1/imu,0.2762693270533416,-0.9610799090555205,-0.0008169083841638304,-1.352241353141611e-07,0.0,0.0,0.0,0.0,0.0,0.0,0.0,0.0,0.0,0.00020695644345831586,9.896463225507213e-05,-0.0003806141787929786,0.0,0.0,0.0,0.0,0.0,0.0,0.0,0.0,0.0,0.005461517304162663,-0.015799927826640137,9.811256927417993,0.0,0.0,0.0,0.0,0.0,0.0,0.0,0.0,0.0
2025/05/21 11:26:20.733593785,1747819580,733210245,mA1/imu,0.2762783288774697,-0.9610773248764558,-0.0008127674546516056,-3.170611469512053e-06,0.0,0.0,0.0,0.0,0.0,0.0,0.0,0.0,0.0,0.0001817588988855422,-0.00018235422988773146,-0.00037081328272257344,0.0,0.0,0.0,0.0,0.0,0.0,0.0,0.0,0.0,0.005424232730958313,-0.0153082557759973,9.80959544552554,0.0,0.0,0.0,0.0,0.0,0.0,0.0,0.0,0.0
2025/05/21 11:26:20.786012627,1747819580,784416916,mA1/imu,0.27628709034990734,-0.9610748074095752,-0.0008112404344818137,-1.2553392028120009e-05,0.0,0.0,0.0,0.0,0.0,0.0,0.0,0.0,0.0,0.00014840664885929915,-0.0004480186074080604,-0.00036099289168853483,0.0,0.0,0.0,0.0,0.0,0.0,0.0,0.0,0.0,0.005366584948308598,-0.015297267770366559,9.809210979317255,0.0,0.0,0.0,0.0,0.0,0.0,0.0,0.0,0.0
2025/05/21 11:26:20.836133618,1747819580,835658721,mA1/imu,0.2762956100404955,-0.9610723569140176,-0.0008123332528431321,-2.7618326991749682e-05,0.0,0.0,0.0,0.0,0.0,0.0,0.0,0.0,0.0,0.00010777902867953914,-0.0006809830407133573,-0.0003511675099769391,0.0,0.0,0.0,0.0,0.0,0.0,0.0,0.0,0.0,0.005097325464644566,-0.015800370642936615,9.811506938877756,0.0,0.0,0.0,0.0,0.0,0.0,0.0,0.0,0.0
2025/05/21 11:26:20.876582242,1747819580,875969437,mA1/imu,0.2763038899926815,-0.9610699727007449,-0.000815905648631985,-4.739065180577601e-05,0.0,0.0,0.0,0.0,0.0,0.0,0.0,0.0,0.0,6.271372548454515e-05,-0.0008717228258757664,-0.0003414208053951747,0.0,0.0,0.0,0.0,0.0,0.0,0.0,0.0,0.0,0.005023677045698455,-0.015792966131595566,9.811097626893119,0.0,0.0,0.0,0.0,0.0,0.0,0.0,0.0,0.0
2025/05/21 11:26:20.928033253,1747819580,927679954,mA1/imu,0.2763119366924323,-0.9610676528567891,-0.0008217402637663271,-7.082766668758118e-05,0.0,0.0,0.0,0.0,0.0,0.0,0.0,0.0,0.0,1.562604574929252e-05,-0.0010224088934641228,-0.0003319875551104148,0.0,0.0,0.0,0.0,0.0,0.0,0.0,0.0,0.0,0.005243828280744724,-0.01530668822616427,9.809323347565455,0.0,0.0,0.0,0.0,0.0,0.0,0.0,0.0,0.0
2025/05/21 11:26:20.978157153,1747819580,977990235,mA1/imu,0.27631975916436746,-0.9610653948549822,-0.0008295396478411217,-9.680679627490819e-05,0.0,0.0,0.0,0.0,0.0,0.0,0.0,0.0,0.0,-3.144810850550583e-05,-0.0011175315215548984,-0.0003228688369707437,0.0,0.0,0.0,0.0,0.0,0.0,0.0,0.0,0.0,0.005168981221982453,-0.015301520960659112,9.808878540730054,0.0,0.0,0.0,0.0,0.0,0.0,0.0,0.0,0.0
2025/05/21 11:26:21.30659302,1747819581,30408454,mA1/imu,0.2763266984023308,-0.9610633888736921,-0.0008385723614139913,-0.00012293525282142183,0.0,0.0,0.0,0.0,0.0,0.0,0.0,0.0,0.0,-7.43028207556136e-05,-0.0010670930091279595,-0.0002543103730431201,0.0,0.0,0.0,0.0,0.0,0.0,0.0,0.0,0.0,0.00387845670540797,-0.015255248961101328,9.811283562222853,0.0,0.0,0.0,0.0,0.0,0.0,0.0,0.0,0.0
2025/05/21 11:26:21.80446825,1747819581,80248073,mA1/imu,0.2763325161758407,-0.9610617041326638,-0.0008482410856123729,-0.00014778568894626792,0.0,0.0,0.0,0.0,0.0,0.0,0.0,0.0,0.0,-0.0001135380802952503,-0.0010585284291078762,-0.0002404510207792532,0.0,0.0,0.0,0.0,0.0,0.0,0.0,0.0,0.0,0.005764617009981056,-0.015882855716394674,9.810665371108998,0.0,0.0,0.0,0.0,0.0,0.0,0.0,0.0,0.0
2025/05/21 11:26:21.132013000,1747819581,131725077,mA1/imu,0.2763381811791612,-0.9610600620848823,-0.0008586161694627996,-0.00017165741722411021,0.0,0.0,0.0,0.0,0.0,0.0,0.0,0.0,0.0,-0.0001488453848222818,-0.0010069004208896823,-0.00023420241586630074,0.0,0.0,0.0,0.0,0.0,0.0,0.0,0.0,0.0,0.005682015662136448,-0.015312059810825325,9.808904605316442,0.0,0.0,0.0,0.0,0.0,0.0,0.0,0.0,0.0
2025/05/21 11:26:21.181517309,1747819581,181265713,mA1/imu,0.2763437037959685,-0.9610584605249675,-0.0008691736284968452,-0.00019329487548457505,0.0,0.0,0.0,0.0,0.0,0.0,0.0,0.0,0.0,-0.0001773816135414812,-0.0009023131968756132,-0.00022838024366994588,0.0,0.0,0.0,0.0,0.0,0.0,0.0,0.0,0.0,0.005683079591707914,-0.015297449079182042,9.808493698819971,0.0,0.0,0.0,0.0,0.0,0.0,0.0,0.0,0.0
2025/05/21 11:26:21.232697520,1747819581,232472837,mA1/imu,0.2763491045497718,-0.9610568944457383,-0.0008793761905387917,-0.0002115428282391239,0.0,0.0,0.0,0.0,0.0,0.0,0.0,0.0,0.0,-0.00019791928424792656,-0.0007495112885994141,-0.00022355431444653613,0.0,0.0,0.0,0.0,0.0,0.0,0.0,0.0,0.0,0.005537795219939263,-0.015737072036076688,9.810790844965878,0.0,0.0,0.0,0.0,0.0,0.0,0.0,0.0,0.0
2025/05/21 11:26:21.282525513,1747819581,282373874,mA1/imu,0.27635438959198555,-0.9610553629647676,-0.0008887256637966662,-0.00022546971944200503,0.0,0.0,0.0,0.0,0.0,0.0,0.0,0.0,0.0,-0.0002097514089775524,-0.0005603875436146509,-0.00021845415291838182,0.0,0.0,0.0,0.0,0.0,0.0,0.0,0.0,0.0,0.005586312756393496,-0.01573255857596027,9.81044119233923,0.0,0.0,0.0,0.0,0.0,0.0,0.0,0.0,0.0
2025/05/21 11:26:21.335149501,1747819581,334462659,mA1/imu,0.2763595491350922,-0.9610538695538211,-0.0008968556378065829,-0.00023466452782878265,0.0,0.0,0.0,0.0,0.0,0.0,0.0,0.0,0.0,-0.0002108634677642827,-0.0003624616777983366,-0.00021289918915983331,0.0,0.0,0.0,0.0,0.0,0.0,0.0,0.0,0.0,0.006077334356589743,-0.015210691206760246,9.808790966941821,0.0,0.0,0.0,0.0,0.0,0.0,0.0,0.0,0.0
2025/05/21 11:26:21.384292008,1747819581,384137786,mA1/imu,0.2763645841297424,-0.9610524144482083,-0.0009034607744337354,-0.00023891566008301713,0.0,0.0,0.0,0.0,0.0,0.0,0.0,0.0,0.0,-0.00020283518238035383,-0.00015091416012340638,-0.00020766186060472568,0.0,0.0,0.0,0.0,0.0,0.0,0.0,0.0,0.0,0.006151781985306976,-0.015226072655202264,9.808454297908847,0.0,0.0,0.0,0.0,0.0,0.0,0.0,0.0,0.0
2025/05/21 11:26:21.435878489,1747819581,435333113,mA1/imu,0.2763688404319516,-0.9610511866449268,-0.0009079853378569738,-0.00023716935412934493,0.0,0.0,0.0,0.0,0.0,0.0,0.0,0.0,0.0,-0.000183757223426209,0.0001483228536660367,-0.00014342579384650478,0.0,0.0,0.0,0.0,0.0,0.0,0.0,0.0,0.0,0.005100524315680936,-0.015208970690169037,9.811043283490585,0.0,0.0,0.0,0.0,0.0,0.0,0.0,0.0,0.0
2025/05/21 11:26:21.486367191,1747819581,485417783,mA1/imu,0.2763720855721726,-0.961050253246285,-0.0009101398127593534,-0.00022955883844926074,0.0,0.0,0.0,0.0,0.0,0.0,0.0,0.0,0.0,-0.00015683002417233717,0.00033872727919365483,-0.00013388202000534874,0.0,0.0,0.0,0.0,0.0,0.0,0.0,0.0,0.0,0.007085700266035553,-0.01583078018967501,9.810584916472717,0.0,0.0,0.0,0.0,0.0,0.0,0.0,0.0,0.0
2025/05/21 11:26:21.526481222,1747819581,526201498,mA1/imu,0.2763752824073345,-0.9610493362721357,-0.0009104492101833045,-0.00021819117591445337,0.0,0.0,0.0,0.0,0.0,0.0,0.0,0.0,0.0,-0.00012444592591890396,0.000493122665847919,-0.00013178793800921803,0.0,0.0,0.0,0.0,0.0,0.0,0.0,0.0,0.0,0.007303587245866523,-0.01525618622118241,9.80905386861841,0.0,0.0,0.0,0.0,0.0,0.0,0.0,0.0,0.0
2025/05/21 11:26:21.576059828,1747819581,575917643,mA1/imu,0.2763784342353643,-0.9610484344278072,-0.0009089784941957905,-0.0002037929496724524,0.0,0.0,0.0,0.0,0.0,0.0,0.0,0.0,0.0,-8.721135294335707e-05,0.000616312967274836,-0.00012985388518575505,0.0,0.0,0.0,0.0,0.0,0.0,0.0,0.0,0.0,0.007391134867146052,-0.015259121083989758,9.808780776986785,0.0,0.0,0.0,0.0,0.0,0.0,0.0,0.0,0.0
2025/05/21 11:26:21.627988777,1747819581,627527686,mA1/imu,0.2763815435611,-0.9610475465240834,-0.0009058857456476564,-0.00018726942966076858,0.0,0.0,0.0,0.0,0.0,0.0,0.0,0.0,0.0,-4.751060473331682e-05,0.0006992464071076718,-0.0001280619282410449,0.0,0.0,0.0,0.0,0.0,0.0,0.0,0.0,0.0,0.00769902238904539,-0.01578726256345168,9.811244700582497,0.0,0.0,0.0,0.0,0.0,0.0,0.0,0.0,0.0
2025/05/21 11:26:21.677501080,1747819581,677347345,mA1/imu,0.27638461211120957,-0.9610466715463678,-0.0009013992325861989,-0.00016963846133441536,0.0,0.0,0.0,0.0,0.0,0.0,0.0,0.0,0.0,-6.11366737722143e-06,0.0007404142074058084,-0.00012635988433917715,0.0,0.0,0.0,0.0,0.0,0.0,0.0,0.0,0.0,0.0077782219336762284,-0.015784717533200647,9.81098293843838,0.0,0.0,0.0,0.0,0.0,0.0,0.0,0.0,0.0
2025/05/21 11:26:21.730252483,1747819581,728433656,mA1/imu,0.2763876411109185,-0.9610458086173547,-0.0008958123730830448,-0.0001519879903582514,0.0,0.0,0.0,0.0,0.0,0.0,0.0,0.0,0.0,3.615534133932669e-05,0.0007344791007414511,-0.00012473851529713515,0.0,0.0,0.0,0.0,0.0,0.0,0.0,0.0,0.0,0.008064306472771425,-0.015272538140315244,9.809439837750228,0.0,0.0,0.0,0.0,0.0,0.0,0.0,0.0,0.0
2025/05/21 11:26:21.778755809,1747819581,778540338,mA1/imu,0.27639063139923725,-0.961044957014892,-0.0008894639725280089,-0.00013536918717559123,0.0,0.0,0.0,0.0,0.0,0.0,0.0,0.0,0.0,7.62787816093963e-05,0.000686595108321798,-0.00012319123919887065,0.0,0.0,0.0,0.0,0.0,0.0,0.0,0.0,0.0,0.008122705344771594,-0.015282821308067619,9.80913467137823,0.0,0.0,0.0,0.0,0.0,0.0,0.0,0.0,0.0
2025/05/21 11:26:21.830263349,1747819581,829897188,mA1/imu,0.27639358338896053,-0.9610441161910004,-0.0008827291276947045,-0.00012076984787142206,0.0,0.0,0.0,0.0,0.0,0.0,0.0,0.0,0.0,0.00011127057547288885,0.0005967655355986909,-0.00012169875661716334,0.0,0.0,0.0,0.0,0.0,0.0,0.0,0.0,0.0,0.008362527689959369,-0.015831356828683748,9.81153364719044,0.0,0.0,0.0,0.0,0.0,0.0,0.0,0.0,0.0
2025/05/21 11:26:21.881931516,1747819581,881418153,mA1/imu,0.2763964970127429,-0.9610432858146,-0.0008759788309802836,-0.00010904517267109834,0.0,0.0,0.0,0.0,0.0,0.0,0.0,0.0,0.0,0.00014106113762664735,0.00047390796005776763,-0.0001202155018841943,0.0,0.0,0.0,0.0,0.0,0.0,0.0,0.0,0.0,0.008373402218652326,-0.01582523169428796,9.81121108832769,0.0,0.0,0.0,0.0,0.0,0.0,0.0,0.0,0.0
2025/05/21 11:26:21.936180066,1747819581,933862973,mA1/imu,0.2763993718491548,-0.9610424657232055,-0.0008695662148391034,-0.0001008595656363339,0.0,0.0,0.0,0.0,0.0,0.0,0.0,0.0,0.0,0.0001645892638587836,0.00032407466050280635,-0.00011872321467373518,0.0,0.0,0.0,0.0,0.0,0.0,0.0,0.0,0.0,0.008483920231549761,-0.01534600943265378,9.809563894904592,0.0,0.0,0.0,0.0,0.0,0.0,0.0,0.0,0.0
2025/05/21 11:26:21.976391534,1747819581,976150132,mA1/imu,0.27640220729807213,-0.961041655855013,-0.0008638117098379682,-9.665163359684557e-05,0.0,0.0,0.0,0.0,0.0,0.0,0.0,0.0,0.0,0.00018054335072868302,0.00015809139030176166,-0.00011722411968250033,0.0,0.0,0.0,0.0,0.0,0.0,0.0,0.0,0.0,0.008472983458380033,-0.015353661672834458,9.809172377722426,0.0,0.0,0.0,0.0,0.0,0.0,0.0,0.0,0.0
2025/05/21 11:26:22.27542856,1747819582,27159213,mA1/imu,0.27640500974307713,-0.9610408541665837,-0.0008589950653861973,-9.663938314024087e-05,0.0,0.0,0.0,0.0,0.0,0.0,0.0,0.0,0.0,0.0001870860828440254,-1.5823134347381534e-05,-0.0001161971039332378,0.0,0.0,0.0,0.0,0.0,0.0,0.0,0.0,0.0,0.00847324909410491,-0.015873153972695668,9.811417738818507,0.0,0.0,0.0,0.0,0.0,0.0,0.0,0.0,0.0
2025/05/21 11:26:22.77343339,1747819582,77181648,mA1/imu,0.27640778266710747,-0.9610400594917513,-0.0008553232308068882,-0.0001007735830948254,0.0,0.0,0.0,0.0,0.0,0.0,0.0,0.0,0.0,0.00018525187944565843,-0.0001853528692181829,-0.00011509627282182782,0.0,0.0,0.0,0.0,0.0,0.0,0.0,0.0,0.0,0.008422959554307798,-0.015866982054509045,9.811025299892007,0.0,0.0,0.0,0.0,0.0,0.0,0.0,0.0,0.0
2025/05/21 11:26:22.128715105,1747819582,128278386,mA1/imu,0.2764105176580016,-0.9610392741178178,-0.0008529376323983604,-0.0001087590419052054,0.0,0.0,0.0,0.0,0.0,0.0,0.0,0.0,0.0,0.00017503898366985355,-0.00034122848328499645,-0.00011343298368050606,0.0,0.0,0.0,0.0,0.0,0.0,0.0,0.0,0.0,0.008295819104888608,-0.015423087206974424,9.809297654317612,0.0,0.0,0.0,0.0,0.0,0.0,0.0,0.0,0.0
2025/05/21 11:26:22.181469376,1747819582,179497656,mA1/imu,0.2764132090615169,-0.961038499594849,-0.0008519020872898772,-0.00012006510377794732,0.0,0.0,0.0,0.0,0.0,0.0,0.0,0.0,0.0,0.00015718871341325965,-0.00047407169168282187,-0.00011172212972833875,0.0,0.0,0.0,0.0,0.0,0.0,0.0,0.0,0.0,0.008224069797958531,-0.015420059709341375,9.808847933253169,0.0,0.0,0.0,0.0,0.0,0.0,0.0,0.0,0.0
2025/05/21 11:26:22.238730757,1747819582,235441683,mA1/imu,0.27641661520243466,-0.9610375178056617,-0.0008522686607214231,-0.00013359674922846222,0.0,0.0,0.0,0.0,0.0,0.0,0.0,0.0,0.0,0.00011787831463946693,-0.0005942493731971577,-0.00018868320770158313,0.0,0.0,0.0,0.0,0.0,0.0,0.0,0.0,0.0,0.011442291505632628,-0.018238413289577385,9.811592927547865,0.0,0.0,0.0,0.0,0.0,0.0,0.0,0.0,0.0
2025/05/21 11:26:22.286670254,1747819582,285274542,mA1/imu,0.2764229647472717,-0.9610356866598654,-0.0008548706092588194,-0.00015074074045157403,0.0,0.0,0.0,0.0,0.0,0.0,0.0,0.0,0.0,7.200357765726194e-05,-0.000740797239128935,-0.00031545459664823457,0.0,0.0,0.0,0.0,0.0,0.0,0.0,0.0,0.0,0.010583727676954875,-0.018043927510372496,9.81117129193883,0.0,0.0,0.0,0.0,0.0,0.0,0.0,0.0,0.0
2025/05/21 11:26:22.326362525,1747819582,326128945,mA1/imu,0.27643230336310837,-0.9610329936027969,-0.0008591998275825857,-0.0001692331795974763,0.0,0.0,0.0,0.0,0.0,0.0,0.0,0.0,0.0,1.7140011968058606e-05,-0.0007611018722038075,-0.0004385145829671723,0.0,0.0,0.0,0.0,0.0,0.0,0.0,0.0,0.0,0.007918102852578513,-0.017298025333402495,9.808375351925024,0.0,0.0,0.0,0.0,0.0,0.0,0.0,0.0,0.0
2025/05/21 11:26:22.376192676,1747819582,376050496,mA1/imu,0.2764442885675993,-0.9610295382059588,-0.0008644381047161606,-0.00018644237409330328,0.0,0.0,0.0,0.0,0.0,0.0,0.0,0.0,0.0,-2.7010551253540103e-05,-0.0006500580574007283,-0.0005198789403087867,0.0,0.0,0.0,0.0,0.0,0.0,0.0,0.0,0.0,0.002208864375507915,-0.015464409032021911,9.808340986020408,0.0,0.0,0.0,0.0,0.0,0.0,0.0,0.0,0.0
2025/05/21 11:26:22.427692091,1747819582,427396662,mA1/imu,0.2764565724369016,-0.9610259984389834,-0.0008688176119949011,-0.0001975772056817203,0.0,0.0,0.0,0.0,0.0,0.0,0.0,0.0,0.0,-5.696140387781317e-05,-0.00035853165905070625,-0.0005062404992415585,0.0,0.0,0.0,0.0,0.0,0.0,0.0,0.0,0.0,0.0008353936579074961,-0.015493044669299967,9.810783935808637,0.0,0.0,0.0,0.0,0.0,0.0,0.0,0.0,0.0
2025/05/21 11:26:22.478131218,1747819582,477259199,mA1/imu,0.27646853591817244,-0.9610225533359655,-0.0008718117985030071,-0.0002014226188998851,0.0,0.0,0.0,0.0,0.0,0.0,0.0,0.0,0.0,-8.300092630948341e-05,-6.210087106713462e-05,-0.0004927600420761212,0.0,0.0,0.0,0.0,0.0,0.0,0.0,0.0,0.0,0.0010279243502323964,-0.015556138135201188,9.81044015915227,0.0,0.0,0.0,0.0,0.0,0.0,0.0,0.0,0.0
2025/05/21 11:26:22.529169154,1747819582,528677786,mA1/imu,0.27648019221312975,-0.9610191992273146,-0.0008733607175585985,-0.00019816997534769106,0.0,0.0,0.0,0.0,0.0,0.0,0.0,0.0,0.0,-0.00010376045753015102,0.0002192399502524844,-0.00048001656573072783,0.0,0.0,0.0,0.0,0.0,0.0,0.0,0.0,0.0,0.0014684723234373361,-0.01506937620427033,9.80883733416132,0.0,0.0,0.0,0.0,0.0,0.0,0.0,0.0,0.0
2025/05/21 11:26:22.579340739,1747819582,579128695,mA1/imu,0.2764915619822044,-0.9610159299834149,-0.0008734940125759789,-0.00018835860197885307,0.0,0.0,0.0,0.0,0.0,0.0,0.0,0.0,0.0,-0.00011960538016119764,0.0004764232691199108,-0.0004682121568058757,0.0,0.0,0.0,0.0,0.0,0.0,0.0,0.0,0.0,0.001672584108744237,-0.015092260964560032,9.80850116823682,0.0,0.0,0.0,0.0,0.0,0.0,0.0,0.0,0.0
2025/05/21 11:26:22.631116196,1747819582,630786457,mA1/imu,0.27650267400144457,-0.9610127368761199,-0.0008723267904605646,-0.000172852222768638,0.0,0.0,0.0,0.0,0.0,0.0,0.0,0.0,0.0,-0.00013062581941955995,0.0006920286574906758,-0.0004578683645229131,0.0,0.0,0.0,0.0,0.0,0.0,0.0,0.0,0.0,0.0021845896399440012,-0.015625905523582777,9.810857872989025,0.0,0.0,0.0,0.0,0.0,0.0,0.0,0.0,0.0
2025/05/21 11:26:22.680502402,1747819582,680314899,mA1/imu,0.27651355206649,-0.9610096124477673,-0.0008700368206576499,-0.00015278250960809836,0.0,0.0,0.0,0.0,0.0,0.0,0.0,0.0,0.0,-0.0001359083442127689,0.0008600233534928279,-0.0004482672452045054,0.0,0.0,0.0,0.0,0.0,0.0,0.0,0.0,0.0,0.002392790513518827,-0.015629039691250537,9.81057825726471,0.0,0.0,0.0,0.0,0.0,0.0,0.0,0.0,0.0
2025/05/21 11:26:22.731787622,1747819582,731538839,mA1/imu,0.2765242063915185,-0.9610065530781113,-0.0008668562719033867,-0.00012954023272495436,0.0,0.0,0.0,0.0,0.0,0.0,0.0,0.0,0.0,-0.00013379586990761312,0.0009668156166264089,-0.00043891290227186943,0.0,0.0,0.0,0.0,0.0,0.0,0.0,0.0,0.0,0.002944810731677747,-0.015075905252554958,9.80908431158455,0.0,0.0,0.0,0.0,0.0,0.0,0.0,0.0,0.0
2025/05/21 11:26:22.781489263,1747819582,781158245,mA1/imu,0.2765346468741218,-0.9610035554688643,-0.0008628417172524427,-0.00010468322434000423,0.0,0.0,0.0,0.0,0.0,0.0,0.0,0.0,0.0,-0.00011980875250563844,0.0010140849856014361,-0.0004301908329597873,0.0,0.0,0.0,0.0,0.0,0.0,0.0,0.0,0.0,0.0031099344910664834,-0.014671166210676165,9.80878779073887,0.0,0.0,0.0,0.0,0.0,0.0,0.0,0.0,0.0
2025/05/21 11:26:22.832426112,1747819582,832139230,mA1/imu,0.2765444678133462,-0.9610007356308446,-0.0008585826562929127,-7.921256638362902e-05,0.0,0.0,0.0,0.0,0.0,0.0,0.0,0.0,0.0,-0.00011659274819552122,0.0010385655019319697,-0.0003841296183102561,0.0,0.0,0.0,0.0,0.0,0.0,0.0,0.0,0.0,0.002482803249142195,-0.015491296550919825,9.811321250490312,0.0,0.0,0.0,0.0,0.0,0.0,0.0,0.0,0.0
2025/05/21 11:26:22.882212176,1747819582,881992858,mA1/imu,0.2765534266057555,-0.9609981631890281,-0.0008541828386276767,-5.432869946608108e-05,0.0,0.0,0.0,0.0,0.0,0.0,0.0,0.0,0.0,-9.86871030911847e-05,0.000970283952134549,-0.0003669191781364472,0.0,0.0,0.0,0.0,0.0,0.0,0.0,0.0,0.0,0.0036586941436775326,-0.015283464175220012,9.810982383672446,0.0,0.0,0.0,0.0,0.0,0.0,0.0,0.0,0.0
2025/05/21 11:26:22.933363727,1747819582,933068583,mA1/imu,0.2765620883863186,-0.9609956751294169,-0.0008500613057375277,-3.233776112591616e-05,0.0,0.0,0.0,0.0,0.0,0.0,0.0,0.0,0.0,-7.53827543273449e-05,0.0008311880190051571,-0.0003549983313714452,0.0,0.0,0.0,0.0,0.0,0.0,0.0,0.0,0.0,0.004125553431657022,-0.014891839988459336,9.8094454873636,0.0,0.0,0.0,0.0,0.0,0.0,0.0,0.0,0.0
2025/05/21 11:26:22.983042479,1747819582,982900604,mA1/imu,0.2765704654758724,-0.9609932678496717,-0.0008464996283308148,-1.4575589590777772e-05,0.0,0.0,0.0,0.0,0.0,0.0,0.0,0.0,0.0,-4.871019995230494e-05,0.0006440165160972176,-0.0003434289074143356,0.0,0.0,0.0,0.0,0.0,0.0,0.0,0.0,0.0,0.0042241764689003045,-0.01493197334346261,9.809130744042063,0.0,0.0,0.0,0.0,0.0,0.0,0.0,0.0,0.0
2025/05/21 11:26:23.34375983,1747819583,34129828,mA1/imu,0.27658436746803466,-0.9609892663278256,-0.0008470895013382145,-1.0695399300746403e-05,0.0,0.0,0.0,0.0,0.0,0.0,0.0,0.0,0.0,-8.868882503440458e-05,-0.0003388650043349521,-0.0008385288756510923,0.0,0.0,0.0,0.0,0.0,0.0,0.0,0.0,0.0,0.0111695899698951,-0.017735785162226275,9.812289972970177,0.0,0.0,0.0,0.0,0.0,0.0,0.0,0.0,0.0
2025/05/21 11:26:23.84180735,1747819583,83908363,mA1/imu,0.27660513191117103,-0.9609832847200962,-0.0008526502539021067,-2.1829396175866185e-05,0.0,0.0,0.0,0.0,0.0,0.0,0.0,0.0,0.0,-8.659866765996447e-05,-0.0005529383257583074,-0.0008555552274188457,0.0,0.0,0.0,0.0,0.0,0.0,0.0,0.0,0.0,0.003113813878497654,-0.0170844622078494,9.811276672918694,0.0,0.0,0.0,0.0,0.0,0.0,0.0,0.0,0.0
2025/05/21 11:26:23.136655935,1747819583,135727064,mA1/imu,0.27662534570297376,-0.9609774606401055,-0.0008584311718588412,-3.6774011474546435e-05,0.0,0.0,0.0,0.0,0.0,0.0,0.0,0.0,0.0,-3.866349700318806e-05,-0.0006894028985448214,-0.0008329410791100686,0.0,0.0,0.0,0.0,0.0,0.0,0.0,0.0,0.0,0.0030224322976073184,-0.015656058990683328,9.809639149673865,0.0,0.0,0.0,0.0,0.0,0.0,0.0,0.0,0.0
2025/05/21 11:26:23.175823013,1747819583,175541106,mA1/imu,0.27664502206917047,-0.960971790615141,-0.0008639481400976481,-5.477124145849481e-05,0.0,0.0,0.0,0.0,0.0,0.0,0.0,0.0,0.0,3.766942737611314e-06,-0.0007885854217981341,-0.0008108702794244482,0.0,0.0,0.0,0.0,0.0,0.0,0.0,0.0,0.0,0.0030376105406034345,-0.015286739206021596,9.80928412300265,0.0,0.0,0.0,0.0,0.0,0.0,0.0,0.0,0.0
2025/05/21 11:26:23.227340839,1747819583,227078756,mA1/imu,0.2766641708527277,-0.9609662719148215,-0.0008690310334740541,-7.479014020955215e-05,0.0,0.0,0.0,0.0,0.0,0.0,0.0,0.0,0.0,4.060893395730026e-05,-0.0008433907476564086,-0.0007891671120188421,0.0,0.0,0.0,0.0,0.0,0.0,0.0,0.0,0.0,0.002874449304250985,-0.015743974581649094,9.811694358033629,0.0,0.0,0.0,0.0,0.0,0.0,0.0,0.0,0.0
2025/05/21 11:26:23.277206485,1747819583,276979893,mA1/imu,0.27668280252901195,-0.9609609017417703,-0.0008734657732274048,-9.573859490013813e-05,0.0,0.0,0.0,0.0,0.0,0.0,0.0,0.0,0.0,7.378898055995595e-05,-0.0008544393426888455,-0.0007678733546709111,0.0,0.0,0.0,0.0,0.0,0.0,0.0,0.0,0.0,0.0029130050081531828,-0.015677777416969643,9.81130560287713,0.0,0.0,0.0,0.0,0.0,0.0,0.0,0.0,0.0
2025/05/21 11:26:23.328475504,1747819583,328257406,mA1/imu,0.27669886647902553,-0.9609562722997148,-0.000875873802810509,-0.0001134113773387067,0.0,0.0,0.0,0.0,0.0,0.0,0.0,0.0,0.0,0.00012353914559779208,-0.0005409839481560307,-0.0005654830108983264,0.0,0.0,0.0,0.0,0.0,0.0,0.0,0.0,0.0,-0.00013121948208236374,-0.01453787033716362,9.809061795332598,0.0,0.0,0.0,0.0,0.0,0.0,0.0,0.0,0.0
2025/05/21 11:26:23.378586611,1747819583,378210557,mA1/imu,0.2767117632136466,-0.9609525569113743,-0.0008760490203715721,-0.00012650217589381515,0.0,0.0,0.0,0.0,0.0,0.0,0.0,0.0,0.0,0.0001483033401103295,-0.0004931293402623069,-0.0005295311551621861,0.0,0.0,0.0,0.0,0.0,0.0,0.0,0.0,0.0,0.003942162671569388,-0.014939239565986903,9.808946909364236,0.0,0.0,0.0,0.0,0.0,0.0,0.0,0.0,0.0
2025/05/21 11:26:23.429460125,1747819583,429239775,mA1/imu,0.2767246474894544,-0.96094884521331,-0.0008756966931214647,-0.00013967943599243297,0.0,0.0,0.0,0.0,0.0,0.0,0.0,0.0,0.0,0.0001663992804505231,-0.000517780869608012,-0.0005507440181810368,0.0,0.0,0.0,0.0,0.0,0.0,0.0,0.0,0.0,0.005388352108251241,-0.015426838086657096,9.811334302565903,0.0,0.0,0.0,0.0,0.0,0.0,0.0,0.0,0.0
2025/05/21 11:26:23.479439944,1747819583,479181496,mA1/imu,0.2767377823874469,-0.960945061368034,-0.0008749338154066124,-0.0001527169998870559,0.0,0.0,0.0,0.0,0.0,0.0,0.0,0.0,0.0,0.00017574266451388692,-0.0004684621374647367,-0.0005421022869673617,0.0,0.0,0.0,0.0,0.0,0.0,0.0,0.0,0.0,0.0045320430597638,-0.015717660232846747,9.810790538549401,0.0,0.0,0.0,0.0,0.0,0.0,0.0,0.0,0.0
2025/05/21 11:26:23.530434484,1747819583,530169007,mA1/imu,0.2767506135081134,-0.960941365410992,-0.0008736225682703331,-0.00016416013427106226,0.0,0.0,0.0,0.0,0.0,0.0,0.0,0.0,0.0,0.00017602537608101386,-0.0003928984018023249,-0.0005295388752477198,0.0,0.0,0.0,0.0,0.0,0.0,0.0,0.0,0.0,0.004584901096866783,-0.015243641354888605,9.808842433443797,0.0,0.0,0.0,0.0,0.0,0.0,0.0,0.0,0.0
2025/05/21 11:26:23.580609406,1747819583,580121288,mA1/imu,0.2767631536245263,-0.9609377537723502,-0.0008718262490441436,-0.00017346396801585118,0.0,0.0,0.0,0.0,0.0,0.0,0.0,0.0,0.0,0.00016846592828291228,-0.00029790045384955535,-0.0005175706152701424,0.0,0.0,0.0,0.0,0.0,0.0,0.0,0.0,0.0,0.004616938482849341,-0.01523071215439419,9.808404430304275,0.0,0.0,0.0,0.0,0.0,0.0,0.0,0.0,0.0
2025/05/21 11:26:23.631383368,1747819583,631123303,mA1/imu,0.2767754193780083,-0.9609342217534648,-0.0008696156256320527,-0.00018016618422392347,0.0,0.0,0.0,0.0,0.0,0.0,0.0,0.0,0.0,0.00015215936558500226,-0.00018789191229270604,-0.0005063902211546419,0.0,0.0,0.0,0.0,0.0,0.0,0.0,0.0,0.0,0.004618836396011789,-0.015729221720343245,9.810770137324816,0.0,0.0,0.0,0.0,0.0,0.0,0.0,0.0,0.0
2025/05/21 11:26:23.681359927,1747819583,681114050,mA1/imu,0.2767874257955011,-0.9609307650637116,-0.0008670811046326548,-0.00018397262824521767,0.0,0.0,0.0,0.0,0.0,0.0,0.0,0.0,0.0,0.0001294550529939993,-7.046040362053276e-05,-0.0004957020047756023,0.0,0.0,0.0,0.0,0.0,0.0,0.0,0.0,0.0,0.004660533860072812,-0.015718218257016747,9.810373250071903,0.0,0.0,0.0,0.0,0.0,0.0,0.0,0.0,0.0
2025/05/21 11:26:23.732539652,1747819583,732209407,mA1/imu,0.27679918660021174,-0.9609273796950751,-0.0008643492659693695,-0.00018479763127770153,0.0,0.0,0.0,0.0,0.0,0.0,0.0,0.0,0.0,0.00010241036815717901,4.4922986360559474e-05,-0.00048557212327451845,0.0,0.0,0.0,0.0,0.0,0.0,0.0,0.0,0.0,0.004836059480495322,-0.015186615871328388,9.808573068014626,0.0,0.0,0.0,0.0,0.0,0.0,0.0,0.0,0.0
2025/05/21 11:26:23.782142464,1747819583,781913141,mA1/imu,0.2768107150035231,-0.9609240617177186,-0.0008615633215537886,-0.0001827014051700516,0.0,0.0,0.0,0.0,0.0,0.0,0.0,0.0,0.0,7.126897463764126e-05,0.00015528031666258766,-0.0004759982875817228,0.0,0.0,0.0,0.0,0.0,0.0,0.0,0.0,0.0,0.0048920458103774295,-0.015185879968945765,9.808227462002403,0.0,0.0,0.0,0.0,0.0,0.0,0.0,0.0,0.0
2025/05/21 11:26:23.833499351,1747819583,833164881,mA1/imu,0.2768220151327155,-0.9609208097437426,-0.0008588885084969754,-0.00017790397020213283,0.0,0.0,0.0,0.0,0.0,0.0,0.0,0.0,0.0,3.524570682929966e-05,0.0002517813425604981,-0.0004664114259065633,0.0,0.0,0.0,0.0,0.0,0.0,0.0,0.0,0.0,0.005111985666190194,-0.015772532585906763,9.810735511360837,0.0,0.0,0.0,0.0,0.0,0.0,0.0,0.0,0.0
2025/05/21 11:26:23.883017913,1747819583,882764808,mA1/imu,0.27683309278345497,-0.9609176218731714,-0.0008564788907878067,-0.00017075557272875169,0.0,0.0,0.0,0.0,0.0,0.0,0.0,0.0,0.0,-2.0789921792048173e-06,0.00033274919571379334,-0.00045725004782267646,0.0,0.0,0.0,0.0,0.0,0.0,0.0,0.0,0.0,0.005171662659019211,-0.01576671365693655,9.810452743154075,0.0,0.0,0.0,0.0,0.0,0.0,0.0,0.0,0.0
2025/05/21 11:26:23.935019509,1747819583,934113182,mA1/imu,0.2768439674013363,-0.9609144922580412,-0.0008544703350838722,-0.00016174796880434142,0.0,0.0,0.0,0.0,0.0,0.0,0.0,0.0,0.0,-3.6893655896148104e-05,0.00038979670213510687,-0.00044912796861713757,0.0,0.0,0.0,0.0,0.0,0.0,0.0,0.0,0.0,0.005413006076949537,-0.0151737504435175,9.808796515447007,0.0,0.0,0.0,0.0,0.0,0.0,0.0,0.0,0.0
2025/05/21 11:26:23.983939724,1747819583,983818020,mA1/imu,0.27685465450402585,-0.9609114161805756,-0.0008529910561876097,-0.00015145809606522258,0.0,0.0,0.0,0.0,0.0,0.0,0.0,0.0,0.0,-6.982018452015796e-05,0.00042394425243798067,-0.000441435711921965,0.0,0.0,0.0,0.0,0.0,0.0,0.0,0.0,0.0,0.005474958505969549,-0.015183283068791565,9.808535757234635,0.0,0.0,0.0,0.0,0.0,0.0,0.0,0.0,0.0
2025/05/21 11:26:24.35418899,1747819584,35169421,mA1/imu,0.27686474151745266,-0.9609085124178974,-0.0008520939976683563,-0.00014001113107249324,0.0,0.0,0.0,0.0,0.0,0.0,0.0,0.0,0.0,-0.00010716779257949682,0.0004763368841586293,-0.00039611353108315664,0.0,0.0,0.0,0.0,0.0,0.0,0.0,0.0,0.0,0.004516938527671152,-0.015845987397103075,9.811259626063617,0.0,0.0,0.0,0.0,0.0,0.0,0.0,0.0,0.0
2025/05/21 11:26:24.84885632,1747819584,84682996,mA1/imu,0.27687398349601544,-0.9609058515532168,-0.0008517113324044748,-0.00012767788187008632,0.0,0.0,0.0,0.0,0.0,0.0,0.0,0.0,0.0,-0.00013188737965695474,0.0004715998985061116,-0.000379371696400979,0.0,0.0,0.0,0.0,0.0,0.0,0.0,0.0,0.0,0.005581578774882422,-0.015533384832757496,9.810950618034855,0.0,0.0,0.0,0.0,0.0,0.0,0.0,0.0,0.0
2025/05/21 11:26:24.136269081,1747819584,135973567,mA1/imu,0.2768829423847517,-0.9609032713336886,-0.0008520064948362124,-0.0001159375289583397,0.0,0.0,0.0,0.0,0.0,0.0,0.0,0.0,0.0,-0.00014768990861867176,0.00042927875083806295,-0.00036799935621168996,0.0,0.0,0.0,0.0,0.0,0.0,0.0,0.0,0.0,0.005810713670700779,-0.014939074893685907,9.809346703122735,0.0,0.0,0.0,0.0,0.0,0.0,0.0,0.0,0.0
2025/05/21 11:26:24.176183548,1747819584,175697739,mA1/imu,0.27689163253136867,-0.9609007675594444,-0.0008530020901361708,-0.00010547614982114661,0.0,0.0,0.0,0.0,0.0,0.0,0.0,0.0,0.0,-0.00015691066351187084,0.0003628596471445334,-0.00035699811793175255,0.0,0.0,0.0,0.0,0.0,0.0,0.0,0.0,0.0,0.005864205772234105,-0.014964930394058582,9.809083460683004,0.0,0.0,0.0,0.0,0.0,0.0,0.0,0.0,0.0
2025/05/21 11:26:24.226926046,1747819584,226645977,mA1/imu,0.27690005563190334,-0.9608983397332768,-0.0008546949004060223,-9.687883273414344e-05,0.0,0.0,0.0,0.0,0.0,0.0,0.0,0.0,0.0,-0.0001611143209228079,0.000275828513025818,-0.0003458621498926883,0.0,0.0,0.0,0.0,0.0,0.0,0.0,0.0,0.0,0.005966034350494072,-0.015564629712070593,9.811676984421844,0.0,0.0,0.0,0.0,0.0,0.0,0.0,0.0,0.0
2025/05/21 11:26:24.276789655,1747819584,276547438,mA1/imu,0.2769082095039722,-0.9608959885417413,-0.0008570332187986593,-9.059666640892403e-05,0.0,0.0,0.0,0.0,0.0,0.0,0.0,0.0,0.0,-0.00015840083351763252,0.00017401213129383895,-0.0003348477903155401,0.0,0.0,0.0,0.0,0.0,0.0,0.0,0.0,0.0,0.005994199676141386,-0.01556831621282721,9.811391944086585,0.0,0.0,0.0,0.0,0.0,0.0,0.0,0.0,0.0
2025/05/21 11:26:24.328463494,1747819584,327562242,mA1/imu,0.2769165309182842,-0.960893587998138,-0.0008600784041735994,-8.782588690170099e-05,0.0,0.0,0.0,0.0,0.0,0.0,0.0,0.0,0.0,-0.0001397987991710989,-7.116014127914589e-06,-0.0003629015763492205,0.0,0.0,0.0,0.0,0.0,0.0,0.0,0.0,0.0,0.007904302802591837,-0.01486052826082286,9.809583457318128,0.0,0.0,0.0,0.0,0.0,0.0,0.0,0.0,0.0
2025/05/21 11:26:24.377726524,1747819584,377450239,mA1/imu,0.27692528190403864,-0.9608910624577763,-0.0008639155380088796,-8.933687799734052e-05,0.0,0.0,0.0,0.0,0.0,0.0,0.0,0.0,0.0,-0.0001232927112736179,-0.0001570124242498985,-0.0003623702278853032,0.0,0.0,0.0,0.0,0.0,0.0,0.0,0.0,0.0,0.006894529142563895,-0.015201539327248772,9.80930446017552,0.0,0.0,0.0,0.0,0.0,0.0,0.0,0.0,0.0
2025/05/21 11:26:24.428912058,1747819584,428534558,mA1/imu,0.27693310892143397,-0.9608888024329589,-0.0008680906003727397,-9.466135828758543e-05,0.0,0.0,0.0,0.0,0.0,0.0,0.0,0.0,0.0,-7.916062201948671e-05,-0.00031336799307438455,-0.0002859184627399189,0.0,0.0,0.0,0.0,0.0,0.0,0.0,0.0,0.0,0.007857203456834397,-0.014093147168942497,9.81194815895085,0.0,0.0,0.0,0.0,0.0,0.0,0.0,0.0,0.0
2025/05/21 11:26:24.479797986,1747819584,479568466,mA1/imu,0.27693971443777166,-0.9608868937603939,-0.000872456631696054,-0.00010385592228199619,0.0,0.0,0.0,0.0,0.0,0.0,0.0,0.0,0.0,-5.875980170038994e-05,-0.0004561202335924997,-0.0002739465894752568,0.0,0.0,0.0,0.0,0.0,0.0,0.0,0.0,0.0,0.007717066544554602,-0.015628021011039175,9.811315622994547,0.0,0.0,0.0,0.0,0.0,0.0,0.0,0.0,0.0
2025/05/21 11:26:24.531385486,1747819584,531091289,mA1/imu,0.2769441890615398,-0.9608855998476301,-0.0008759914501151882,-0.00011309060670452873,0.0,0.0,0.0,0.0,0.0,0.0,0.0,0.0,0.0,-1.4659983872813834e-05,-0.00028638584709598624,-9.01216620101366e-05,0.0,0.0,0.0,0.0,0.0,0.0,0.0,0.0,0.0,0.004355360902704721,-0.01464015656182107,9.809048079195737,0.0,0.0,0.0,0.0,0.0,0.0,0.0,0.0,0.0
2025/05/21 11:26:24.581885086,1747819584,581591965,mA1/imu,0.27694589080202325,-0.9608851063381806,-0.0008782630202969612,-0.00012099340667073941,0.0,0.0,0.0,0.0,0.0,0.0,0.0,0.0,0.0,1.2092794595736098e-05,-0.0003701701222950687,-6.928381818223993e-05,0.0,0.0,0.0,0.0,0.0,0.0,0.0,0.0,0.0,0.008284881256899053,-0.015096414448471535,9.808927088880703,0.0,0.0,0.0,0.0,0.0,0.0,0.0,0.0,0.0
2025/05/21 11:26:24.633462982,1747819584,633211996,mA1/imu,0.2769470866396069,-0.9608847580756604,-0.0008805789573077901,-0.0001322135143168512,0.0,0.0,0.0,0.0,0.0,0.0,0.0,0.0,0.0,5.548779160181504e-05,-0.0005259501169358811,-3.0132165177486535e-05,0.0,0.0,0.0,0.0,0.0,0.0,0.0,0.0,0.0,0.010231382290100836,-0.01465813326349353,9.811496548089735,0.0,0.0,0.0,0.0,0.0,0.0,0.0,0.0,0.0
2025/05/21 11:26:24.682683089,1747819584,682510853,mA1/imu,0.2769477150311254,-0.9608845727029266,-0.0008829016876293178,-0.000146850816919529,0.0,0.0,0.0,0.0,0.0,0.0,0.0,0.0,0.0,8.133430638989664e-05,-0.0006200010576037457,-2.7302254947947875e-05,0.0,0.0,0.0,0.0,0.0,0.0,0.0,0.0,0.0,0.00909177049702152,-0.01604268962024058,9.810794385010912,0.0,0.0,0.0,0.0,0.0,0.0,0.0,0.0,0.0
2025/05/21 11:26:24.733968318,1747819584,733655614,mA1/imu,0.27694836899818215,-0.9608843794640496,-0.0008851857387797776,-0.00016327107160276456,0.0,0.0,0.0,0.0,0.0,0.0,0.0,0.0,0.0,0.0001011903860291382,-0.000675278092519495,-2.8190776017606914e-05,0.0,0.0,0.0,0.0,0.0,0.0,0.0,0.0,0.0,0.00906502667393835,-0.0154352147207616,9.80882640483467,0.0,0.0,0.0,0.0,0.0,0.0,0.0,0.0,0.0
2025/05/21 11:26:24.783548653,1747819584,783341355,mA1/imu,0.2769490423048358,-0.9608841803488544,-0.0008873094224159781,-0.0001805650398407067,0.0,0.0,0.0,0.0,0.0,0.0,0.0,0.0,0.0,0.00011584841345517147,-0.000691197392049437,-2.8998344351859164e-05,0.0,0.0,0.0,0.0,0.0,0.0,0.0,0.0,0.0,0.00898153423874689,-0.01540636379754199,9.808386521424191,0.0,0.0,0.0,0.0,0.0,0.0,0.0,0.0,0.0
2025/05/21 11:26:24.835655078,1747819584,835343813,mA1/imu,0.2769497421755427,-0.9608839735724654,-0.0008891288824469343,-0.00019771272163820436,0.0,0.0,0.0,0.0,0.0,0.0,0.0,0.0,0.0,0.0001227803099004148,-0.0006658106488043352,-3.0299317114210958e-05,0.0,0.0,0.0,0.0,0.0,0.0,0.0,0.0,0.0,0.008754602680086305,-0.015959513860684175,9.810802714979918,0.0,0.0,0.0,0.0,0.0,0.0,0.0,0.0,0.0
2025/05/21 11:26:24.885482680,1747819584,885187299,mA1/imu,0.2769504729682548,-0.9608837582393357,-0.0008905021231594963,-0.00021372992013813418,0.0,0.0,0.0,0.0,0.0,0.0,0.0,0.0,0.0,0.00012433469053734161,-0.0006023806915560622,-3.15111995608898e-05,0.0,0.0,0.0,0.0,0.0,0.0,0.0,0.0,0.0,0.008684485098273034,-0.015940218534900574,9.81040350558652,0.0,0.0,0.0,0.0,0.0,0.0,0.0,0.0,0.0
2025/05/21 11:26:24.926471293,1747819584,926137388,mA1/imu,0.2769512335065613,-0.9608835350941194,-0.0008912959497859499,-0.00022767466281632963,0.0,0.0,0.0,0.0,0.0,0.0,0.0,0.0,0.0,0.00012221486004589734,-0.0005019609580501121,-3.263789186727713e-05,0.0,0.0,0.0,0.0,0.0,0.0,0.0,0.0,0.0,0.008470168534788266,-0.015373186881536794,9.808569830572141,0.0,0.0,0.0,0.0,0.0,0.0,0.0,0.0,0.0
2025/05/21 11:26:24.976208714,1747819584,976018374,mA1/imu,0.27695202282146925,-0.960883304787259,-0.0008914243905715964,-0.00023874414673478433,0.0,0.0,0.0,0.0,0.0,0.0,0.0,0.0,0.0,0.000114739072195313,-0.00037334326446808,-3.3702601028205236e-05,0.0,0.0,0.0,0.0,0.0,0.0,0.0,0.0,0.0,0.008427800004302844,-0.015371858409951693,9.808227810980751,0.0,0.0,0.0,0.0,0.0,0.0,0.0,0.0,0.0
2025/05/21 11:26:25.27285412,1747819585,26993052,mA1/imu,0.27695268759744257,-0.9608831129742299,-0.0008901277764393954,-0.0002443482117286138,0.0,0.0,0.0,0.0,0.0,0.0,0.0,0.0,0.0,0.00010589657154299638,-2.1524618480359896e-05,-1.4465252529308494e-05,0.0,0.0,0.0,0.0,0.0,0.0,0.0,0.0,0.0,-0.0017832751197709336,-0.017050543044950316,9.811586447286718,0.0,0.0,0.0,0.0,0.0,0.0,0.0,0.0,0.0
2025/05/21 11:26:25.77125160,1747819585,76921911,mA1/imu,0.27695249270049654,-0.9608831743831429,-0.000886004147627022,-0.00023868599972046842,0.0,0.0,0.0,0.0,0.0,0.0,0.0,0.0,0.0,8.911448728817146e-05,0.0004487540952084079,2.337368252959273e-05,0.0,0.0,0.0,0.0,0.0,0.0,0.0,0.0,0.0,-0.0015927099703605726,-0.016346664402158515,9.811290108418447,0.0,0.0,0.0,0.0,0.0,0.0,0.0,0.0,0.0
2025/05/21 11:26:25.128289267,1747819585,127966765,mA1/imu,0.2769518706898223,-0.9608833650794776,-0.0008781322592226165,-0.00022117568239625083,0.0,0.0,0.0,0.0,0.0,0.0,0.0,0.0,0.0,0.00012254261942249225,0.0009560310237227056,2.779842593721789e-05,0.0,0.0,0.0,0.0,0.0,0.0,0.0,0.0,0.0,-0.0030592212320693993,-0.00951860820519156,9.808051983196329,0.0,0.0,0.0,0.0,0.0,0.0,0.0,0.0,0.0
2025/05/21 11:26:25.178071830,1747819585,177836793,mA1/imu,0.2769511817867967,-0.9608835805739085,-0.0008661969903413962,-0.00019285521923728357,0.0,0.0,0.0,0.0,0.0,0.0,0.0,0.0,0.0,0.00016025239883414,0.0013871791843904455,3.1392026373362296e-05,0.0,0.0,0.0,0.0,0.0,0.0,0.0,0.0,0.0,-0.0025828453295286043,-0.00916256136071469,9.80780916921003,0.0,0.0,0.0,0.0,0.0,0.0,0.0,0.0,0.0
2025/05/21 11:26:25.229196043,1747819585,228815824,mA1/imu,0.2769487308300518,-0.9608843112414238,-0.0008471559174660587,-0.0001524092179756219,0.0,0.0,0.0,0.0,0.0,0.0,0.0,0.0,0.0,0.0003896498745356834,0.0021018299145582294,0.0002227428166692616,0.0,0.0,0.0,0.0,0.0,0.0,0.0,0.0,0.0,-0.020337012527751407,0.004657815059371637,9.812584347812114,0.0,0.0,0.0,0.0,0.0,0.0,0.0,0.0,0.0
2025/05/21 11:26:25.279918931,1747819585,279622960,mA1/imu,0.2769396950514238,-0.9608869472166585,-0.0008190925473698565,-9.518862270420408e-05,0.0,0.0,0.0,0.0,0.0,0.0,0.0,0.0,0.0,0.00034034697516939364,0.002648948512466415,0.00041244070427972463,0.0,0.0,0.0,0.0,0.0,0.0,0.0,0.0,0.0,-0.0028916321126021376,0.06450121380176145,9.811931780073046,0.0,0.0,0.0,0.0,0.0,0.0,0.0,0.0,0.0
2025/05/21 11:26:25.330801715,1747819585,330587289,mA1/imu,0.27692728832169605,-0.9608905523820196,-0.0007888294906163814,-3.276895365164937e-05,0.0,0.0,0.0,0.0,0.0,0.0,0.0,0.0,0.0,0.0006124331184470643,0.0028603626957814485,0.0006586337065640673,0.0,0.0,0.0,0.0,0.0,0.0,0.0,0.0,0.0,-0.011694536692621924,-0.038657517942718565,9.808030600882592,0.0,0.0,0.0,0.0,0.0,0.0,0.0,0.0,0.0
2025/05/21 11:26:25.380631519,1747819585,380455083,mA1/imu,0.2769059790185011,-0.9608967231802971,-0.0007516486186000645,3.44895192196486e-05,0.0,0.0,0.0,0.0,0.0,0.0,0.0,0.0,0.0,0.0005917440460984028,0.0030485767006395294,0.0010423290856226926,0.0,0.0,0.0,0.0,0.0,0.0,0.0,0.0,0.0,-0.0108869517584366,-0.0020158663468321705,9.807743277584109,0.0,0.0,0.0,0.0,0.0,0.0,0.0,0.0,0.0
2025/05/21 11:26:25.431691423,1747819585,431445812,mA1/imu,0.27687557800055934,-0.9609055065492481,-0.0007149125214245683,0.00010339378988180473,0.0,0.0,0.0,0.0,0.0,0.0,0.0,0.0,0.0,0.0006774014560673379,0.003016848258067805,0.001413571798443098,0.0,0.0,0.0,0.0,0.0,0.0,0.0,0.0,0.0,-0.00973230006864164,-0.0006039699328883388,9.813344834877668,0.0,0.0,0.0,0.0,0.0,0.0,0.0,0.0,0.0
2025/05/21 11:26:25.482326253,1747819585,481952889,mA1/imu,0.27683981920578626,-0.9609158264515243,-0.0006798718862357063,0.000163558277048005,0.0,0.0,0.0,0.0,0.0,0.0,0.0,0.0,0.0,-0.00034640539104503017,0.002397057911499677,0.0014985336773189644,0.0,0.0,0.0,0.0,0.0,0.0,0.0,0.0,0.0,0.007101541808135768,0.5448550360811614,9.812394973278353,0.0,0.0,0.0,0.0,0.0,0.0,0.0,0.0,0.0
2025/05/21 11:26:25.532842928,1747819585,532558099,mA1/imu,0.2768021776274021,-0.9609266869860293,-0.0006442601125886225,0.0002040286474741492,0.0,0.0,0.0,0.0,0.0,0.0,0.0,0.0,0.0,0.0012823527735029985,0.0016537073978794097,0.0016235585783302452,0.0,0.0,0.0,0.0,0.0,0.0,0.0,0.0,0.0,0.013740962929933613,-0.5919327044181024,9.80985082326482,0.0,0.0,0.0,0.0,0.0,0.0,0.0,0.0,0.0
2025/05/21 11:26:25.582518936,1747819585,582367257,mA1/imu,0.2767651470279191,-0.9609373694364327,-0.0006140495728603051,0.00021989616960335217,0.0,0.0,0.0,0.0,0.0,0.0,0.0,0.0,0.0,0.0013278238704744166,0.00044739649069830303,0.00147034120618315,0.0,0.0,0.0,0.0,0.0,0.0,0.0,0.0,0.0,0.01595366929038975,0.04220140279337824,9.810916144051752,0.0,0.0,0.0,0.0,0.0,0.0,0.0,0.0,0.0
2025/05/21 11:26:25.634362094,1747819585,633938323,mA1/imu,0.2767317486234707,-0.960946999046691,-0.0006005302339497622,0.00020902246999160947,0.0,0.0,0.0,0.0,0.0,0.0,0.0,0.0,0.0,0.0010113872629233266,-0.0007425016983564761,0.0013247716483897728,0.0,0.0,0.0,0.0,0.0,0.0,0.0,0.0,0.0,0.012835498117039821,0.03041207241237303,9.80945876474271,0.0,0.0,0.0,0.0,0.0,0.0,0.0,0.0,0.0
2025/05/21 11:26:25.683539819,1747819585,683283095,mA1/imu,0.27670110997397324,-0.9609558319836708,-0.0005960084149317205,0.00017172568673942375,0.0,0.0,0.0,0.0,0.0,0.0,0.0,0.0,0.0,-0.000269113789632603,-0.0018007474510022162,0.00124586091478243,0.0,0.0,0.0,0.0,0.0,0.0,0.0,0.0,0.0,0.012452847164022169,-0.1236267564367551,9.809586232147153,0.0,0.0,0.0,0.0,0.0,0.0,0.0,0.0,0.0
2025/05/21 11:26:25.734892006,1747819585,734473312,mA1/imu,0.2766670669749401,-0.9609656461756,-0.0005893616707798624,0.00011651015651818929,0.0,0.0,0.0,0.0,0.0,0.0,0.0,0.0,0.0,0.0010184430404062091,-0.0020547499762692562,0.0016197148182659983,0.0,0.0,0.0,0.0,0.0,0.0,0.0,0.0,0.0,0.004207327157388795,-0.22962815745652634,9.810507820168034,0.0,0.0,0.0,0.0,0.0,0.0,0.0,0.0,0.0
2025/05/21 11:26:25.784356524,1747819585,784211001,mA1/imu,0.2766282948773319,-0.9609768136141631,-0.0005895575343078415,5.090327568217813e-05,0.0,0.0,0.0,0.0,0.0,0.0,0.0,0.0,0.0,0.00138097072023034,-0.0028564864572745317,0.0015854084403008806,0.0,0.0,0.0,0.0,0.0,0.0,0.0,0.0,0.0,0.012003804552727865,-0.28666894079115135,9.809877609122308,0.0,0.0,0.0,0.0,0.0,0.0,0.0,0.0,0.0
2025/05/21 11:26:25.835767039,1747819585,835272767,mA1/imu,0.2765907233392163,-0.9609876191753293,-0.0006055934478684811,-2.8478016404685005e-05,0.0,0.0,0.0,0.0,0.0,0.0,0.0,0.0,0.0,-0.0003204592421214937,-0.003443979802415831,0.0015548234189852253,0.0,0.0,0.0,0.0,0.0,0.0,0.0,0.0,0.0,0.009693577841663558,0.3441223301313449,9.809166353569523,0.0,0.0,0.0,0.0,0.0,0.0,0.0,0.0,0.0
2025/05/21 11:26:25.876773647,1747819585,876490569,mA1/imu,0.2765540648862097,-0.9609981477039906,-0.0006287140777871718,-0.00011841884025255974,0.0,0.0,0.0,0.0,0.0,0.0,0.0,0.0,0.0,-0.0009855002421745977,-0.0038591085416351755,0.0015002116432588513,0.0,0.0,0.0,0.0,0.0,0.0,0.0,0.0,0.0,0.00956931651980521,0.14218326412864932,9.80898732157402,0.0,0.0,0.0,0.0,0.0,0.0,0.0,0.0,0.0
2025/05/21 11:26:25.928112395,1747819585,927886082,mA1/imu,0.2765187598854711,-0.9610082765327382,-0.0006487826094625953,-0.00021667510909389673,0.0,0.0,0.0,0.0,0.0,0.0,0.0,0.0,0.0,-9.797886835745733e-06,-0.004052316012755426,0.0014437281139886445,0.0,0.0,0.0,0.0,0.0,0.0,0.0,0.0,0.0,0.008170467407549745,0.008666033529557207,9.809822978735104,0.0,0.0,0.0,0.0,0.0,0.0,0.0,0.0,0.0
2025/05/21 11:26:25.979009917,1747819585,977350069,mA1/imu,0.2764848315736233,-0.9610179932934843,-0.0006751109424076388,-0.00031416728889898635,0.0,0.0,0.0,0.0,0.0,0.0,0.0,0.0,0.0,-0.0002550365611962608,-0.003995113910314153,0.001386779399446982,0.0,0.0,0.0,0.0,0.0,0.0,0.0,0.0,0.0,0.008197177504093928,0.6315833173403895,9.811046229861175,0.0,0.0,0.0,0.0,0.0,0.0,0.0,0.0,0.0
2025/05/21 11:26:26.29079866,1747819586,28501376,mA1/imu,0.27644986635355656,-0.9610279932684522,-0.0007128274399733512,-0.00039928004362378103,0.0,0.0,0.0,0.0,0.0,0.0,0.0,0.0,0.0,-0.00022028245434992623,-0.003393787691497495,0.001537520286713201,0.0,0.0,0.0,0.0,0.0,0.0,0.0,0.0,0.0,0.0022796947983414473,0.05282507712444045,9.809913244965085,0.0,0.0,0.0,0.0,0.0,0.0,0.0,0.0,0.0
2025/05/21 11:26:26.78821547,1747819586,78365464,mA1/imu,0.27641331280624504,-0.9610384499629355,-0.0007464875221984634,-0.00047005605452962176,0.0,0.0,0.0,0.0,0.0,0.0,0.0,0.0,0.0,-0.0009812859600095557,-0.0028916649770059795,0.0014984131258775244,0.0,0.0,0.0,0.0,0.0,0.0,0.0,0.0,0.0,0.007193407996387289,0.5935655396681058,9.809920629097642,0.0,0.0,0.0,0.0,0.0,0.0,0.0,0.0,0.0
2025/05/21 11:26:26.130186851,1747819586,129397017,mA1/imu,0.2763780301772996,-0.961048538369869,-0.0007847292518298556,-0.000524911854981422,0.0,0.0,0.0,0.0,0.0,0.0,0.0,0.0,0.0,-9.08325060782891e-05,-0.0022733307051932506,0.001445102959515121,0.0,0.0,0.0,0.0,0.0,0.0,0.0,0.0,0.0,0.006064135169085586,0.05756685703741238,9.809167081709496,0.0,0.0,0.0,0.0,0.0,0.0,0.0,0.0,0.0
2025/05/21 11:26:26.179722479,1747819586,179426670,mA1/imu,0.2763440862286432,-0.9610582478870742,-0.000821454008473489,-0.000561594155565282,0.0,0.0,0.0,0.0,0.0,0.0,0.0,0.0,0.0,-0.0008364462914258363,-0.0015070388529751417,0.0013905144639648813,0.0,0.0,0.0,0.0,0.0,0.0,0.0,0.0,0.0,0.005799260774376697,-0.6166279935117782,9.809741032743146,0.0,0.0,0.0,0.0,0.0,0.0,0.0,0.0,0.0
2025/05/21 11:26:26.230960935,1747819586,230772983,mA1/imu,0.2763110886020734,-0.9610676990348465,-0.0008511691528942497,-0.0005793949221372865,0.0,0.0,0.0,0.0,0.0,0.0,0.0,0.0,0.0,-0.0021134670093034473,-0.0006708843943063427,0.0013679843727304687,0.0,0.0,0.0,0.0,0.0,0.0,0.0,0.0,0.0,0.006979216290257266,0.22243548016147827,9.810883760265327,0.0,0.0,0.0,0.0,0.0,0.0,0.0,0.0,0.0
2025/05/21 11:26:26.280657642,1747819586,280417328,mA1/imu,0.2762789030848731,-0.9610769352311794,-0.0008704234807075779,-0.0005784806191849925,0.0,0.0,0.0,0.0,0.0,0.0,0.0,0.0,0.0,-0.0013745536868838633,0.00015856313295963312,0.0013190824923960621,0.0,0.0,0.0,0.0,0.0,0.0,0.0,0.0,0.0,0.007313256494709208,0.21192260691095574,9.808942084356875,0.0,0.0,0.0,0.0,0.0,0.0,0.0,0.0,0.0
2025/05/21 11:26:26.332001814,1747819586,331675749,mA1/imu,0.27624609579129933,-0.9610863648568709,-0.0008869249803267893,-0.0005542655944339961,0.0,0.0,0.0,0.0,0.0,0.0,0.0,0.0,0.0,-0.0006896133615362961,0.0011929885842517642,0.0014349121305106825,0.0,0.0,0.0,0.0,0.0,0.0,0.0,0.0,0.0,0.005621643251824538,0.02536255933554045,9.808589214161534,0.0,0.0,0.0,0.0,0.0,0.0,0.0,0.0,0.0
2025/05/21 11:26:26.381629681,1747819586,381330788,mA1/imu,0.27621198890609283,-0.9610961809028675,-0.0008997240304982365,-0.0005086601338969559,0.0,0.0,0.0,0.0,0.0,0.0,0.0,0.0,0.0,-0.0007843623470341159,0.0018518073636423179,0.0014018328468232211,0.0,0.0,0.0,0.0,0.0,0.0,0.0,0.0,0.0,0.01058142945434361,0.26581254779083857,9.811101864512592,0.0,0.0,0.0,0.0,0.0,0.0,0.0,0.0,0.0
2025/05/21 11:26:26.432715322,1747819586,432438665,mA1/imu,0.27617722433743264,-0.9611061966245765,-0.0009048281366128192,-0.00044816643721173356,0.0,0.0,0.0,0.0,0.0,0.0,0.0,0.0,0.0,-0.00040722652525959424,0.002570142061800693,0.001515909845098127,0.0,0.0,0.0,0.0,0.0,0.0,0.0,0.0,0.0,0.008886563297422339,-0.061857376008047,9.80988575471059,0.0,0.0,0.0,0.0,0.0,0.0,0.0,0.0,0.0
2025/05/21 11:26:26.482498183,1747819586,482233967,mA1/imu,0.2761412348481435,-0.9611165717696312,-0.0009011951252597193,-0.00037647533749512975,0.0,0.0,0.0,0.0,0.0,0.0,0.0,0.0,0.0,0.0006567579990362438,0.0029076305382926618,0.0014815671113347847,0.0,0.0,0.0,0.0,0.0,0.0,0.0,0.0,0.0,0.012362171625405063,-0.3521066197435416,9.810575516439805,0.0,0.0,0.0,0.0,0.0,0.0,0.0,0.0,0.0
2025/05/21 11:26:26.533896474,1747819586,533593248,mA1/imu,0.2761011501346403,-0.9611281184811755,-0.0009004900623061506,-0.000289614937057667,0.0,0.0,0.0,0.0,0.0,0.0,0.0,0.0,0.0,-0.0008706155349508686,0.0037306247562124708,0.0018903951659490473,0.0,0.0,0.0,0.0,0.0,0.0,0.0,0.0,0.0,0.008354987295960199,-0.015729720598880302,9.811098187298441,0.0,0.0,0.0,0.0,0.0,0.0,0.0,0.0,0.0
2025/05/21 11:26:26.583343851,1747819586,583165866,mA1/imu,0.27605574351217677,-0.9611411975422,-0.0008865214025351642,-0.00019733445675807358,0.0,0.0,0.0,0.0,0.0,0.0,0.0,0.0,0.0,0.0005983266085974069,0.0036114283507922384,0.001875574693877434,0.0,0.0,0.0,0.0,0.0,0.0,0.0,0.0,0.0,0.01565571273129511,-0.5550673662215012,9.810678704089447,0.0,0.0,0.0,0.0,0.0,0.0,0.0,0.0,0.0
2025/05/21 11:26:26.634894084,1747819586,634332917,mA1/imu,0.27601182009518904,-0.9611538382612101,-0.0008729034592243103,-0.00011136891532248516,0.0,0.0,0.0,0.0,0.0,0.0,0.0,0.0,0.0,-0.0009077385171837859,0.003327543299978547,0.0017920775220646086,0.0,0.0,0.0,0.0,0.0,0.0,0.0,0.0,0.0,0.015259883699515319,0.022382155989347275,9.813164688959583,0.0,0.0,0.0,0.0,0.0,0.0,0.0,0.0,0.0
2025/05/21 11:26:26.684152171,1747819586,683995016,mA1/imu,0.27596973435746763,-0.9611659444431525,-0.0008553139394573417,-3.7409039085884154e-05,0.0,0.0,0.0,0.0,0.0,0.0,0.0,0.0,0.0,0.00014954753161891936,0.002816282111772901,0.0017330682393198646,0.0,0.0,0.0,0.0,0.0,0.0,0.0,0.0,0.0,0.015724690331750325,-0.30695476140583083,9.810491759168627,0.0,0.0,0.0,0.0,0.0,0.0,0.0,0.0,0.0
2025/05/21 11:26:26.736566187,1747819586,735052589,mA1/imu,0.2759289284101956,-0.9611776791263236,-0.0008337967029966316,1.996981289633515e-05,0.0,0.0,0.0,0.0,0.0,0.0,0.0,0.0,0.0,0.001125761582506968,0.00217619323095657,0.0016779507581418417,0.0,0.0,0.0,0.0,0.0,0.0,0.0,0.0,0.0,0.015834842300944212,-0.1923298557888472,9.810224083204249,0.0,0.0,0.0,0.0,0.0,0.0,0.0,0.0,0.0
2025/05/21 11:26:26.785097113,1747819586,784875424,mA1/imu,0.27588944508433094,-0.9611890255225135,-0.0008171063229373439,6.0360564571973235e-05,0.0,0.0,0.0,0.0,0.0,0.0,0.0,0.0,0.0,-0.0004952669121902085,0.0014379990926448585,0.0016224832194222788,0.0,0.0,0.0,0.0,0.0,0.0,0.0,0.0,0.0,0.015884978979468112,0.5785538097698948,9.811281095451408,0.0,0.0,0.0,0.0,0.0,0.0,0.0,0.0,0.0
2025/05/21 11:26:26.836029543,1747819586,835807874,mA1/imu,0.27584582610830005,-0.9612015574488072,-0.0007989753482694728,8.840254404985322e-05,0.0,0.0,0.0,0.0,0.0,0.0,0.0,0.0,0.0,0.0007120763418984514,0.0013180665957793982,0.002043349752185529,0.0,0.0,0.0,0.0,0.0,0.0,0.0,0.0,0.0,0.0068082119871378044,0.2632635000853739,9.812203277610246,0.0,0.0,0.0,0.0,0.0,0.0,0.0,0.0,0.0
2025/05/21 11:26:26.876277898,1747819586,875639270,mA1/imu,0.2757965574271784,-0.9612157026036638,-0.0007877104464015282,0.00010719941477321874,0.0,0.0,0.0,0.0,0.0,0.0,0.0,0.0,0.0,0.0011012401470356322,0.00046244040236323013,0.0020316296944940656,0.0,0.0,0.0,0.0,0.0,0.0,0.0,0.0,0.0,0.016635949452900804,-0.5909654926243103,9.8084037971273,0.0,0.0,0.0,0.0,0.0,0.0,0.0,0.0,0.0
2025/05/21 11:26:26.927495719,1747819586,927227704,mA1/imu,0.2757487523868032,-0.9612294304861682,-0.0007728330944468111,0.00010125890852872867,0.0,0.0,0.0,0.0,0.0,0.0,0.0,0.0,0.0,0.0011529322379958723,-0.000410264930253308,0.0019494360923089944,0.0,0.0,0.0,0.0,0.0,0.0,0.0,0.0,0.0,0.013166903908849285,-0.5991796977347016,9.807829522520843,0.0,0.0,0.0,0.0,0.0,0.0,0.0,0.0,0.0
2025/05/21 11:26:26.977419898,1747819586,977189400,mA1/imu,0.27570298480026173,-0.9612425694192624,-0.0007624693435101945,7.449148454438708e-05,0.0,0.0,0.0,0.0,0.0,0.0,0.0,0.0,0.0,-0.0005567994138420146,-0.0012417899746480574,0.0018808542368354446,0.0,0.0,0.0,0.0,0.0,0.0,0.0,0.0,0.0,0.015249916633653755,0.542603064101936,9.810496935307796,0.0,0.0,0.0,0.0,0.0,0.0,0.0,0.0,0.0
2025/05/21 11:26:27.28725758,1747819587,28223030,mA1/imu,0.27565856365321945,-0.9612553189044992,-0.0007532632161027269,2.7513281877460398e-05,0.0,0.0,0.0,0.0,0.0,0.0,0.0,0.0,0.0,-0.0005259946277677079,-0.0019851689802608255,0.0018239587405632488,0.0,0.0,0.0,0.0,0.0,0.0,0.0,0.0,0.0,0.01401456795890864,0.5405515157832075,9.80991873144635,0.0,0.0,0.0,0.0,0.0,0.0,0.0,0.0,0.0
2025/05/21 11:26:27.78743772,1747819587,78064594,mA1/imu,0.27561551031315784,-0.9612676661753061,-0.000750495575270516,-3.4598981680958335e-05,0.0,0.0,0.0,0.0,0.0,0.0,0.0,0.0,0.0,0.00016877024173578612,-0.002579310962786127,0.0017671041055494195,0.0,0.0,0.0,0.0,0.0,0.0,0.0,0.0,0.0,0.012753865933534662,-0.03982180453770385,9.809537491915522,0.0,0.0,0.0,0.0,0.0,0.0,0.0,0.0,0.0
2025/05/21 11:26:27.129681116,1747819587,129418336,mA1/imu,0.27556863973007595,-0.9612811051078293,-0.0007424174860304478,-0.00010284095752734917,0.0,0.0,0.0,0.0,0.0,0.0,0.0,0.0,0.0,0.0020894918012941454,-0.0023534155495804434,0.0021596671008700364,0.0,0.0,0.0,0.0,0.0,0.0,0.0,0.0,0.0,0.0052334243587878445,-0.524488001772425,9.807976029989357,0.0,0.0,0.0,0.0,0.0,0.0,0.0,0.0,0.0
2025/05/21 11:26:27.179836078,1747819587,179527323,mA1/imu,0.2755166677766782,-0.9612959920893086,-0.0007437448773271945,-0.00016796971451528523,0.0,0.0,0.0,0.0,0.0,0.0,0.0,0.0,0.0,0.0006944761015765317,-0.0026395318600043243,0.0021405740815937714,0.0,0.0,0.0,0.0,0.0,0.0,0.0,0.0,0.0,0.013106036156541477,0.5644388042023337,9.810348976685356,0.0,0.0,0.0,0.0,0.0,0.0,0.0,0.0,0.0
2025/05/21 11:26:27.230939213,1747819587,230598817,mA1/imu,0.27546554491857855,-0.96131062154481,-0.0007527793705120743,-0.0002362013152214964,0.0,0.0,0.0,0.0,0.0,0.0,0.0,0.0,0.0,-0.0009384315287632119,-0.002748474270876303,0.0021210207963630627,0.0,0.0,0.0,0.0,0.0,0.0,0.0,0.0,0.0,0.011305720594803944,0.5224869623440769,9.809921401195353,0.0,0.0,0.0,0.0,0.0,0.0,0.0,0.0,0.0
2025/05/21 11:26:27.281248648,1747819587,280371130,mA1/imu,0.275415133538223,-0.9613250421298566,-0.0007574094897488412,-0.00030646862320024256,0.0,0.0,0.0,0.0,0.0,0.0,0.0,0.0,0.0,0.0006465136883540664,-0.0027384294860027074,0.00207647176229634,0.0,0.0,0.0,0.0,0.0,0.0,0.0,0.0,0.0,0.010680561582055817,-0.6160535581599804,9.80875994929284,0.0,0.0,0.0,0.0,0.0,0.0,0.0,0.0,0.0
2025/05/21 11:26:27.332301573,1747819587,332011128,mA1/imu,0.275366463786444,-0.9613389588451483,-0.0007582883603104326,-0.00037659930657965156,0.0,0.0,0.0,0.0,0.0,0.0,0.0,0.0,0.0,0.001954228912668527,-0.0026636138853365072,0.0019743616755159904,0.0,0.0,0.0,0.0,0.0,0.0,0.0,0.0,0.0,0.012356209106476593,-0.5175170232787542,9.808448156483054,0.0,0.0,0.0,0.0,0.0,0.0,0.0,0.0,0.0
2025/05/21 11:26:27.381595170,1747819587,381223000,mA1/imu,0.27531997339138914,-0.9613522382147617,-0.0007705611411995873,-0.00043882429345092744,0.0,0.0,0.0,0.0,0.0,0.0,0.0,0.0,0.0,-1.3546641753290326e-05,-0.0024163106820080265,0.0019076106497775784,0.0,0.0,0.0,0.0,0.0,0.0,0.0,0.0,0.0,0.012629001153505987,0.326304410853376,9.809833877824014,0.0,0.0,0.0,0.0,0.0,0.0,0.0,0.0,0.0
2025/05/21 11:26:27.432671874,1747819587,432376021,mA1/imu,0.27526994958098344,-0.9613665321092406,-0.0007814001147443553,-0.0004849863871373722,0.0,0.0,0.0,0.0,0.0,0.0,0.0,0.0,0.0,0.00011148536719493446,-0.0014048304298253742,0.002282770347959691,0.0,0.0,0.0,0.0,0.0,0.0,0.0,0.0,0.0,0.006864349245006077,0.005494110736740637,9.809556411286566,0.0,0.0,0.0,0.0,0.0,0.0,0.0,0.0,0.0
2025/05/21 11:26:27.482418210,1747819587,482164681,mA1/imu,0.27521532553202516,-0.9613821502378959,-0.0007896295177938463,-0.0005121342460472383,0.0,0.0,0.0,0.0,0.0,0.0,0.0,0.0,0.0,-9.602589557635265e-05,-0.0009780002318192746,0.0022451914602165004,0.0,0.0,0.0,0.0,0.0,0.0,0.0,0.0,0.0,0.013924139776392713,0.002550685978499839,9.810140601484274,0.0,0.0,0.0,0.0,0.0,0.0,0.0,0.0,0.0
2025/05/21 11:26:27.533779053,1747819587,533458844,mA1/imu,0.2751606924773849,-0.9613977735000612,-0.0007988182089331995,-0.000525655743175351,0.0,0.0,0.0,0.0,0.0,0.0,0.0,0.0,0.0,-0.00027000924761952903,-0.0003394041998597913,0.002320944168648004,0.0,0.0,0.0,0.0,0.0,0.0,0.0,0.0,0.0,0.012102509890731595,0.0013984767834436945,9.8101596958644,0.0,0.0,0.0,0.0,0.0,0.0,0.0,0.0,0.0
2025/05/21 11:26:27.583388804,1747819587,583149237,mA1/imu,0.27510557671888997,-0.9614135404582388,-0.0008060597238791577,-0.0005254992320099159,0.0,0.0,0.0,0.0,0.0,0.0,0.0,0.0,0.0,-0.00036613374289278726,9.041762000466958e-05,0.002267531435465137,0.0,0.0,0.0,0.0,0.0,0.0,0.0,0.0,0.0,0.014844144529739936,0.004473120802296671,9.810812094671583,0.0,0.0,0.0,0.0,0.0,0.0,0.0,0.0,0.0
2025/05/21 11:26:27.634898315,1747819587,634458023,mA1/imu,0.2750516714172714,-0.9614289624415504,-0.0008150347873482742,-0.0005137581382335958,0.0,0.0,0.0,0.0,0.0,0.0,0.0,0.0,0.0,-0.0005377047960475913,0.0005315144268551809,0.0022343175479247785,0.0,0.0,0.0,0.0,0.0,0.0,0.0,0.0,0.0,0.014357677197391432,0.0017355071952500634,9.810406932874956,0.0,0.0,0.0,0.0,0.0,0.0,0.0,0.0,0.0
2025/05/21 11:26:27.684187822,1747819587,684019478,mA1/imu,0.27499878363576835,-0.9614440949298894,-0.0008246490369818919,-0.0004911998160716164,0.0,0.0,0.0,0.0,0.0,0.0,0.0,0.0,0.0,-0.000663371276374407,0.0009045543888721525,0.00217759825285965,0.0,0.0,0.0,0.0,0.0,0.0,0.0,0.0,0.0,0.014997238898956508,0.0006270229578336037,9.810969186723556,0.0,0.0,0.0,0.0,0.0,0.0,0.0,0.0,0.0
2025/05/21 11:26:27.735325400,1747819587,735030041,mA1/imu,0.2749456810129891,-0.9614592936635947,-0.0008301143272630305,-0.0004582907468856321,0.0,0.0,0.0,0.0,0.0,0.0,0.0,0.0,0.0,-0.00017935566589585969,0.0014397239995160632,0.0022627474805124673,0.0,0.0,0.0,0.0,0.0,0.0,0.0,0.0,0.0,0.013142431822803535,-0.01814516293401861,9.81032923550195,0.0,0.0,0.0,0.0,0.0,0.0,0.0,0.0,0.0
2025/05/21 11:26:27.785650714,1747819587,785145854,mA1/imu,0.2748918525515718,-0.9614747018595114,-0.0008330617524657729,-0.0004160445228417115,0.0,0.0,0.0,0.0,0.0,0.0,0.0,0.0,0.0,-0.000829691401299194,0.001667325241609305,0.002218823499771783,0.0,0.0,0.0,0.0,0.0,0.0,0.0,0.0,0.0,0.016627066581403158,0.6242462718555689,9.811735637774111,0.0,0.0,0.0,0.0,0.0,0.0,0.0,0.0,0.0
2025/05/21 11:26:27.826615350,1747819587,826248935,mA1/imu,0.27483845244411576,-0.961489978690625,-0.0008435044746927247,-0.00036665491453558333,0.0,0.0,0.0,0.0,0.0,0.0,0.0,0.0,0.0,-0.0015183025470703942,0.001838484486051915,0.002217760284715186,0.0,0.0,0.0,0.0,0.0,0.0,0.0,0.0,0.0,0.016927124188745202,0.5807795609027295,9.810787654915707,0.0,0.0,0.0,0.0,0.0,0.0,0.0,0.0,0.0
2025/05/21 11:26:27.876143493,1747819587,875833744,mA1/imu,0.2747859854222469,-0.9615049847622194,-0.0008524267600069184,-0.0003160087784875914,0.0,0.0,0.0,0.0,0.0,0.0,0.0,0.0,0.0,-0.0018519241065196338,0.0018440571593595569,0.0021626311575222166,0.0,0.0,0.0,0.0,0.0,0.0,0.0,0.0,0.0,0.016971937914589997,0.5555126430909987,9.811790423285398,0.0,0.0,0.0,0.0,0.0,0.0,0.0,0.0,0.0
2025/05/21 11:26:27.927039207,1747819587,926815938,mA1/imu,0.2747287038854357,-0.9615213717010848,-0.0008507786434443028,-0.00025922807065646724,0.0,0.0,0.0,0.0,0.0,0.0,0.0,0.0,0.0,-0.0019622467305775524,0.0027683844914630456,0.0027418810710573703,0.0,0.0,0.0,0.0,0.0,0.0,0.0,0.0,0.0,-0.032592022792928055,0.5387633146244234,9.812013699185496,0.0,0.0,0.0,0.0,0.0,0.0,0.0,0.0,0.0
2025/05/21 11:26:27.976856761,1747819587,976706097,mA1/imu,0.27465876906434206,-0.9615413745729198,-0.0008432365129256924,-0.00018577584303647613,0.0,0.0,0.0,0.0,0.0,0.0,0.0,0.0,0.0,-0.00029785993290443457,0.002754455875935571,0.002886612394159384,0.0,0.0,0.0,0.0,0.0,0.0,0.0,0.0,0.0,0.01923189536227427,0.02507652153514181,9.81088358382574,0.0,0.0,0.0,0.0,0.0,0.0,0.0,0.0,0.0
2025/05/21 11:26:28.27907107,1747819588,27657014,mA1/imu,0.27459067949411586,-0.9615608366121996,-0.000837328673045004,-0.00012291989121938302,0.0,0.0,0.0,0.0,0.0,0.0,0.0,0.0,0.0,0.0014369441994963668,0.002287531949151966,0.002793242310584551,0.0,0.0,0.0,0.0,0.0,0.0,0.0,0.0,0.0,0.017555200154224793,-0.4883700809337981,9.809232602490189,0.0,0.0,0.0,0.0,0.0,0.0,0.0,0.0,0.0
2025/05/21 11:26:28.78527813,1747819588,77568442,mA1/imu,0.27452466927834746,-0.9615796860170119,-0.0008416662629020395,-7.067489398465858e-05,0.0,0.0,0.0,0.0,0.0,0.0,0.0,0.0,0.0,5.5589795015371795e-06,0.001710346018001995,0.0027198860413026804,0.0,0.0,0.0,0.0,0.0,0.0,0.0,0.0,0.0,0.019245598120068454,0.031021751499367048,9.809360213726325,0.0,0.0,0.0,0.0,0.0,0.0,0.0,0.0,0.0
2025/05/21 11:26:28.128845768,1747819588,128633384,mA1/imu,0.274455152137542,-0.9615995288864261,-0.0008454707539730789,-2.6263401685907466e-05,0.0,0.0,0.0,0.0,0.0,0.0,0.0,0.0,0.0,-0.001378472523032128,0.0017468532469202562,0.0031052094059526203,0.0,0.0,0.0,0.0,0.0,0.0,0.0,0.0,0.0,0.011326222546397754,-0.07373223692236096,9.808363257166917,0.0,0.0,0.0,0.0,0.0,0.0,0.0,0.0,0.0
2025/05/21 11:26:28.178937223,1747819588,178648328,mA1/imu,0.27438047306506724,-0.9616208448641873,-0.0008406399523049512,6.9099343188754525e-06,0.0,0.0,0.0,0.0,0.0,0.0,0.0,0.0,0.0,-0.0012916624323673336,0.0010136414305256887,0.003080870120002752,0.0,0.0,0.0,0.0,0.0,0.0,0.0,0.0,0.0,0.019569432800651737,-0.07342481579716426,9.809692547680744,0.0,0.0,0.0,0.0,0.0,0.0,0.0,0.0,0.0
2025/05/21 11:26:28.229795093,1747819588,229564478,mA1/imu,0.2743074344480294,-0.9616416933263834,-0.0008275306017454382,1.600028796087976e-05,0.0,0.0,0.0,0.0,0.0,0.0,0.0,0.0,0.0,0.00032715149743054123,0.00015621715422661252,0.0030099482326288256,0.0,0.0,0.0,0.0,0.0,0.0,0.0,0.0,0.0,0.020112189224328204,0.03358794985668853,9.809030429521435,0.0,0.0,0.0,0.0,0.0,0.0,0.0,0.0,0.0
2025/05/21 11:26:28.279788943,1747819588,279507868,mA1/imu,0.27423608342525974,-0.9616620427449066,-0.0008282758673846635,7.096127786217481e-06,0.0,0.0,0.0,0.0,0.0,0.0,0.0,0.0,0.0,3.803887684854609e-05,-0.0006806295913959632,0.0029398148223035913,0.0,0.0,0.0,0.0,0.0,0.0,0.0,0.0,0.0,0.02000824733005711,0.6217557980894307,9.810552936111316,0.0,0.0,0.0,0.0,0.0,0.0,0.0,0.0,0.0
2025/05/21 11:26:28.331719853,1747819588,331454904,mA1/imu,0.27416587751852795,-0.9616820647065533,-0.0008230829965172546,-2.3677350688586837e-05,0.0,0.0,0.0,0.0,0.0,0.0,0.0,0.0,0.0,0.001426107118535222,-0.0013958194353366744,0.002914274475421672,0.0,0.0,0.0,0.0,0.0,0.0,0.0,0.0,0.0,0.01723507706635059,0.3359727642649582,9.809148612477921,0.0,0.0,0.0,0.0,0.0,0.0,0.0,0.0,0.0
2025/05/21 11:26:28.381618800,1747819588,381354929,mA1/imu,0.27409666090021334,-0.9617017768374305,-0.0008418475570208897,-6.483650952637706e-05,0.0,0.0,0.0,0.0,0.0,0.0,0.0,0.0,0.0,0.0008183278193004956,-0.0020684461485387384,0.002850970276959032,0.0,0.0,0.0,0.0,0.0,0.0,0.0,0.0,0.0,0.01907763655882729,-0.048882364541473655,9.810668173783156,0.0,0.0,0.0,0.0,0.0,0.0,0.0,0.0,0.0
2025/05/21 11:26:28.435993916,1747819588,434959810,mA1/imu,0.27402870305912513,-0.9617211408015037,-0.0008373181710448779,-0.00012701759054345026,0.0,0.0,0.0,0.0,0.0,0.0,0.0,0.0,0.0,-0.00018410317237498646,-0.0024988737294863424,0.002813901147387829,0.0,0.0,0.0,0.0,0.0,0.0,0.0,0.0,0.0,0.016258349928144414,0.039942358419107545,9.809243503319282,0.0,0.0,0.0,0.0,0.0,0.0,0.0,0.0,0.0
2025/05/21 11:26:28.485379166,1747819588,484929822,mA1/imu,0.273961772162685,-0.961740198483032,-0.000835832395720617,-0.00019849308703888174,0.0,0.0,0.0,0.0,0.0,0.0,0.0,0.0,0.0,0.0026260646069105062,-0.002860919104588841,0.002756226323208778,0.0,0.0,0.0,0.0,0.0,0.0,0.0,0.0,0.0,0.015552882064331856,-0.4904448316423895,9.80875598463384,0.0,0.0,0.0,0.0,0.0,0.0,0.0,0.0,0.0
2025/05/21 11:26:28.536161423,1747819588,535702166,mA1/imu,0.27389434442169897,-0.9617593720677287,-0.0008529647216533607,-0.00026605427906843383,0.0,0.0,0.0,0.0,0.0,0.0,0.0,0.0,0.0,-0.0003743789067512644,-0.0026814334596926594,0.0028689416111311963,0.0,0.0,0.0,0.0,0.0,0.0,0.0,0.0,0.0,0.01018158767811516,-0.2184672567313784,9.812520007499336,0.0,0.0,0.0,0.0,0.0,0.0,0.0,0.0,0.0
2025/05/21 11:26:28.575955414,1747819588,575643458,mA1/imu,0.273825910930788,-0.9617788454748145,-0.000841518468393865,-0.0003387428588100945,0.0,0.0,0.0,0.0,0.0,0.0,0.0,0.0,0.0,-0.0007946883763645359,-0.0026376025697431105,0.002816472420187073,0.0,0.0,0.0,0.0,0.0,0.0,0.0,0.0,0.0,0.014427762664334296,0.5266310629145433,9.808647444612701,0.0,0.0,0.0,0.0,0.0,0.0,0.0,0.0,0.0
2025/05/21 11:26:28.627266248,1747819588,627025960,mA1/imu,0.27375860853481165,-0.9617979862040397,-0.0008316271414390731,-0.0004079010113618544,0.0,0.0,0.0,0.0,0.0,0.0,0.0,0.0,0.0,0.0020989443879925822,-0.0024431335612554823,0.00279103149027211,0.0,0.0,0.0,0.0,0.0,0.0,0.0,0.0,0.0,0.011819142601618258,0.09576990694265965,9.810277664925023,0.0,0.0,0.0,0.0,0.0,0.0,0.0,0.0,0.0
2025/05/21 11:26:28.677093585,1747819588,676884878,mA1/imu,0.2736922675735621,-0.9618168357548383,-0.0008372093457580249,-0.00046498333669297816,0.0,0.0,0.0,0.0,0.0,0.0,0.0,0.0,0.0,0.0024102521669201364,-0.0021481008963434253,0.0027320061790607345,0.0,0.0,0.0,0.0,0.0,0.0,0.0,0.0,0.0,0.013767579660331767,-0.5148404092078026,9.809939381243808,0.0,0.0,0.0,0.0,0.0,0.0,0.0,0.0,0.0
2025/05/21 11:26:28.728223399,1747819588,727753922,mA1/imu,0.27362701500344494,-0.9618353796696538,-0.000833572116729105,-0.0005140365394397207,0.0,0.0,0.0,0.0,0.0,0.0,0.0,0.0,0.0,0.00032840449994466544,-0.0016427215124818074,0.002707705362889433,0.0,0.0,0.0,0.0,0.0,0.0,0.0,0.0,0.0,0.011828805215612848,-0.023704141268955634,9.812225185142482,0.0,0.0,0.0,0.0,0.0,0.0,0.0,0.0,0.0
2025/05/21 11:26:28.777884686,1747819588,777661580,mA1/imu,0.2735626476099237,-0.9618536733844274,-0.000828470908429506,-0.0005499686226492636,0.0,0.0,0.0,0.0,0.0,0.0,0.0,0.0,0.0,-0.0009989546875125706,-0.0010999217793846911,0.0026505786704634935,0.0,0.0,0.0,0.0,0.0,0.0,0.0,0.0,0.0,0.012405004186763817,0.3620881795394477,9.810984488145248,0.0,0.0,0.0,0.0,0.0,0.0,0.0,0.0,0.0
2025/05/21 11:26:28.829583744,1747819588,829270376,mA1/imu,0.2734979171209319,-0.9618720810235919,-0.0008148857137803168,-0.0005701220307724978,0.0,0.0,0.0,0.0,0.0,0.0,0.0,0.0,0.0,-0.001245048446893745,-0.00023548846506244565,0.0027518056735094717,0.0,0.0,0.0,0.0,0.0,0.0,0.0,0.0,0.0,0.010315739402760054,0.5082575303896344,9.810428799918121,0.0,0.0,0.0,0.0,0.0,0.0,0.0,0.0,0.0
2025/05/21 11:26:28.880077380,1747819588,879632486,mA1/imu,0.273432174048591,-0.9618907847706003,-0.000798550739738133,-0.0005715637984417821,0.0,0.0,0.0,0.0,0.0,0.0,0.0,0.0,0.0,-0.0008324465927299014,0.00036913377468921556,0.0027117289838680847,0.0,0.0,0.0,0.0,0.0,0.0,0.0,0.0,0.0,0.01267281562863501,0.5493146756710982,9.81036201157991,0.0,0.0,0.0,0.0,0.0,0.0,0.0,0.0,0.0
2025/05/21 11:26:28.930859074,1747819588,930635369,mA1/imu,0.27336811991487764,-0.9619090096449414,-0.000786569871684323,-0.0005563145962902719,0.0,0.0,0.0,0.0,0.0,0.0,0.0,0.0,0.0,-0.00041668621606265566,0.000966806546020366,0.0026236337570003567,0.0,0.0,0.0,0.0,0.0,0.0,0.0,0.0,0.0,0.012377552080878946,-0.044452579580262344,9.809781574539798,0.0,0.0,0.0,0.0,0.0,0.0,0.0,0.0,0.0
2025/05/21 11:26:28.980758479,1747819588,980584117,mA1/imu,0.27330600301183045,-0.9619266882255036,-0.0007728857630140526,-0.0005271098646997198,0.0,0.0,0.0,0.0,0.0,0.0,0.0,0.0,0.0,-0.0009761803976713782,0.0014744543624291265,0.002558936400260942,0.0,0.0,0.0,0.0,0.0,0.0,0.0,0.0,0.0,0.01300783521230499,0.5600128419715661,9.81113144171008,0.0,0.0,0.0,0.0,0.0,0.0,0.0,0.0,0.0
2025/05/21 11:26:29.31778809,1747819589,31505184,mA1/imu,0.2732449924257934,-0.9619440557070202,-0.0007556122897517075,-0.00048667671489864756,0.0,0.0,0.0,0.0,0.0,0.0,0.0,0.0,0.0,-0.0005281546317646926,0.0019372856298414767,0.0025328948286063332,0.0,0.0,0.0,0.0,0.0,0.0,0.0,0.0,0.0,0.012130497435310415,0.45383090999548176,9.811980791679213,0.0,0.0,0.0,0.0,0.0,0.0,0.0,0.0,0.0
2025/05/21 11:26:29.81762975,1747819589,81515361,mA1/imu,0.2731848919046459,-0.9619611591572779,-0.0007447517003825373,-0.0004341114347094896,0.0,0.0,0.0,0.0,0.0,0.0,0.0,0.0,0.0,0.0010500577147987257,0.00224500489469706,0.0024764613243850007,0.0,0.0,0.0,0.0,0.0,0.0,0.0,0.0,0.0,0.01325486909880179,-0.5356652982632022,9.809101269891382,0.0,0.0,0.0,0.0,0.0,0.0,0.0,0.0,0.0
2025/05/21 11:26:29.133155374,1747819589,132850451,mA1/imu,0.27312095326776,-0.961979349317975,-0.0007360350350080438,-0.0003669118459944181,0.0,0.0,0.0,0.0,0.0,0.0,0.0,0.0,0.0,0.0009165399820686071,0.0030557832103687305,0.0028755315857909103,0.0,0.0,0.0,0.0,0.0,0.0,0.0,0.0,0.0,0.008162865894431187,-0.5320167712070459,9.808303848800804,0.0,0.0,0.0,0.0,0.0,0.0,0.0,0.0,0.0
2025/05/21 11:26:29.183152503,1747819589,182887155,mA1/imu,0.27305198808111536,-0.9619989601410611,-0.0007272699141088934,-0.00028908638752771774,0.0,0.0,0.0,0.0,0.0,0.0,0.0,0.0,0.0,-0.000639984620544657,0.0030499052055397535,0.002845821897979874,0.0,0.0,0.0,0.0,0.0,0.0,0.0,0.0,0.0,0.016165473050319484,-0.0017249540343399362,9.809852275818812,0.0,0.0,0.0,0.0,0.0,0.0,0.0,0.0,0.0
2025/05/21 11:26:29.234174642,1747819589,233885515,mA1/imu,0.27298438376049106,-0.9620181704314162,-0.0007212196823093025,-0.00021406743265603065,0.0,0.0,0.0,0.0,0.0,0.0,0.0,0.0,0.0,-0.002545897726689097,0.002866281809842521,0.002791641020970595,0.0,0.0,0.0,0.0,0.0,0.0,0.0,0.0,0.0,0.016349609005162892,0.5020984443566536,9.810233414020079,0.0,0.0,0.0,0.0,0.0,0.0,0.0,0.0,0.0
2025/05/21 11:26:29.284547456,1747819589,284333492,mA1/imu,0.272918060691151,-0.9620370020946969,-0.0007194389378859384,-0.00014545392314321178,0.0,0.0,0.0,0.0,0.0,0.0,0.0,0.0,0.0,-0.0013543638072863109,0.002512276075948284,0.0027386090643134733,0.0,0.0,0.0,0.0,0.0,0.0,0.0,0.0,0.0,0.015249669886568933,-0.03495095607950066,9.809943532598039,0.0,0.0,0.0,0.0,0.0,0.0,0.0,0.0,0.0
2025/05/21 11:26:29.336154909,1747819589,335816088,mA1/imu,0.2728533912590917,-0.9620553551599224,-0.0007161001870784213,-8.767582888644492e-05,0.0,0.0,0.0,0.0,0.0,0.0,0.0,0.0,0.0,0.00018413226358351061,0.002091380514912545,0.0026494323632111,0.0,0.0,0.0,0.0,0.0,0.0,0.0,0.0,0.0,0.01409461717249404,-0.5566042674359024,9.808774968013404,0.0,0.0,0.0,0.0,0.0,0.0,0.0,0.0,0.0
2025/05/21 11:26:29.385498592,1747819589,385233679,mA1/imu,0.27279068590281946,-0.9620731332001836,-0.0007256143753395384,-3.9278866445889874e-05,0.0,0.0,0.0,0.0,0.0,0.0,0.0,0.0,0.0,-0.0007779410896812864,0.001524390501702866,0.002583833878417794,0.0,0.0,0.0,0.0,0.0,0.0,0.0,0.0,0.0,0.014746658761380975,0.24270435821968406,9.810182695156675,0.0,0.0,0.0,0.0,0.0,0.0,0.0,0.0,0.0
2025/05/21 11:26:29.426583489,1747819589,426346569,mA1/imu,0.2727294482376993,-0.9620904851436504,-0.0007392105680203144,-5.267966409402822e-06,0.0,0.0,0.0,0.0,0.0,0.0,0.0,0.0,0.0,-0.0018940118106845058,0.00091118538327004,0.0025220604231878246,0.0,0.0,0.0,0.0,0.0,0.0,0.0,0.0,0.0,0.014895872505617188,0.5597372264527029,9.810432311816704,0.0,0.0,0.0,0.0,0.0,0.0,0.0,0.0,0.0
2025/05/21 11:26:29.476158465,1747819589,475981607,mA1/imu,0.2726696791020042,-0.9621074189439427,-0.0007485908455083427,1.109868594699958e-05,0.0,0.0,0.0,0.0,0.0,0.0,0.0,0.0,0.0,0.00012145949208108964,0.0002626693394287169,0.002461136758339009,0.0,0.0,0.0,0.0,0.0,0.0,0.0,0.0,0.0,0.014066205872847003,-0.4346989940924133,9.809494122996881,0.0,0.0,0.0,0.0,0.0,0.0,0.0,0.0,0.0
2025/05/21 11:26:29.528016108,1747819589,527627840,mA1/imu,0.2726064801003792,-0.9621253146808317,-0.0007651258667538316,2.0976178945898623e-05,0.0,0.0,0.0,0.0,0.0,0.0,0.0,0.0,0.0,-0.0006232296506168145,0.0002783564935069388,0.002824957495164779,0.0,0.0,0.0,0.0,0.0,0.0,0.0,0.0,0.0,0.00781248974573359,0.004369645378428837,9.81049863964393,0.0,0.0,0.0,0.0,0.0,0.0,0.0,0.0,0.0
2025/05/21 11:26:29.577318130,1747819589,577169058,mA1/imu,0.2725385416516075,-0.9621445508932724,-0.0007784636364891017,2.2252299150015282e-05,0.0,0.0,0.0,0.0,0.0,0.0,0.0,0.0,0.0,-0.0006159035952083284,-0.00037996932530176737,0.0028034622589425398,0.0,0.0,0.0,0.0,0.0,0.0,0.0,0.0,0.0,0.015213096928185394,0.07030270883660446,9.81046100409976,0.0,0.0,0.0,0.0,0.0,0.0,0.0,0.0,0.0
2025/05/21 11:26:29.628681825,1747819589,628413550,mA1/imu,0.2724727264853357,-0.9621631822155525,-0.0007899917422643092,4.851410007757615e-06,0.0,0.0,0.0,0.0,0.0,0.0,0.0,0.0,0.0,-0.000823189874356703,-0.0010574300198775272,0.0026715078207736986,0.0,0.0,0.0,0.0,0.0,0.0,0.0,0.0,0.0,0.013090125331620087,0.6050446188661944,9.809838935360045,0.0,0.0,0.0,0.0,0.0,0.0,0.0,0.0,0.0
2025/05/21 11:26:29.679458680,1747819589,679233896,mA1/imu,0.2724095387006956,-0.9621810610430834,-0.0008051378377417826,-2.7348540202843703e-05,0.0,0.0,0.0,0.0,0.0,0.0,0.0,0.0,0.0,-0.0006067829745830895,-0.0016184432939203664,0.002601089313547124,0.0,0.0,0.0,0.0,0.0,0.0,0.0,0.0,0.0,0.013147901249484529,0.5703154561312833,9.810256487774714,0.0,0.0,0.0,0.0,0.0,0.0,0.0,0.0,0.0
2025/05/21 11:26:29.731312889,1747819589,730984067,mA1/imu,0.27234781948808395,-0.9621985143533077,-0.0008240692005038927,-7.145856471145898e-05,0.0,0.0,0.0,0.0,0.0,0.0,0.0,0.0,0.0,-6.263037945990031e-05,-0.002078295732136534,0.0025393652892242336,0.0,0.0,0.0,0.0,0.0,0.0,0.0,0.0,0.0,0.012343474261553276,0.004722978100990573,9.81064576896583,0.0,0.0,0.0,0.0,0.0,0.0,0.0,0.0,0.0
2025/05/21 11:26:29.780390349,1747819589,780228944,mA1/imu,0.27228757734794906,-0.962215552741099,-0.0008298698645702262,-0.00012884538699577756,0.0,0.0,0.0,0.0,0.0,0.0,0.0,0.0,0.0,0.0008489332356015039,-0.0023926314951505582,0.002478028553582579,0.0,0.0,0.0,0.0,0.0,0.0,0.0,0.0,0.0,0.012388964883180517,0.12302299323170858,9.81102706001251,0.0,0.0,0.0,0.0,0.0,0.0,0.0,0.0,0.0
2025/05/21 11:26:29.831869603,1747819589,831625794,mA1/imu,0.2722224104106971,-0.9622339737378862,-0.0008400138474932547,-0.00018284289179112397,0.0,0.0,0.0,0.0,0.0,0.0,0.0,0.0,0.0,0.0026385614777320442,-0.001915808654032602,0.002965383979339871,0.0,0.0,0.0,0.0,0.0,0.0,0.0,0.0,0.0,0.003957220522857689,-0.45368003527059225,9.80871969744593,0.0,0.0,0.0,0.0,0.0,0.0,0.0,0.0,0.0
2025/05/21 11:26:29.881298618,1747819589,881079969,mA1/imu,0.27215108515922154,-0.9622541274336004,-0.0008536279964715196,-0.00022891680202258286,0.0,0.0,0.0,0.0,0.0,0.0,0.0,0.0,0.0,0.0011814589209095023,-0.0019730644698748084,0.0029432991786115135,0.0,0.0,0.0,0.0,0.0,0.0,0.0,0.0,0.0,0.012488462833487363,-0.5670074072468789,9.810141275944554,0.0,0.0,0.0,0.0,0.0,0.0,0.0,0.0,0.0
2025/05/21 11:26:29.932738746,1747819589,932484059,mA1/imu,0.27208097317212115,-0.962273933199083,-0.0008630696799990365,-0.00027682847712615126,0.0,0.0,0.0,0.0,0.0,0.0,0.0,0.0,0.0,-0.0002591950525971812,-0.0019279665985138276,0.002891942445743654,0.0,0.0,0.0,0.0,0.0,0.0,0.0,0.0,0.0,0.01153086714558475,-0.044756805800822336,9.810190714626769,0.0,0.0,0.0,0.0,0.0,0.0,0.0,0.0,0.0
2025/05/21 11:26:29.985153775,1747819589,984970779,mA1/imu,0.2720120779733322,-0.9622934067424064,-0.0008489904041046349,-0.00032862138929032987,0.0,0.0,0.0,0.0,0.0,0.0,0.0,0.0,0.0,-0.0009854483305604747,-0.0017521809434941735,0.002841263736753674,0.0,0.0,0.0,0.0,0.0,0.0,0.0,0.0,0.0,0.010599293298317415,0.5289359545312757,9.80930997055674,0.0,0.0,0.0,0.0,0.0,0.0,0.0,0.0,0.0
2025/05/21 11:26:30.27157741,1747819590,26385307,mA1/imu,0.2719443906542472,-0.9623125273161598,-0.000841950835815752,-0.0003732035172484432,0.0,0.0,0.0,0.0,0.0,0.0,0.0,0.0,0.0,0.0023542591378243943,-0.001530885532857025,0.0027919008306226756,0.0,0.0,0.0,0.0,0.0,0.0,0.0,0.0,0.0,0.009384008771109871,0.12659505094508489,9.810583705345262,0.0,0.0,0.0,0.0,0.0,0.0,0.0,0.0,0.0
2025/05/21 11:26:30.75962001,1747819590,75796487,mA1/imu,0.27187789597687245,-0.962331294699157,-0.0008514843550427924,-0.00040484098882141836,0.0,0.0,0.0,0.0,0.0,0.0,0.0,0.0,0.0,0.0012278073438128406,-0.001200318540139375,0.002743675736885128,0.0,0.0,0.0,0.0,0.0,0.0,0.0,0.0,0.0,0.010394258641226091,-0.5832954733454975,9.80989547094708,0.0,0.0,0.0,0.0,0.0,0.0,0.0,0.0,0.0
2025/05/21 11:26:30.129443315,1747819590,129214728,mA1/imu,0.2718133883256056,-0.962349519053655,-0.0008346072662036801,-0.0004342060153348646,0.0,0.0,0.0,0.0,0.0,0.0,0.0,0.0,0.0,0.0008245028337424186,-0.0007749286576902896,0.0026092520413308886,0.0,0.0,0.0,0.0,0.0,0.0,0.0,0.0,0.0,0.009849319534909947,0.01514607102895898,9.811079288593758,0.0,0.0,0.0,0.0,0.0,0.0,0.0,0.0,0.0
2025/05/21 11:26:30.179624378,1747819590,179304632,mA1/imu,0.27175210921730136,-0.9623668184531022,-0.0008355994648451836,-0.00044682204075098265,0.0,0.0,0.0,0.0,0.0,0.0,0.0,0.0,0.0,0.001326983497512866,-0.00032071260443216314,0.0025227324372534654,0.0,0.0,0.0,0.0,0.0,0.0,0.0,0.0,0.0,0.009196273330967564,-0.5722259341943506,9.809745005198923,0.0,0.0,0.0,0.0,0.0,0.0,0.0,0.0,0.0
2025/05/21 11:26:30.231344444,1747819590,230972725,mA1/imu,0.27169190580491664,-0.9623838247434554,-0.000824810310083099,-0.00044931080882715723,0.0,0.0,0.0,0.0,0.0,0.0,0.0,0.0,0.0,-0.002276421373853543,0.0002477304841404725,0.002497492860104385,0.0,0.0,0.0,0.0,0.0,0.0,0.0,0.0,0.0,0.009175318596226247,0.4394367954320234,9.811628882540738,0.0,0.0,0.0,0.0,0.0,0.0,0.0,0.0,0.0
2025/05/21 11:26:30.281030959,1747819590,280667657,mA1/imu,0.27163246557957144,-0.9624006320630569,-0.0007933108639902916,-0.0004446410513646707,0.0,0.0,0.0,0.0,0.0,0.0,0.0,0.0,0.0,0.000364086115972344,0.0007265918546372802,0.0024477557150729603,0.0,0.0,0.0,0.0,0.0,0.0,0.0,0.0,0.0,0.00873548096694541,0.6324820061499875,9.810832199521974,0.0,0.0,0.0,0.0,0.0,0.0,0.0,0.0,0.0
2025/05/21 11:26:30.331824407,1747819590,331569312,mA1/imu,0.2715700822986924,-0.9624182564663278,-0.000784648203693142,-0.0004175497473614942,0.0,0.0,0.0,0.0,0.0,0.0,0.0,0.0,0.0,0.0010979135728037479,0.0015230820942639357,0.0028082946300695064,0.0,0.0,0.0,0.0,0.0,0.0,0.0,0.0,0.0,0.0027314373859607943,0.07068029494672194,9.808626184896795,0.0,0.0,0.0,0.0,0.0,0.0,0.0,0.0,0.0
2025/05/21 11:26:30.381706370,1747819590,381482727,mA1/imu,0.27150069836286467,-0.9624378595139299,-0.0007713030114492822,-0.0003774312998592693,0.0,0.0,0.0,0.0,0.0,0.0,0.0,0.0,0.0,0.0015829278625316752,0.0017160088143985922,0.0029011660117310377,0.0,0.0,0.0,0.0,0.0,0.0,0.0,0.0,0.0,0.01592419889773905,-0.525743693711939,9.810094824280993,0.0,0.0,0.0,0.0,0.0,0.0,0.0,0.0,0.0
2025/05/21 11:26:30.432748864,1747819590,432477807,mA1/imu,0.27143096228130964,-0.9624575554518817,-0.0007573037523328986,-0.00033639211770759424,0.0,0.0,0.0,0.0,0.0,0.0,0.0,0.0,0.0,0.0004616896879537807,0.0016661042174998667,0.0028692246712700956,0.0,0.0,0.0,0.0,0.0,0.0,0.0,0.0,0.0,0.018658592889174937,-0.3439960637970119,9.810084149745288,0.0,0.0,0.0,0.0,0.0,0.0,0.0,0.0,0.0
2025/05/21 11:26:30.483178468,1747819590,482954800,mA1/imu,0.2713629689686325,-0.9624767533320099,-0.0007410110558416543,-0.0002987818892542347,0.0,0.0,0.0,0.0,0.0,0.0,0.0,0.0,0.0,0.000988076544903415,0.001596037577418472,0.002793844836930247,0.0,0.0,0.0,0.0,0.0,0.0,0.0,0.0,0.0,0.015575200396111984,0.0718203047916684,9.810631413797264,0.0,0.0,0.0,0.0,0.0,0.0,0.0,0.0,0.0
2025/05/21 11:26:30.534229023,1747819590,533923736,mA1/imu,0.27129546002471955,-0.9624958030254691,-0.0007316080249206725,-0.0002593800901147911,0.0,0.0,0.0,0.0,0.0,0.0,0.0,0.0,0.0,0.0006855611883733374,0.0016615535030658345,0.0028494835087570533,0.0,0.0,0.0,0.0,0.0,0.0,0.0,0.0,0.0,0.012377430926613989,0.06129598654941862,9.811673017320206,0.0,0.0,0.0,0.0,0.0,0.0,0.0,0.0,0.0
2025/05/21 11:26:30.584787370,1747819590,584466856,mA1/imu,0.2712276486140722,-0.9625149213633821,-0.0007355853800185591,-0.00021839018370033852,0.0,0.0,0.0,0.0,0.0,0.0,0.0,0.0,0.0,-0.0009814582390263796,0.00140658661689184,0.002789117529572434,0.0,0.0,0.0,0.0,0.0,0.0,0.0,0.0,0.0,0.017949703199018327,0.5820334582517256,9.811279909118932,0.0,0.0,0.0,0.0,0.0,0.0,0.0,0.0,0.0
2025/05/21 11:26:30.636163514,1747819590,635821096,mA1/imu,0.27116112170869106,-0.9625336711681025,-0.0007366600025101942,-0.0001878120877449652,0.0,0.0,0.0,0.0,0.0,0.0,0.0,0.0,0.0,-7.932500829240148e-05,0.000987492264055702,0.0027642094228804166,0.0,0.0,0.0,0.0,0.0,0.0,0.0,0.0,0.0,0.018661097210596816,-0.42148676033375776,9.809285310135369,0.0,0.0,0.0,0.0,0.0,0.0,0.0,0.0,0.0
2025/05/21 11:26:30.676182551,1747819590,676004511,mA1/imu,0.27109546512583427,-0.9625521609882429,-0.0007474329116946058,-0.00016585871621586744,0.0,0.0,0.0,0.0,0.0,0.0,0.0,0.0,0.0,-0.0009034163499400004,0.0005581988991344774,0.0027014049605935176,0.0,0.0,0.0,0.0,0.0,0.0,0.0,0.0,0.0,0.017954967367357706,-0.02010265620458595,9.80933455233455,0.0,0.0,0.0,0.0,0.0,0.0,0.0,0.0,0.0
2025/05/21 11:26:30.726686852,1747819590,726274387,mA1/imu,0.2710295270506905,-0.9625707211020207,-0.0007612559961195266,-0.00015110632969970813,0.0,0.0,0.0,0.0,0.0,0.0,0.0,0.0,0.0,-0.0006738291154112035,0.0004223692531327461,0.002836980353493062,0.0,0.0,0.0,0.0,0.0,0.0,0.0,0.0,0.0,0.0029925344013434383,-0.24131005164486735,9.807936389766251,0.0,0.0,0.0,0.0,0.0,0.0,0.0,0.0,0.0
2025/05/21 11:26:30.776340217,1747819590,776152876,mA1/imu,0.27096056224321297,-0.9625901275889949,-0.0007744927646689981,-0.00014190842725205657,0.0,0.0,0.0,0.0,0.0,0.0,0.0,0.0,0.0,0.00017663386744121054,-8.486968244368407e-06,0.002840266306869417,0.0,0.0,0.0,0.0,0.0,0.0,0.0,0.0,0.0,0.019412878474153173,-0.5667540908990244,9.809180857338665,0.0,0.0,0.0,0.0,0.0,0.0,0.0,0.0,0.0
2025/05/21 11:26:30.827351655,1747819590,827153528,mA1/imu,0.2708931725334342,-0.9626090779898387,-0.0007945091400834522,-0.00014422742467145252,0.0,0.0,0.0,0.0,0.0,0.0,0.0,0.0,0.0,0.00028871293795120113,-0.0005155159101293891,0.0027734564036495427,0.0,0.0,0.0,0.0,0.0,0.0,0.0,0.0,0.0,0.01866008343466271,-0.43820106381405494,9.80758951483936,0.0,0.0,0.0,0.0,0.0,0.0,0.0,0.0,0.0
2025/05/21 11:26:30.877280927,1747819590,877066755,mA1/imu,0.270827359908481,-0.9626275686596133,-0.0008251034249355991,-0.0001561596037380168,0.0,0.0,0.0,0.0,0.0,0.0,0.0,0.0,0.0,-0.0008833532012822919,-0.000984345796747039,0.0027081489729675924,0.0,0.0,0.0,0.0,0.0,0.0,0.0,0.0,0.0,0.019268756187427453,-0.048575025256484654,9.810345235048093,0.0,0.0,0.0,0.0,0.0,0.0,0.0,0.0,0.0
2025/05/21 11:26:30.928653619,1747819590,928221668,mA1/imu,0.270758785822733,-0.962646831354562,-0.0008530679392331068,-0.00017394801533922544,0.0,0.0,0.0,0.0,0.0,0.0,0.0,0.0,0.0,-0.0011263478557101473,-0.0009006883833429699,0.003023346141175259,0.0,0.0,0.0,0.0,0.0,0.0,0.0,0.0,0.0,0.015381930846652962,-0.2709654462516081,9.810888153512034,0.0,0.0,0.0,0.0,0.0,0.0,0.0,0.0,0.0
2025/05/21 11:26:30.978183566,1747819590,977966833,mA1/imu,0.2706859301912539,-0.9626672954401443,-0.0008757092941003591,-0.0001965189196458574,0.0,0.0,0.0,0.0,0.0,0.0,0.0,0.0,0.0,-0.0019291911766104466,-0.001258558091793207,0.0030080740887316226,0.0,0.0,0.0,0.0,0.0,0.0,0.0,0.0,0.0,0.019785323710650882,0.542523892110965,9.809917588619147,0.0,0.0,0.0,0.0,0.0,0.0,0.0,0.0,0.0
2025/05/21 11:26:31.29998067,1747819591,29662157,mA1/imu,0.27061384326452914,-0.9626875332804289,-0.0008997096518138957,-0.00022720604388568947,0.0,0.0,0.0,0.0,0.0,0.0,0.0,0.0,0.0,-0.0008568273646364039,-0.0015299739519082367,0.002991645630111023,0.0,0.0,0.0,0.0,0.0,0.0,0.0,0.0,0.0,0.018012150763142637,0.10629669945205927,9.809063470835648,0.0,0.0,0.0,0.0,0.0,0.0,0.0,0.0,0.0
2025/05/21 11:26:31.79677558,1747819591,79504191,mA1/imu,0.2705423425524024,-0.9627076000773895,-0.000920652717732239,-0.0002646470565552101,0.0,0.0,0.0,0.0,0.0,0.0,0.0,0.0,0.0,0.00018550681456860107,-0.0017450931490445541,0.002952231306868579,0.0,0.0,0.0,0.0,0.0,0.0,0.0,0.0,0.0,0.018106699772023366,0.04762486824092045,9.809127544843514,0.0,0.0,0.0,0.0,0.0,0.0,0.0,0.0,0.0
2025/05/21 11:26:31.131131200,1747819591,130791394,mA1/imu,0.27047014195737346,-0.9627278466527994,-0.0009516173386273115,-0.000300022104248152,0.0,0.0,0.0,0.0,0.0,0.0,0.0,0.0,0.0,-0.00035549098511470663,-0.0016207357812990115,0.0030613893558552696,0.0,0.0,0.0,0.0,0.0,0.0,0.0,0.0,0.0,0.01538105040180067,0.0014450945133156201,9.808906561188746,0.0,0.0,0.0,0.0,0.0,0.0,0.0,0.0,0.0
2025/05/21 11:26:31.182421192,1747819591,182203094,mA1/imu,0.27039663286445004,-0.9627484619753826,-0.0009731673054880477,-0.0003359240970515041,0.0,0.0,0.0,0.0,0.0,0.0,0.0,0.0,0.0,-0.0005611038558552455,-0.0016125462896511712,0.0030386200454582527,0.0,0.0,0.0,0.0,0.0,0.0,0.0,0.0,0.0,0.017933348503703483,-0.022800063059942137,9.809448205649671,0.0,0.0,0.0,0.0,0.0,0.0,0.0,0.0,0.0
2025/05/21 11:26:31.234100667,1747819591,233826153,mA1/imu,0.27032816004537,-0.9627676528171876,-0.0009950129581693412,-0.0003775242791998272,0.0,0.0,0.0,0.0,0.0,0.0,0.0,0.0,0.0,-0.0005154275046176176,-0.002312360876569312,0.0025184131331689513,0.0,0.0,0.0,0.0,0.0,0.0,0.0,0.0,0.0,0.06671402907099602,-0.3197868878546743,9.805642912143513,0.0,0.0,0.0,0.0,0.0,0.0,0.0,0.0,0.0
2025/05/21 11:26:31.283295087,1747819591,283088684,mA1/imu,0.27027954208791816,-0.9627812625043027,-0.0010035917278621756,-0.0004500033442428235,0.0,0.0,0.0,0.0,0.0,0.0,0.0,0.0,0.0,-4.202996923833309e-05,-0.0029732009930673316,0.0018043997405837644,0.0,0.0,0.0,0.0,0.0,0.0,0.0,0.0,0.0,0.026886174461088225,-0.011514501094369392,9.811403913318486,0.0,0.0,0.0,0.0,0.0,0.0,0.0,0.0,0.0
2025/05/21 11:26:31.334672155,1747819591,334220363,mA1/imu,0.27024759203648596,-0.9627901620473601,-0.0010302493381975633,-0.0005305182376889592,0.0,0.0,0.0,0.0,0.0,0.0,0.0,0.0,0.0,-0.0008113989694416905,-0.0038724985362250937,0.0008383821383624178,0.0,0.0,0.0,0.0,0.0,0.0,0.0,0.0,0.0,0.04438385076087394,0.26116781010538387,9.811312333858986,0.0,0.0,0.0,0.0,0.0,0.0,0.0,0.0,0.0
2025/05/21 11:26:31.384233450,1747819591,384081802,mA1/imu,0.2702329261198611,-0.9627942128104406,-0.0010393584419165394,-0.0006238216496204246,0.0,0.0,0.0,0.0,0.0,0.0,0.0,0.0,0.0,0.0016234120205167522,-0.0033706108587677596,0.0005600604846842918,0.0,0.0,0.0,0.0,0.0,0.0,0.0,0.0,0.0,0.00805104400835166,-0.5544965238525797,9.809332432540904,0.0,0.0,0.0,0.0,0.0,0.0,0.0,0.0,0.0
2025/05/21 11:26:31.435720594,1747819591,435393584,mA1/imu,0.27021850466585884,-0.9627982077520402,-0.001046142162367643,-0.0006902696447627225,0.0,0.0,0.0,0.0,0.0,0.0,0.0,0.0,0.0,0.0019542829705192404,-0.002126201047975998,0.0006290546179998187,0.0,0.0,0.0,0.0,0.0,0.0,0.0,0.0,0.0,0.0028732599450894333,-0.544781875865501,9.809120934184001,0.0,0.0,0.0,0.0,0.0,0.0,0.0,0.0,0.0
2025/05/21 11:26:31.485166803,1747819591,484977102,mA1/imu,0.2702028347996307,-0.962802585304179,-0.0010398933388691169,-0.0007269248079163462,0.0,0.0,0.0,0.0,0.0,0.0,0.0,0.0,0.0,0.0011066430071509086,-0.0008315927116245579,0.0006592621417536463,0.0,0.0,0.0,0.0,0.0,0.0,0.0,0.0,0.0,0.0045140590913815525,-0.45592859713629935,9.811406909512499,0.0,0.0,0.0,0.0,0.0,0.0,0.0,0.0,0.0
2025/05/21 11:26:31.526396978,1747819591,526054022,mA1/imu,0.2701871342186555,-0.9628070176241901,-0.0010087312299212753,-0.0007360554521603286,0.0,0.0,0.0,0.0,0.0,0.0,0.0,0.0,0.0,0.0018396957174109006,0.0005291744826073472,0.0006311993667370452,0.0,0.0,0.0,0.0,0.0,0.0,0.0,0.0,0.0,0.002897289377227944,-0.16846093921877367,9.810576978563152,0.0,0.0,0.0,0.0,0.0,0.0,0.0,0.0,0.0
2025/05/21 11:26:31.575856384,1747819591,575750783,mA1/imu,0.2701718156871392,-0.962811367020537,-0.0009784579012767384,-0.0007100454173382843,0.0,0.0,0.0,0.0,0.0,0.0,0.0,0.0,0.0,0.0018335121472539539,0.0018328826128216032,0.0006456650423259414,0.0,0.0,0.0,0.0,0.0,0.0,0.0,0.0,0.0,0.00421496517761074,-0.18485621133619232,9.810339523580005,0.0,0.0,0.0,0.0,0.0,0.0,0.0,0.0,0.0
2025/05/21 11:26:31.627199108,1747819591,626803680,mA1/imu,0.2701559139090596,-0.9628159106472856,-0.0009357826123143774,-0.0006547482732813047,0.0,0.0,0.0,0.0,0.0,0.0,0.0,0.0,0.0,0.00128402949375828,0.003057747880283345,0.0006737830496126442,0.0,0.0,0.0,0.0,0.0,0.0,0.0,0.0,0.0,0.004545055868975453,-0.6236031930943056,9.810177702382303,0.0,0.0,0.0,0.0,0.0,0.0,0.0,0.0,0.0
2025/05/21 11:26:31.677158086,1747819591,676707727,mA1/imu,0.2701393564268484,-0.9628206577083029,-0.0008831615241472871,-0.000573781457782708,0.0,0.0,0.0,0.0,0.0,0.0,0.0,0.0,0.0,0.00027229944078580867,0.004089414917237649,0.0007013640985903794,0.0,0.0,0.0,0.0,0.0,0.0,0.0,0.0,0.0,0.004319332054612907,-0.060391452319456355,9.810394937262684,0.0,0.0,0.0,0.0,0.0,0.0,0.0,0.0,0.0
2025/05/21 11:26:31.728452231,1747819591,727976811,mA1/imu,0.27012479542325046,-0.9628248470172707,-0.0008273051190535757,-0.00047374038917407654,0.0,0.0,0.0,0.0,0.0,0.0,0.0,0.0,0.0,0.00014139026509781658,0.004613359000974553,0.0004893628524234078,0.0,0.0,0.0,0.0,0.0,0.0,0.0,0.0,0.0,0.009306214224738651,-0.06927369037246216,9.812937154438982,0.0,0.0,0.0,0.0,0.0,0.0,0.0,0.0,0.0
2025/05/21 11:26:31.777999454,1747819591,777883851,mA1/imu,0.27011360372284454,-0.9628280864829558,-0.0007648253774516848,-0.00036332570748670015,0.0,0.0,0.0,0.0,0.0,0.0,0.0,0.0,0.0,0.0008489296674984584,0.005135327966618416,0.00047312475807115983,0.0,0.0,0.0,0.0,0.0,0.0,0.0,0.0,0.0,0.004695930995781821,0.22589713677289783,9.81076484812075,0.0,0.0,0.0,0.0,0.0,0.0,0.0,0.0,0.0
2025/05/21 11:26:31.829415985,1747819591,829003847,mA1/imu,0.27010202815015144,-0.9628314123074986,-0.0007129081505465336,-0.00024005226780413134,0.0,0.0,0.0,0.0,0.0,0.0,0.0,0.0,0.0,0.0009209544038193078,0.005377989394193414,0.0004925556349093833,0.0,0.0,0.0,0.0,0.0,0.0,0.0,0.0,0.0,0.006197943503595803,0.00956843055889768,9.810343326444078,0.0,0.0,0.0,0.0,0.0,0.0,0.0,0.0,0.0
2025/05/21 11:26:31.879677409,1747819591,879417231,mA1/imu,0.2700899935524677,-0.9628348497096567,-0.0006589698829361065,-0.00011543874531206252,0.0,0.0,0.0,0.0,0.0,0.0,0.0,0.0,0.0,0.0006133987729955251,0.005339838103921022,0.0005107782050430683,0.0,0.0,0.0,0.0,0.0,0.0,0.0,0.0,0.0,0.006766540889913258,0.0009936368812486374,9.807580265706763,0.0,0.0,0.0,0.0,0.0,0.0,0.0,0.0,0.0
2025/05/21 11:26:31.932219819,1747819591,931230307,mA1/imu,0.27007830326954946,-0.9628381614749049,-0.0006203664881886166,7.489107868260042e-06,0.0,0.0,0.0,0.0,0.0,0.0,0.0,0.0,0.0,5.536229868592918e-05,0.004981839829035364,0.00045557834568702923,0.0,0.0,0.0,0.0,0.0,0.0,0.0,0.0,0.0,0.007944725788551066,-0.022126641806028528,9.808183183692043,0.0,0.0,0.0,0.0,0.0,0.0,0.0,0.0,0.0
2025/05/21 11:26:31.981202975,1747819591,981020320,mA1/imu,0.27006750844419547,-0.9628412032716209,-0.0005866463622706496,0.00011836911446181613,0.0,0.0,0.0,0.0,0.0,0.0,0.0,0.0,0.0,-0.00187441950884693,0.00438021729740086,0.000454083622947879,0.0,0.0,0.0,0.0,0.0,0.0,0.0,0.0,0.0,0.0076658954209365615,0.4925108406341973,9.80908597568126,0.0,0.0,0.0,0.0,0.0,0.0,0.0,0.0,0.0
2025/05/21 11:26:32.32249128,1747819592,32016589,mA1/imu,0.2700572768663214,-0.9628440756837265,-0.0005556924450530573,0.000210566387955035,0.0,0.0,0.0,0.0,0.0,0.0,0.0,0.0,0.0,-0.0006067853211917434,0.003556463118693747,0.0003903001380954024,0.0,0.0,0.0,0.0,0.0,0.0,0.0,0.0,0.0,0.007978360223274163,-0.03777502916811932,9.810195722636319,0.0,0.0,0.0,0.0,0.0,0.0,0.0,0.0,0.0
2025/05/21 11:26:32.82084403,1747819592,81889884,mA1/imu,0.27004813031404357,-0.9628466332477845,-0.0005373068395043704,0.00028188411812883884,0.0,0.0,0.0,0.0,0.0,0.0,0.0,0.0,0.0,0.0005083803979518908,0.0025160563405061957,0.0003820944456020234,0.0,0.0,0.0,0.0,0.0,0.0,0.0,0.0,0.0,0.00825171819872729,0.12180784092102058,9.810650042897203,0.0,0.0,0.0,0.0,0.0,0.0,0.0,0.0,0.0
2025/05/21 11:26:32.133250663,1747819592,133047994,mA1/imu,0.27004081513492306,-0.9628486721374513,-0.0005357085465965993,0.00032517805318861066,0.0,0.0,0.0,0.0,0.0,0.0,0.0,0.0,0.0,0.0014092651410049658,0.0010518405630008194,0.0002160034098832164,0.0,0.0,0.0,0.0,0.0,0.0,0.0,0.0,0.0,0.009429648495344216,-0.23720815041633625,9.808543505075011,0.0,0.0,0.0,0.0,0.0,0.0,0.0,0.0,0.0
2025/05/21 11:26:32.183141849,1747819592,182908488,mA1/imu,0.2700359927232456,-0.962850008067027,-0.0005559866787699223,0.0003398207033922588,0.0,0.0,0.0,0.0,0.0,0.0,0.0,0.0,0.0,-0.000311439315875392,-0.00013588594142577683,0.0001991669686481856,0.0,0.0,0.0,0.0,0.0,0.0,0.0,0.0,0.0,0.007460173840838729,0.023683977920889294,9.808628315298046,0.0,0.0,0.0,0.0,0.0,0.0,0.0,0.0,0.0
2025/05/21 11:26:32.234576662,1747819592,234268552,mA1/imu,0.2700311739174589,-0.9628513424646478,-0.0005921194553953607,0.0003268353332980876,0.0,0.0,0.0,0.0,0.0,0.0,0.0,0.0,0.0,-0.0019479057984027757,-0.0014056030880674145,0.00022717347905784567,0.0,0.0,0.0,0.0,0.0,0.0,0.0,0.0,0.0,0.011083826951762861,-0.12280788001778,9.808788586000377,0.0,0.0,0.0,0.0,0.0,0.0,0.0,0.0,0.0
2025/05/21 11:26:32.284420598,1747819592,284159248,mA1/imu,0.2700241569434866,-0.962853306572943,-0.000621695578080294,0.0002796124424197218,0.0,0.0,0.0,0.0,0.0,0.0,0.0,0.0,0.0,-0.0012860670544008784,-0.002594116633689374,0.00033009271615960133,0.0,0.0,0.0,0.0,0.0,0.0,0.0,0.0,0.0,0.009772925794278648,-0.2865129030901464,9.809475163460574,0.0,0.0,0.0,0.0,0.0,0.0,0.0,0.0,0.0
2025/05/21 11:26:32.335731975,1747819592,335384687,mA1/imu,0.2700061752688956,-0.9628583408592297,-0.0006572407249595903,0.0002208825548694588,0.0,0.0,0.0,0.0,0.0,0.0,0.0,0.0,0.0,-0.0005679094537004623,-0.0023874955808511596,0.0011903561609516355,0.0,0.0,0.0,0.0,0.0,0.0,0.0,0.0,0.0,-0.007527903562099724,0.028130581622032403,9.810217019043764,0.0,0.0,0.0,0.0,0.0,0.0,0.0,0.0,0.0
2025/05/21 11:26:32.385392829,1747819592,385142169,mA1/imu,0.26997529504155743,-0.9628669816925657,-0.0007002970041624855,0.00015880043621725796,0.0,0.0,0.0,0.0,0.0,0.0,0.0,0.0,0.0,-0.00112358514490578,-0.003232506014254391,0.001278792739373181,0.0,0.0,0.0,0.0,0.0,0.0,0.0,0.0,0.0,0.011980032729560119,0.19921976285729534,9.810546620050648,0.0,0.0,0.0,0.0,0.0,0.0,0.0,0.0,0.0
2025/05/21 11:26:32.426783638,1747819592,426381714,mA1/imu,0.26994460860649583,-0.962875562278762,-0.0007445307210928161,7.432798256514823e-05,0.0,0.0,0.0,0.0,0.0,0.0,0.0,0.0,0.0,0.0004039111870884244,-0.004033272636901084,0.001267366488205946,0.0,0.0,0.0,0.0,0.0,0.0,0.0,0.0,0.0,0.010717684990114855,-0.5428211669672994,9.809178620266989,0.0,0.0,0.0,0.0,0.0,0.0,0.0,0.0,0.0
2025/05/21 11:26:32.476941490,1747819592,476637000,mA1/imu,0.2699141668954405,-0.9628840630910875,-0.0007891902098869208,-2.7076771007364083e-05,0.0,0.0,0.0,0.0,0.0,0.0,0.0,0.0,0.0,0.0009591187199685476,-0.004600314859990096,0.0012571087066650844,0.0,0.0,0.0,0.0,0.0,0.0,0.0,0.0,0.0,0.010710633005822926,-0.3813013750210832,9.809723306698993,0.0,0.0,0.0,0.0,0.0,0.0,0.0,0.0,0.0
2025/05/21 11:26:32.528011195,1747819592,527786098,mA1/imu,0.26988183767619905,-0.9628930659325071,-0.0008485595926508756,-0.0001312182611650418,0.0,0.0,0.0,0.0,0.0,0.0,0.0,0.0,0.0,-0.00039430951253050965,-0.004565119474931176,0.001465096860334292,0.0,0.0,0.0,0.0,0.0,0.0,0.0,0.0,0.0,-0.007566402500024236,0.02305300257081346,9.812003922137102,0.0,0.0,0.0,0.0,0.0,0.0,0.0,0.0,0.0
2025/05/21 11:26:32.578637990,1747819592,578469755,mA1/imu,0.2698449318078812,-0.9629033423404442,-0.0009009345994520756,-0.00023324675536791554,0.0,0.0,0.0,0.0,0.0,0.0,0.0,0.0,0.0,-0.0016653896034782877,-0.00449312450117248,0.0015275610255321489,0.0,0.0,0.0,0.0,0.0,0.0,0.0,0.0,0.0,0.009714418143171134,-0.07329971235553538,9.81178204314107,0.0,0.0,0.0,0.0,0.0,0.0,0.0,0.0,0.0
2025/05/21 11:26:32.629942406,1747819592,629649928,mA1/imu,0.26980825380622553,-0.9629135507528884,-0.0009418126522982192,-0.0003360705702546158,0.0,0.0,0.0,0.0,0.0,0.0,0.0,0.0,0.0,-0.0015462609326253986,-0.0042992223040432586,0.001513681346553587,0.0,0.0,0.0,0.0,0.0,0.0,0.0,0.0,0.0,0.009695201190514304,-0.09865922605397408,9.811383440838739,0.0,0.0,0.0,0.0,0.0,0.0,0.0,0.0,0.0
2025/05/21 11:26:32.679838239,1747819592,679590243,mA1/imu,0.269771928094312,-0.9629236621599497,-0.0009692493683718753,-0.00043384376241531485,0.0,0.0,0.0,0.0,0.0,0.0,0.0,0.0,0.0,-0.00022810251225740681,-0.0038629917034712887,0.0014988764065838784,0.0,0.0,0.0,0.0,0.0,0.0,0.0,0.0,0.0,0.008631731083253399,0.09044576972963587,9.809501299938661,0.0,0.0,0.0,0.0,0.0,0.0,0.0,0.0,0.0
2025/05/21 11:26:32.730914428,1747819592,730611210,mA1/imu,0.26973433577998246,-0.962934128206863,-0.0009936870105541908,-0.0005151911736934498,0.0,0.0,0.0,0.0,0.0,0.0,0.0,0.0,0.0,2.202068021541468e-07,-0.003007510281964378,0.0016318902746143527,0.0,0.0,0.0,0.0,0.0,0.0,0.0,0.0,0.0,0.004425140783911459,0.635945039474061,9.81148818068822,0.0,0.0,0.0,0.0,0.0,0.0,0.0,0.0,0.0
2025/05/21 11:26:32.780814519,1747819592,780539073,mA1/imu,0.2696947194725124,-0.9629451668569801,-0.001016999961102693,-0.0005741310867152911,0.0,0.0,0.0,0.0,0.0,0.0,0.0,0.0,0.0,0.00041987147414956373,-0.0022028727859690635,0.0016405697572545635,0.0,0.0,0.0,0.0,0.0,0.0,0.0,0.0,0.0,0.00875574820715643,0.020928895085978297,9.811381121350275,0.0,0.0,0.0,0.0,0.0,0.0,0.0,0.0,0.0
2025/05/21 11:26:32.832387843,1747819592,832143225,mA1/imu,0.26965538260044286,-0.9629561476601334,-0.001026806439638841,-0.0006148062295237265,0.0,0.0,0.0,0.0,0.0,0.0,0.0,0.0,0.0,0.0011128495291616734,-0.001316354841397057,0.0016269816345612464,0.0,0.0,0.0,0.0,0.0,0.0,0.0,0.0,0.0,0.00896131954909856,-0.5743230180685015,9.809627689045039,0.0,0.0,0.0,0.0,0.0,0.0,0.0,0.0,0.0
2025/05/21 11:26:32.882518899,1747819592,882151001,mA1/imu,0.2696163784550404,-0.9629670619722738,-0.0010206481768702503,-0.0006358479179962394,0.0,0.0,0.0,0.0,0.0,0.0,0.0,0.0,0.0,0.001397066499866003,-0.00037268084922591357,0.0016141509346877267,0.0,0.0,0.0,0.0,0.0,0.0,0.0,0.0,0.0,0.009351985774965727,-0.5686575112464104,9.80980665079796,0.0,0.0,0.0,0.0,0.0,0.0,0.0,0.0,0.0
2025/05/21 11:26:32.934017210,1747819592,933690955,mA1/imu,0.26957341113067157,-0.9629791177562832,-0.00099868716564745,-0.0006303972157380005,0.0,0.0,0.0,0.0,0.0,0.0,0.0,0.0,0.0,0.002165885034096623,0.0010694106618046489,0.001976562346571918,0.0,0.0,0.0,0.0,0.0,0.0,0.0,0.0,0.0,0.006266167369926572,-0.5247008572639005,9.809314827227501,0.0,0.0,0.0,0.0,0.0,0.0,0.0,0.0,0.0
2025/05/21 11:26:32.983269137,1747819592,983009024,mA1/imu,0.2695252183132659,-0.9629926570008642,-0.0009712076378481355,-0.0005966668470391592,0.0,0.0,0.0,0.0,0.0,0.0,0.0,0.0,0.0,0.0003923992238746897,0.0019107587053040968,0.002003789172324218,0.0,0.0,0.0,0.0,0.0,0.0,0.0,0.0,0.0,0.012475795713322715,0.5987435557031194,9.811386258218288,0.0,0.0,0.0,0.0,0.0,0.0,0.0,0.0,0.0
2025/05/21 11:26:33.35679593,1747819593,34530398,mA1/imu,0.2694755776335253,-0.9630066120615505,-0.0009398241415608864,-0.0005430611340854648,0.0,0.0,0.0,0.0,0.0,0.0,0.0,0.0,0.0,0.0011320150366767462,0.002745583508253644,0.002135466658008723,0.0,0.0,0.0,0.0,0.0,0.0,0.0,0.0,0.0,0.01129806716741143,-0.5316411206243338,9.810301044889219,0.0,0.0,0.0,0.0,0.0,0.0,0.0,0.0,0.0
2025/05/21 11:26:33.84550600,1747819593,84288017,mA1/imu,0.2694237623938981,-0.9630211862478744,-0.0008970071446491085,-0.0004758922521838374,0.0,0.0,0.0,0.0,0.0,0.0,0.0,0.0,0.0,0.0015107305079254025,0.003209533442384083,0.002157770355383464,0.0,0.0,0.0,0.0,0.0,0.0,0.0,0.0,0.0,0.01479416108020468,-0.4636154332068032,9.809476902237721,0.0,0.0,0.0,0.0,0.0,0.0,0.0,0.0,0.0
2025/05/21 11:26:33.135879737,1747819593,135408589,mA1/imu,0.2693718218211166,-0.9630357905999292,-0.0008529268192310109,-0.0004001851859820666,0.0,0.0,0.0,0.0,0.0,0.0,0.0,0.0,0.0,-0.0005400171401415421,0.0034801530079784544,0.0021614749472701265,0.0,0.0,0.0,0.0,0.0,0.0,0.0,0.0,0.0,0.016708624618702962,0.5278423662716586,9.810905082137058,0.0,0.0,0.0,0.0,0.0,0.0,0.0,0.0,0.0
2025/05/21 11:26:33.185971279,1747819593,185432182,mA1/imu,0.2693197974036647,-0.9630504087572418,-0.0008085889749829329,-0.0003210962910269304,0.0,0.0,0.0,0.0,0.0,0.0,0.0,0.0,0.0,0.0007691224336412937,0.0035189263131077553,0.0021649232797209075,0.0,0.0,0.0,0.0,0.0,0.0,0.0,0.0,0.0,0.01695010977880975,-0.007488765989057075,9.80968310818494,0.0,0.0,0.0,0.0,0.0,0.0,0.0,0.0,0.0
2025/05/21 11:26:33.226542702,1747819593,226142839,mA1/imu,0.2692632998346433,-0.9630662688451993,-0.0007618694470065186,-0.00023817995534466683,0.0,0.0,0.0,0.0,0.0,0.0,0.0,0.0,0.0,0.0008140707409325253,0.003708412504116246,0.0024327673596124103,0.0,0.0,0.0,0.0,0.0,0.0,0.0,0.0,0.0,0.018824516839336405,0.005147277904925232,9.810060349088833,0.0,0.0,0.0,0.0,0.0,0.0,0.0,0.0,0.0
2025/05/21 11:26:33.277482702,1747819593,277250169,mA1/imu,0.2692045729630771,-0.9630827364063336,-0.0007176102393136324,-0.0001605222734962284,0.0,0.0,0.0,0.0,0.0,0.0,0.0,0.0,0.0,0.0011176241068534588,0.0032900578867571034,0.0024476203459196507,0.0,0.0,0.0,0.0,0.0,0.0,0.0,0.0,0.0,0.01859359226621348,0.08967737256780436,9.809583930280624,0.0,0.0,0.0,0.0,0.0,0.0,0.0,0.0,0.0
2025/05/21 11:26:33.328672592,1747819593,328250178,mA1/imu,0.2691451374994129,-0.9630993764077038,-0.0006911822993650559,-9.159990964961764e-05,0.0,0.0,0.0,0.0,0.0,0.0,0.0,0.0,0.0,0.0011677220607601417,0.002666785984474574,0.002501739826621377,0.0,0.0,0.0,0.0,0.0,0.0,0.0,0.0,0.0,0.021077933313852007,-0.4022209856250219,9.809859857125897,0.0,0.0,0.0,0.0,0.0,0.0,0.0,0.0,0.0
2025/05/21 11:26:33.378850409,1747819593,378603779,mA1/imu,0.26908470053364386,-0.9631162839780666,-0.0006676967265629961,-4.0694971230161644e-05,0.0,0.0,0.0,0.0,0.0,0.0,0.0,0.0,0.0,0.00017944922576505754,0.0018943668757852913,0.002513296021727603,0.0,0.0,0.0,0.0,0.0,0.0,0.0,0.0,0.0,0.020764063224209747,-0.01256758569467799,9.809468822045616,0.0,0.0,0.0,0.0,0.0,0.0,0.0,0.0,0.0
2025/05/21 11:26:33.430277914,1747819593,430008334,mA1/imu,0.2690242084419771,-0.9631331941388416,-0.0006523287560424334,-9.342061063851044e-06,0.0,0.0,0.0,0.0,0.0,0.0,0.0,0.0,0.0,-5.137611965648154e-05,0.0010174846414466284,0.0025132235400170035,0.0,0.0,0.0,0.0,0.0,0.0,0.0,0.0,0.0,0.02103192668775061,0.11509135125438068,9.809064325778477,0.0,0.0,0.0,0.0,0.0,0.0,0.0,0.0,0.0
2025/05/21 11:26:33.480024175,1747819593,479823842,mA1/imu,0.26896371091032567,-0.9631500968945202,-0.0006427016496963647,1.113846518245381e-07,0.0,0.0,0.0,0.0,0.0,0.0,0.0,0.0,0.0,0.0013870441481081074,9.497058318797244e-05,0.002512550858031244,0.0,0.0,0.0,0.0,0.0,0.0,0.0,0.0,0.0,0.02038210786450211,-0.4582967558228669,9.808675346265295,0.0,0.0,0.0,0.0,0.0,0.0,0.0,0.0,0.0
2025/05/21 11:26:33.531326762,1747819593,531077151,mA1/imu,0.2689032434140469,-0.9631669741310509,-0.0006523413249773766,-8.685440756626267e-06,0.0,0.0,0.0,0.0,0.0,0.0,0.0,0.0,0.0,0.00030279579013762754,-0.0008106080144855086,0.0025102433359256693,0.0,0.0,0.0,0.0,0.0,0.0,0.0,0.0,0.0,0.02006819834018178,0.03326496903695545,9.810142573595812,0.0,0.0,0.0,0.0,0.0,0.0,0.0,0.0,0.0
2025/05/21 11:26:33.581237970,1747819593,581023122,mA1/imu,0.26884282242460383,-0.9631838250883966,-0.000674219231604523,-3.670538965142744e-05,0.0,0.0,0.0,0.0,0.0,0.0,0.0,0.0,0.0,-0.0009686989662793175,-0.0016475227572816896,0.002507354942216528,0.0,0.0,0.0,0.0,0.0,0.0,0.0,0.0,0.0,0.019940471545748663,-0.04201386677457654,9.810566830379903,0.0,0.0,0.0,0.0,0.0,0.0,0.0,0.0,0.0
2025/05/21 11:26:33.632425928,1747819593,632059854,mA1/imu,0.2687809200455784,-0.9632010782066812,-0.000702458337812091,-8.07045406276003e-05,0.0,0.0,0.0,0.0,0.0,0.0,0.0,0.0,0.0,-0.00256283584434013,-0.0021699588475367,0.002641295353399115,0.0,0.0,0.0,0.0,0.0,0.0,0.0,0.0,0.0,0.01789604678362873,0.48695691485133236,9.811173236678625,0.0,0.0,0.0,0.0,0.0,0.0,0.0,0.0,0.0
2025/05/21 11:26:33.682318870,1747819593,682091599,mA1/imu,0.2687168718690857,-0.963218921381695,-0.0007300070711196682,-0.00013912172194715825,0.0,0.0,0.0,0.0,0.0,0.0,0.0,0.0,0.0,-0.0011971435625773514,-0.002776820086756684,0.002660843788927382,0.0,0.0,0.0,0.0,0.0,0.0,0.0,0.0,0.0,0.01904494517219112,-0.03438323637662538,9.808800768520621,0.0,0.0,0.0,0.0,0.0,0.0,0.0,0.0,0.0
2025/05/21 11:26:33.733485954,1747819593,733101557,mA1/imu,0.26865263977049675,-0.9632367993193844,-0.0007640234616850407,-0.00020940258271807014,0.0,0.0,0.0,0.0,0.0,0.0,0.0,0.0,0.0,0.00019529432029167897,-0.003238059588092379,0.0026677654848538124,0.0,0.0,0.0,0.0,0.0,0.0,0.0,0.0,0.0,0.017868223283058367,0.06817572541501596,9.809681506598537,0.0,0.0,0.0,0.0,0.0,0.0,0.0,0.0,0.0
2025/05/21 11:26:33.783048977,1747819593,782825870,mA1/imu,0.26858822408331856,-0.9632547069435666,-0.0008087195996811863,-0.00028531989376262676,0.0,0.0,0.0,0.0,0.0,0.0,0.0,0.0,0.0,0.00023722929926548768,-0.003498752359745334,0.0026753933125186805,0.0,0.0,0.0,0.0,0.0,0.0,0.0,0.0,0.0,0.018013790003272835,0.07325570328458965,9.811213188867493,0.0,0.0,0.0,0.0,0.0,0.0,0.0,0.0,0.0
2025/05/21 11:26:33.834714180,1747819593,834422421,mA1/imu,0.26852206401262835,-0.9632730814006284,-0.0008616067663408636,-0.00035975146475283437,0.0,0.0,0.0,0.0,0.0,0.0,0.0,0.0,0.0,-0.0008265063528627425,-0.0033462938106665644,0.0028208794268778335,0.0,0.0,0.0,0.0,0.0,0.0,0.0,0.0,0.0,0.014859311563013872,-0.16202203703324322,9.81060117843643,0.0,0.0,0.0,0.0,0.0,0.0,0.0,0.0,0.0
2025/05/21 11:26:33.884015753,1747819593,883882327,mA1/imu,0.2684534827420753,-0.9632921266438916,-0.0009053851251794756,-0.0004320038358525283,0.0,0.0,0.0,0.0,0.0,0.0,0.0,0.0,0.0,-0.0006471222458803509,-0.0031852892348724292,0.002854465328704071,0.0,0.0,0.0,0.0,0.0,0.0,0.0,0.0,0.0,0.016686370476163042,-0.6119031894821979,9.810942308264464,0.0,0.0,0.0,0.0,0.0,0.0,0.0,0.0,0.0
2025/05/21 11:26:33.935146573,1747819593,934850643,mA1/imu,0.2683852396136093,-0.963311072518358,-0.0009447345772766821,-0.0004981943946691235,0.0,0.0,0.0,0.0,0.0,0.0,0.0,0.0,0.0,-0.0020391059006634204,-0.002798017535882553,0.002796841469230359,0.0,0.0,0.0,0.0,0.0,0.0,0.0,0.0,0.0,0.01567748912387059,0.5442516971100309,9.812925567840137,0.0,0.0,0.0,0.0,0.0,0.0,0.0,0.0,0.0
2025/05/21 11:26:33.986210454,1747819593,984764833,mA1/imu,0.268317890554144,-0.9633297692009379,-0.0009791350829247154,-0.0005537818445744622,0.0,0.0,0.0,0.0,0.0,0.0,0.0,0.0,0.0,-0.001168903788899976,-0.0022933251924559146,0.0027979356371842304,0.0,0.0,0.0,0.0,0.0,0.0,0.0,0.0,0.0,0.014706985922212807,0.21216315248780754,9.809897928605,0.0,0.0,0.0,0.0,0.0,0.0,0.0,0.0,0.0
2025/05/21 11:26:34.36223379,1747819594,35711909,mA1/imu,0.26824862469631694,-0.9633490052984562,-0.0010090731852889607,-0.0005925456235441686,0.0,0.0,0.0,0.0,0.0,0.0,0.0,0.0,0.0,-0.00042379931941582353,-0.00143299793687968,0.0029597871294705777,0.0,0.0,0.0,0.0,0.0,0.0,0.0,0.0,0.0,0.01178043049097216,0.012978190138891482,9.809617434539545,0.0,0.0,0.0,0.0,0.0,0.0,0.0,0.0,0.0
2025/05/21 11:26:34.76827242,1747819594,76697736,mA1/imu,0.2681766219067438,-0.9633690176135337,-0.0010293847903770194,-0.0006129698001058746,0.0,0.0,0.0,0.0,0.0,0.0,0.0,0.0,0.0,8.159967551888306e-05,-0.0007361164031621771,0.0029981093859964888,0.0,0.0,0.0,0.0,0.0,0.0,0.0,0.0,0.0,0.01573250201335171,0.034255176892088415,9.81130795951245,0.0,0.0,0.0,0.0,0.0,0.0,0.0,0.0,0.0
