time,header_stamp_secs,header_stamp_nsecs,header_frame_id,orientation_x,orientation_y,orientation_z,orientation_w,orientation_covariance_0,orientation_covariance_1,orientation_covariance_2,orientation_covariance_3,orientation_covariance_4,orientation_covariance_5,orientation_covariance_6,orientation_covariance_7,orientation_covariance_8,angular_velocity_x,angular_velocity_y,angular_velocity_z,angular_velocity_covariance_0,angular_velocity_covariance_1,angular_velocity_covariance_2,angular_velocity_covariance_3,angular_velocity_covariance_4,angular_velocity_covariance_5,angular_velocity_covariance_6,angular_velocity_covariance_7,angular_velocity_covariance_8,linear_acceleration_x,linear_acceleration_y,linear_acceleration_z,linear_acceleration_covariance_0,linear_acceleration_covariance_1,linear_acceleration_covariance_2,linear_acceleration_covariance_3,linear_acceleration_covariance_4,linear_acceleration_covariance_5,linear_acceleration_covariance_6,linear_acceleration_covariance_7,linear_acceleration_covariance_8
2025/05/06 15:27:58.960827430,1746538078,957384485,mA1/imu,0.745022602682469,-0.667038619515514,-0.0008325259260958495,0.00032934428747085487,0.0,0.0,0.0,0.0,0.0,0.0,0.0,0.0,0.0,-0.0007315486997719644,-2.0806466261917026e-06,-1.505900890023985e-07,0.0,0.0,0.0,0.0,0.0,0.0,0.0,0.0,0.0,0.008320310037065924,-0.06666029062762636,9.8106494469373,0.0,0.0,0.0,0.0,0.0,0.0,0.0,0.0,0.0
2025/05/06 15:27:59.34039795,1746538079,32177171,mA1/imu,0.7450226063071802,-0.6670386204156892,-0.0008298361361190312,0.0003260938170296067,0.0,0.0,0.0,0.0,0.0,0.0,0.0,0.0,0.0,0.0008572979251126662,-1.4661312333458644e-05,-1.616430215741282e-07,0.0,0.0,0.0,0.0,0.0,0.0,0.0,0.0,0.0,0.007907177467483114,-0.585651590250593,9.809791732542669,0.0,0.0,0.0,0.0,0.0,0.0,0.0,0.0,0.0
2025/05/06 15:27:59.59674306,1746538079,57358756,mA1/imu,0.7450226097620093,-0.6670386206700265,-0.0008276199153231163,0.00032330064812435946,0.0,0.0,0.0,0.0,0.0,0.0,0.0,0.0,0.0,0.0007267568504176258,-1.0209884957325317e-05,-1.3825858099634977e-07,0.0,0.0,0.0,0.0,0.0,0.0,0.0,0.0,0.0,0.007480625179908825,0.03571907841167386,9.80944606701203,0.0,0.0,0.0,0.0,0.0,0.0,0.0,0.0,0.0
2025/05/06 15:27:59.118347133,1746538079,112369570,mA1/imu,0.7450226108189019,-0.667038614099206,-0.0008307352244057581,0.00032641719381906205,0.0,0.0,0.0,0.0,0.0,0.0,0.0,0.0,0.0,-0.0008662582902356771,-4.130225484898987e-06,-1.5212390400535408e-07,0.0,0.0,0.0,0.0,0.0,0.0,0.0,0.0,0.0,0.007893333287001024,0.5542435513720858,9.810049504223512,0.0,0.0,0.0,0.0,0.0,0.0,0.0,0.0,0.0
2025/05/06 15:27:59.158324497,1746538079,154090131,mA1/imu,0.7450226123441794,-0.6670386078475329,-0.0008334053729372569,0.0003288953693229482,0.0,0.0,0.0,0.0,0.0,0.0,0.0,0.0,0.0,-0.0007231433124509248,-1.368993737563516e-05,-1.9833655581041138e-07,0.0,0.0,0.0,0.0,0.0,0.0,0.0,0.0,0.0,0.008303871009612843,-0.06622295299092038,9.810634196926607,0.0,0.0,0.0,0.0,0.0,0.0,0.0,0.0,0.0
2025/05/06 15:27:59.213623748,1746538079,206775421,mA1/imu,0.7450226165313856,-0.6670386081584043,-0.0008307967629309625,0.0003253606699025008,0.0,0.0,0.0,0.0,0.0,0.0,0.0,0.0,0.0,0.0008626652033858711,-2.364246605299675e-05,-2.0206105839853337e-07,0.0,0.0,0.0,0.0,0.0,0.0,0.0,0.0,0.0,0.007899276043271994,-0.5854664684000859,9.809795719240583,0.0,0.0,0.0,0.0,0.0,0.0,0.0,0.0,0.0
2025/05/06 15:27:59.264932403,1746538079,262129864,mA1/imu,0.7450226204735598,-0.6670386078936634,-0.0008286378319558405,0.00032236832465797825,0.0,0.0,0.0,0.0,0.0,0.0,0.0,0.0,0.0,0.0007306797652923763,-1.5829753603456213e-05,-1.7124543439322203e-07,0.0,0.0,0.0,0.0,0.0,0.0,0.0,0.0,0.0,0.007465434415421118,0.03578789248481491,9.809431658260639,0.0,0.0,0.0,0.0,0.0,0.0,0.0,0.0,0.0
2025/05/06 15:27:59.321990595,1746538079,313373267,mA1/imu,0.7450226219679628,-0.6670386008839041,-0.0008317615606628624,0.00032536061814128833,0.0,0.0,0.0,0.0,0.0,0.0,0.0,0.0,0.0,-0.0008631654030431273,-6.362164093385069e-06,-1.7816845772780192e-07,0.0,0.0,0.0,0.0,0.0,0.0,0.0,0.0,0.0,0.007882378052800482,0.5542700710658475,9.810028600311375,0.0,0.0,0.0,0.0,0.0,0.0,0.0,0.0,0.0
2025/05/06 15:27:59.371434673,1746538079,364441524,mA1/imu,0.7450226238627696,-0.6670385942056876,-0.0008344405992890605,0.0003278438965057763,0.0,0.0,0.0,0.0,0.0,0.0,0.0,0.0,0.0,-0.0007280332061489562,-1.2368557820529772e-05,-2.1873268564076242e-07,0.0,0.0,0.0,0.0,0.0,0.0,0.0,0.0,0.0,0.0082920750089669,-0.06673768430625962,9.810663458626928,0.0,0.0,0.0,0.0,0.0,0.0,0.0,0.0,0.0
2025/05/06 15:27:59.439002253,1746538079,408425447,mA1/imu,0.7450226284083757,-0.6670385940969134,-0.0008318070616830247,0.0003244097723767095,0.0,0.0,0.0,0.0,0.0,0.0,0.0,0.0,0.0,0.0008616395787376465,-1.8766230451792285e-05,-2.1939583105595032e-07,0.0,0.0,0.0,0.0,0.0,0.0,0.0,0.0,0.0,0.007883105807459634,-0.5856846662393169,9.809815755734904,0.0,0.0,0.0,0.0,0.0,0.0,0.0,0.0,0.0
2025/05/06 15:27:59.462879023,1746538079,461039773,mA1/imu,0.7450226327448468,-0.6670385934881408,-0.0008295273683259524,0.0003215270519564446,0.0,0.0,0.0,0.0,0.0,0.0,0.0,0.0,0.0,0.000731124915247372,-8.332098375963396e-06,-1.8605855509563194e-07,0.0,0.0,0.0,0.0,0.0,0.0,0.0,0.0,0.0,0.00746190657509426,0.03569406818380929,9.809436646150392,0.0,0.0,0.0,0.0,0.0,0.0,0.0,0.0,0.0
2025/05/06 15:27:59.513967747,1746538079,507172186,mA1/imu,0.7450226346549705,-0.6670385861770467,-0.0008324672731815619,0.00032465509711195577,0.0,0.0,0.0,0.0,0.0,0.0,0.0,0.0,0.0,-0.0008621076459493552,3.7585013143096308e-06,-1.8987325351216222e-07,0.0,0.0,0.0,0.0,0.0,0.0,0.0,0.0,0.0,0.007875346154640257,0.5542315759529874,9.810031179702355,0.0,0.0,0.0,0.0,0.0,0.0,0.0,0.0,0.0
2025/05/06 15:27:59.584037277,1746538079,562715272,mA1/imu,0.7450226369680468,-0.6670385792411112,-0.0008349124952518889,0.0003273076576747997,0.0,0.0,0.0,0.0,0.0,0.0,0.0,0.0,0.0,-0.0007267511353111148,-7.593165153468278e-08,-2.278048714821255e-07,0.0,0.0,0.0,0.0,0.0,0.0,0.0,0.0,0.0,0.008289183171488752,-0.06674925809348858,9.810661118012625,0.0,0.0,0.0,0.0,0.0,0.0,0.0,0.0,0.0
2025/05/06 15:27:59.619370854,1746538079,609458496,mA1/imu,0.7450226418945094,-0.6670385788659606,-0.0008320562725436312,0.0003241162822576072,0.0,0.0,0.0,0.0,0.0,0.0,0.0,0.0,0.0,0.0008604036859273242,-5.276870863523873e-06,-2.241308205843316e-07,0.0,0.0,0.0,0.0,0.0,0.0,0.0,0.0,0.0,0.007884468799614047,-0.5858564512224644,9.80981334079519,0.0,0.0,0.0,0.0,0.0,0.0,0.0,0.0,0.0
2025/05/06 15:27:59.669841871,1746538079,654653762,mA1/imu,0.7450226465388963,-0.66703857811018,-0.0008295271987504197,0.0003214678129089198,0.0,0.0,0.0,0.0,0.0,0.0,0.0,0.0,0.0,0.0007312301242392602,5.517700368555615e-06,-1.859438506224135e-07,0.0,0.0,0.0,0.0,0.0,0.0,0.0,0.0,0.0,0.007463871452269809,0.03562295240978126,9.809438583068188,0.0,0.0,0.0,0.0,0.0,0.0,0.0,0.0,0.0
2025/05/06 15:27:59.714738666,1746538079,709347578,mA1/imu,0.7450226487191182,-0.6670385707165826,-0.000832206055503041,0.0003248153463586657,0.0,0.0,0.0,0.0,0.0,0.0,0.0,0.0,0.0,-0.0008615314349483904,1.7143232150432533e-05,-1.8856668156172295e-07,0.0,0.0,0.0,0.0,0.0,0.0,0.0,0.0,0.0,0.007879828127865621,0.5541976112895074,9.810041688303182,0.0,0.0,0.0,0.0,0.0,0.0,0.0,0.0,0.0
2025/05/06 15:27:59.780381743,1746538079,763175259,mA1/imu,0.7450226512895768,-0.6670385637008283,-0.0008344076826429395,0.0003276663013813674,0.0,0.0,0.0,0.0,0.0,0.0,0.0,0.0,0.0,-0.0007261979131403087,1.1829628641054215e-05,-2.2812154820667605e-07,0.0,0.0,0.0,0.0,0.0,0.0,0.0,0.0,0.0,0.008303783255356155,-0.0667663470106913,9.810661772038221,0.0,0.0,0.0,0.0,0.0,0.0,0.0,0.0,0.0
2025/05/06 15:27:59.816076572,1746538079,805936651,mA1/imu,0.7450226565130751,-0.6670385632483358,-0.0008312999098004429,0.00032459552733690196,0.0,0.0,0.0,0.0,0.0,0.0,0.0,0.0,0.0,0.0008633496165000675,4.652113304046073e-06,-2.3026619974894927e-07,0.0,0.0,0.0,0.0,0.0,0.0,0.0,0.0,0.0,0.007892895974500302,-0.585696499643281,9.80980788516038,0.0,0.0,0.0,0.0,0.0,0.0,0.0,0.0,0.0
2025/05/06 15:27:59.873357347,1746538079,865582623,mA1/imu,0.7450226615365679,-0.6670385622578521,-0.0008285753474824228,0.0003220571991191173,0.0,0.0,0.0,0.0,0.0,0.0,0.0,0.0,0.0,0.0007326335624691866,1.323298217556783e-05,-1.9980290912172387e-07,0.0,0.0,0.0,0.0,0.0,0.0,0.0,0.0,0.0,0.007477598305733969,0.03568929141744659,9.809447341538627,0.0,0.0,0.0,0.0,0.0,0.0,0.0,0.0,0.0
2025/05/06 15:27:59.937967929,1746538079,913318738,mA1/imu,0.7450226641419729,-0.6670385545056619,-0.000831128424263906,0.00032548938013847033,0.0,0.0,0.0,0.0,0.0,0.0,0.0,0.0,0.0,-0.0008609779874239537,2.2015280544066244e-05,-2.0869325440746964e-07,0.0,0.0,0.0,0.0,0.0,0.0,0.0,0.0,0.0,0.007890218674197374,0.5542271944556282,9.810041710498043,0.0,0.0,0.0,0.0,0.0,0.0,0.0,0.0,0.0
2025/05/06 15:27:59.960541822,1746538079,955937325,mA1/imu,0.7450226671651201,-0.667038547028926,-0.0008332776264428547,0.00032838408490197714,0.0,0.0,0.0,0.0,0.0,0.0,0.0,0.0,0.0,-0.0007262942704612165,1.3156042483750656e-05,-2.5434988665536163e-07,0.0,0.0,0.0,0.0,0.0,0.0,0.0,0.0,0.0,0.00832066145327352,-0.06675573133326483,9.810653126454563,0.0,0.0,0.0,0.0,0.0,0.0,0.0,0.0,0.0
2025/05/06 15:28:00.26505101,1746538080,12063490,mA1/imu,0.7450226728640341,-0.6670385460196012,-0.0008301910583345365,0.00032530815131535067,0.0,0.0,0.0,0.0,0.0,0.0,0.0,0.0,0.0,0.00086275905435715,2.507601601333956e-06,-2.6187074220891945e-07,0.0,0.0,0.0,0.0,0.0,0.0,0.0,0.0,0.0,0.007908203029608289,-0.5856925081844985,9.809800553341354,0.0,0.0,0.0,0.0,0.0,0.0,0.0,0.0,0.0
2025/05/06 15:28:00.82895556,1746538080,58732151,mA1/imu,0.7450226783724082,-0.6670385444000096,-0.0008275570850675517,0.0003227147201932345,0.0,0.0,0.0,0.0,0.0,0.0,0.0,0.0,0.0,0.0007317009404332673,7.816976329036886e-06,-2.3607645978591423e-07,0.0,0.0,0.0,0.0,0.0,0.0,0.0,0.0,0.0,0.007486055426400237,0.03569233138191725,9.80944491858614,0.0,0.0,0.0,0.0,0.0,0.0,0.0,0.0,0.0
2025/05/06 15:28:00.116398009,1746538080,111805418,mA1/imu,0.7450226814603503,-0.6670385359732445,-0.0008302570958891465,0.00032605130681686125,0.0,0.0,0.0,0.0,0.0,0.0,0.0,0.0,0.0,-0.0008621105075003506,1.4230311308670305e-05,-2.480600149159069e-07,0.0,0.0,0.0,0.0,0.0,0.0,0.0,0.0,0.0,0.007892079665912256,0.554232571490237,9.810039845032673,0.0,0.0,0.0,0.0,0.0,0.0,0.0,0.0,0.0
2025/05/06 15:28:00.160307808,1746538080,154296034,mA1/imu,0.7450226849546929,-0.6670385277710726,-0.0008326084889583494,0.0003288388728157402,0.0,0.0,0.0,0.0,0.0,0.0,0.0,0.0,0.0,-0.000728961837577687,3.608185011348341e-06,-2.9501180332900684e-07,0.0,0.0,0.0,0.0,0.0,0.0,0.0,0.0,0.0,0.008318203010300958,-0.06684320366758036,9.810647620217454,0.0,0.0,0.0,0.0,0.0,0.0,0.0,0.0,0.0
2025/05/06 15:28:00.213540729,1746538080,210729902,mA1/imu,0.7450226910896689,-0.6670385260767333,-0.0008297367285877008,0.00032561917634823953,0.0,0.0,0.0,0.0,0.0,0.0,0.0,0.0,0.0,0.000861824352142611,-8.149867210077838e-06,-3.0059698484430423e-07,0.0,0.0,0.0,0.0,0.0,0.0,0.0,0.0,0.0,0.007907923841370554,-0.5856427307004607,9.80979767468043,0.0,0.0,0.0,0.0,0.0,0.0,0.0,0.0,0.0
2025/05/06 15:28:00.318670169,1746538080,258023617,mA1/imu,0.7450226969918365,-0.6670385238131847,-0.0008273310977602393,0.0003228612582409671,0.0,0.0,0.0,0.0,0.0,0.0,0.0,0.0,0.0,0.0007303116604418983,-3.437042170926064e-06,-2.733229878204469e-07,0.0,0.0,0.0,0.0,0.0,0.0,0.0,0.0,0.0,0.007482730158133532,0.03571554427994875,9.809444565258344,0.0,0.0,0.0,0.0,0.0,0.0,0.0,0.0,0.0
2025/05/06 15:28:00.318709434,1746538080,308161957,mA1/imu,0.7450227004373164,-0.6670385147688255,-0.0008302701763778534,0.0003260360755230836,0.0,0.0,0.0,0.0,0.0,0.0,0.0,0.0,0.0,-0.000863754910794757,2.66871284377926e-06,-2.8412391911346716e-07,0.0,0.0,0.0,0.0,0.0,0.0,0.0,0.0,0.0,0.007894094604371838,0.5542425810203117,9.810038740987046,0.0,0.0,0.0,0.0,0.0,0.0,0.0,0.0,0.0
2025/05/06 15:28:00.374500532,1746538080,361089608,mA1/imu,0.7450227042743963,-0.6670385059913029,-0.0008328444343603102,0.00032864982036569663,0.0,0.0,0.0,0.0,0.0,0.0,0.0,0.0,0.0,-0.0007293490540013227,-7.462091565666743e-06,-3.297109363764362e-07,0.0,0.0,0.0,0.0,0.0,0.0,0.0,0.0,0.0,0.008314936878657097,-0.06675238372603604,9.81064120213597,0.0,0.0,0.0,0.0,0.0,0.0,0.0,0.0,0.0
2025/05/06 15:28:00.439411619,1746538080,434422026,mA1/imu,0.7450227107762539,-0.6670385037851753,-0.0008301384122316346,0.0003252166254440411,0.0,0.0,0.0,0.0,0.0,0.0,0.0,0.0,0.0,0.0008649551739415629,-1.8331525226964376e-05,-3.3308217614799065e-07,0.0,0.0,0.0,0.0,0.0,0.0,0.0,0.0,0.0,0.007900669797388508,-0.5853168064065271,9.809792905092868,0.0,0.0,0.0,0.0,0.0,0.0,0.0,0.0,0.0
2025/05/06 15:28:00.467906558,1746538080,459451094,mA1/imu,0.7450227169634877,-0.667038501078326,-0.0008278957861137263,0.00032229813937296916,0.0,0.0,0.0,0.0,0.0,0.0,0.0,0.0,0.0,0.0007302174999535029,-1.1955517405678083e-05,-2.9874794896145494e-07,0.0,0.0,0.0,0.0,0.0,0.0,0.0,0.0,0.0,0.007475037018388107,0.03580347532602739,9.809438196187742,0.0,0.0,0.0,0.0,0.0,0.0,0.0,0.0,0.0
2025/05/06 15:28:00.527335627,1746538080,509603298,mA1/imu,0.7450227206091148,-0.6670384916836097,-0.0008309798546405124,0.000325363072758805,0.0,0.0,0.0,0.0,0.0,0.0,0.0,0.0,0.0,-0.0008646806115000018,-3.7951863617887012e-06,-3.0285356592672086e-07,0.0,0.0,0.0,0.0,0.0,0.0,0.0,0.0,0.0,0.007890999448464409,0.5542767449168149,9.81002719695145,0.0,0.0,0.0,0.0,0.0,0.0,0.0,0.0,0.0
2025/05/06 15:28:00.558354013,1746538080,555274450,mA1/imu,0.7450227245881643,-0.6670384826406955,-0.0008336647909987547,0.0003279125541754922,0.0,0.0,0.0,0.0,0.0,0.0,0.0,0.0,0.0,-0.0007305013090142094,-1.1416261627066496e-05,-3.424549302402165e-07,0.0,0.0,0.0,0.0,0.0,0.0,0.0,0.0,0.0,0.00830036862958479,-0.06673491462949122,9.810655020630213,0.0,0.0,0.0,0.0,0.0,0.0,0.0,0.0,0.0
2025/05/06 15:28:00.624894943,1746538080,612277149,mA1/imu,0.7450227311700522,-0.667038480163624,-0.0008310842878314042,0.00032453016040368226,0.0,0.0,0.0,0.0,0.0,0.0,0.0,0.0,0.0,0.0008583813356337295,-1.968509986471234e-05,-3.4318131409402773e-07,0.0,0.0,0.0,0.0,0.0,0.0,0.0,0.0,0.0,0.007890707631734212,-0.585684048783949,9.809815502079516,0.0,0.0,0.0,0.0,0.0,0.0,0.0,0.0,0.0
2025/05/06 15:28:00.668683398,1746538080,666320186,mA1/imu,0.7450227375030808,-0.6670384771905955,-0.0008288962472181425,0.00032168568298934156,0.0,0.0,0.0,0.0,0.0,0.0,0.0,0.0,0.0,0.000727331729381187,-1.0521741682264209e-05,-3.094195983918891e-07,0.0,0.0,0.0,0.0,0.0,0.0,0.0,0.0,0.0,0.007468877186531202,0.03569588096098587,9.809444109309373,0.0,0.0,0.0,0.0,0.0,0.0,0.0,0.0,0.0
2025/05/06 15:28:00.715777661,1746538080,708182355,mA1/imu,0.7450227413753022,-0.6670384675215238,-0.0008319629026043087,0.00032483518159472926,0.0,0.0,0.0,0.0,0.0,0.0,0.0,0.0,0.0,-0.0008662815105078473,5.2544827624504355e-08,-3.1345380776957706e-07,0.0,0.0,0.0,0.0,0.0,0.0,0.0,0.0,0.0,0.00787580825085393,0.5542322466123373,9.810037464786022,0.0,0.0,0.0,0.0,0.0,0.0,0.0,0.0,0.0
2025/05/06 15:28:00.765225066,1746538080,761851152,mA1/imu,0.7450227456076487,-0.66703845820805,-0.0008345858009311792,0.0003275136778923582,0.0,0.0,0.0,0.0,0.0,0.0,0.0,0.0,0.0,-0.0007328188465019771,-5.181362586319031e-06,-3.5067677176032367e-07,0.0,0.0,0.0,0.0,0.0,0.0,0.0,0.0,0.0,0.008291117930477826,-0.06685694534908221,9.810656138827303,0.0,0.0,0.0,0.0,0.0,0.0,0.0,0.0,0.0
2025/05/06 15:28:00.816742284,1746538080,810884110,mA1/imu,0.745022620730529,-0.6670386023824368,-0.0008321760205036513,0.0003240595171478805,0.0,0.0,0.0,0.0,0.0,0.0,0.0,0.0,0.0,0.0008537759526805159,-3.910169905523286e-05,2.588804583544159e-05,0.0,0.0,0.0,0.0,0.0,0.0,0.0,0.0,0.0,0.008112331115986486,-0.5868693518127746,9.809769932636597,0.0,0.0,0.0,0.0,0.0,0.0,0.0,0.0,0.0
2025/05/06 15:28:00.864871835,1746538080,860540046,mA1/imu,0.745021849369019,-0.6670394671248159,-0.0008309897384360901,0.0003204944038673878,0.0,0.0,0.0,0.0,0.0,0.0,0.0,0.0,0.0,0.0007225049292729171,-9.631606856383338e-05,4.8060354145092474e-05,0.0,0.0,0.0,0.0,0.0,0.0,0.0,0.0,0.0,0.01042438857545532,0.035853673673742384,9.809443019961375,0.0,0.0,0.0,0.0,0.0,0.0,0.0,0.0,0.0
2025/05/06 15:28:00.947940302,1746538080,912778172,mA1/imu,0.745021057357784,-0.6670403440922728,-0.0008367722147559988,0.0003213394039475083,0.0,0.0,0.0,0.0,0.0,0.0,0.0,0.0,0.0,-0.0008689227841411478,-0.00017875356236657117,4.668146889303885e-05,0.0,0.0,0.0,0.0,0.0,0.0,0.0,0.0,0.0,0.010758871643061272,0.5544217346888274,9.81003724925662,0.0,0.0,0.0,0.0,0.0,0.0,0.0,0.0,0.0
2025/05/06 15:28:01.26418882,1746538080,963717053,mA1/imu,0.745020286778334,-0.6670411966304738,-0.0008436398223074819,0.0003202473496325859,0.0,0.0,0.0,0.0,0.0,0.0,0.0,0.0,0.0,-0.0007324647477371384,-0.00026226609666067576,4.528563195190363e-05,0.0,0.0,0.0,0.0,0.0,0.0,0.0,0.0,0.0,0.010992076801650763,-0.06683233003765277,9.810663324796165,0.0,0.0,0.0,0.0,0.0,0.0,0.0,0.0,0.0
2025/05/06 15:28:01.55950774,1746538081,11200244,mA1/imu,0.7450195397341153,-0.6670420313065318,-0.0008464447616803125,0.0003121155046248797,0.0,0.0,0.0,0.0,0.0,0.0,0.0,0.0,0.0,0.000856888549282542,-0.00032857620300040454,4.3956606737492995e-05,0.0,0.0,0.0,0.0,0.0,0.0,0.0,0.0,0.0,0.01049504891059059,-0.585917394790077,9.809810200168812,0.0,0.0,0.0,0.0,0.0,0.0,0.0,0.0,0.0
2025/05/06 15:28:01.121370263,1746538081,64006122,mA1/imu,0.7450188131822633,-0.6670428416144091,-0.0008504208808061108,0.00030371004524278923,0.0,0.0,0.0,0.0,0.0,0.0,0.0,0.0,0.0,0.00072992368682745,-0.00035518840145475013,4.2700268785083045e-05,0.0,0.0,0.0,0.0,0.0,0.0,0.0,0.0,0.0,0.009863394772518744,0.035962231946209025,9.809443214153358,0.0,0.0,0.0,0.0,0.0,0.0,0.0,0.0,0.0
2025/05/06 15:28:01.171361432,1746538081,155236016,mA1/imu,0.7450174168038302,-0.6670443799443981,-0.0008691071267219343,0.0002974833504941335,0.0,0.0,0.0,0.0,0.0,0.0,0.0,0.0,0.0,-0.0007234256087659078,-0.00035316324728954505,4.0242210000244304e-05,0.0,0.0,0.0,0.0,0.0,0.0,0.0,0.0,0.0,0.01041118906657101,-0.06697767695041812,9.810652898727156,0.0,0.0,0.0,0.0,0.0,0.0,0.0,0.0,0.0
2025/05/06 15:28:01.209118982,1746538081,206560306,mA1/imu,0.745016750861327,-0.6670451233530365,-0.0008724006523376199,0.0002885551339566684,0.0,0.0,0.0,0.0,0.0,0.0,0.0,0.0,0.0,0.000867329121992904,-0.00032759561428087624,3.9115899549545544e-05,0.0,0.0,0.0,0.0,0.0,0.0,0.0,0.0,0.0,0.009943052955624612,-0.5859197162334444,9.809798999689995,0.0,0.0,0.0,0.0,0.0,0.0,0.0,0.0,0.0
2025/05/06 15:28:01.262501226,1746538081,258440619,mA1/imu,0.7450161039273745,-0.6670458455273207,-0.000875188484256665,0.0002808891854857791,0.0,0.0,0.0,0.0,0.0,0.0,0.0,0.0,0.0,0.0007390226147219699,-0.0002645219420184959,3.80691247544488e-05,0.0,0.0,0.0,0.0,0.0,0.0,0.0,0.0,0.0,0.009362876346344366,0.036077056195741315,9.809442210021246,0.0,0.0,0.0,0.0,0.0,0.0,0.0,0.0,0.0
2025/05/06 15:28:01.309502818,1746538081,308357509,mA1/imu,0.7450154736925085,-0.6670465407041882,-0.0008820196142259291,0.00028024043790837635,0.0,0.0,0.0,0.0,0.0,0.0,0.0,0.0,0.0,-0.0008523661165418256,-0.00018480897751783684,3.703391484990182e-05,0.0,0.0,0.0,0.0,0.0,0.0,0.0,0.0,0.0,0.009737029046223498,0.5546156853587778,9.810038545370428,0.0,0.0,0.0,0.0,0.0,0.0,0.0,0.0,0.0
2025/05/06 15:28:01.360503143,1746538081,359404250,mA1/imu,0.7450148622073895,-0.6670472170710875,-0.000886955063663013,0.00028035430617257,0.0,0.0,0.0,0.0,0.0,0.0,0.0,0.0,0.0,-0.0007173587778965833,-0.00010977120393227644,3.6013931847511794e-05,0.0,0.0,0.0,0.0,0.0,0.0,0.0,0.0,0.0,0.010082052612082509,-0.06701802693999102,9.810637054227096,0.0,0.0,0.0,0.0,0.0,0.0,0.0,0.0,0.0
2025/05/06 15:28:01.415216406,1746538081,409389504,mA1/imu,0.7450142710064698,-0.6670478819401919,-0.0008849205532692499,0.0002758829763127932,0.0,0.0,0.0,0.0,0.0,0.0,0.0,0.0,0.0,0.0008776988773073681,-2.919875396851966e-05,3.506128184832357e-05,0.0,0.0,0.0,0.0,0.0,0.0,0.0,0.0,0.0,0.009644728493759653,-0.5855325439215355,9.809792912031684,0.0,0.0,0.0,0.0,0.0,0.0,0.0,0.0,0.0
2025/05/06 15:28:01.468118273,1746538081,464264523,mA1/imu,0.7450136970426083,-0.6670485280646145,-0.000881789053774547,0.0002736307740337794,0.0,0.0,0.0,0.0,0.0,0.0,0.0,0.0,0.0,0.000736936154194192,6.848690442557131e-05,3.4175559378777386e-05,0.0,0.0,0.0,0.0,0.0,0.0,0.0,0.0,0.0,0.009217566862882134,0.035776329768755305,9.809415819609596,0.0,0.0,0.0,0.0,0.0,0.0,0.0,0.0,0.0
2025/05/06 15:28:01.534419619,1746538081,508978221,mA1/imu,0.7450131379977075,-0.6670491497286706,-0.0008822462277290491,0.0002787447936857866,0.0,0.0,0.0,0.0,0.0,0.0,0.0,0.0,0.0,-0.0008540950579610069,0.00016330477562458314,3.326772957388131e-05,0.0,0.0,0.0,0.0,0.0,0.0,0.0,0.0,0.0,0.009625765216629266,0.5544811117457604,9.810037014631959,0.0,0.0,0.0,0.0,0.0,0.0,0.0,0.0,0.0
2025/05/06 15:28:01.579021962,1746538081,563221473,mA1/imu,0.7450125960797721,-0.6670497544351954,-0.0008807714818331372,0.00028466123823819444,0.0,0.0,0.0,0.0,0.0,0.0,0.0,0.0,0.0,-0.0007197749965446249,0.00023193579676212306,3.232652762777403e-05,0.0,0.0,0.0,0.0,0.0,0.0,0.0,0.0,0.0,0.010102485509864475,-0.06709985554726912,9.81067221208451,0.0,0.0,0.0,0.0,0.0,0.0,0.0,0.0,0.0
2025/05/06 15:28:01.612974109,1746538081,608691865,mA1/imu,0.7450120718673113,-0.6670503501615936,-0.0008725482543607728,0.00028597345144415373,0.0,0.0,0.0,0.0,0.0,0.0,0.0,0.0,0.0,0.0008683844931827157,0.00034237984516008945,3.184363279327418e-05,0.0,0.0,0.0,0.0,0.0,0.0,0.0,0.0,0.0,0.0016032787056611281,-0.5860111858372554,9.80977597565162,0.0,0.0,0.0,0.0,0.0,0.0,0.0,0.0,0.0
2025/05/06 15:28:01.749967716,1746538081,662610890,mA1/imu,0.7450115412505943,-0.6670509565670462,-0.0008598656185211116,0.0002921943201550898,0.0,0.0,0.0,0.0,0.0,0.0,0.0,0.0,0.0,0.0007367765571748089,0.0006666878184291397,3.309064130505249e-05,0.0,0.0,0.0,0.0,0.0,0.0,0.0,0.0,0.0,0.0015979379973796153,0.035959683587512566,9.809410601517559,0.0,0.0,0.0,0.0,0.0,0.0,0.0,0.0,0.0
2025/05/06 15:28:01.793405656,1746538081,706005534,mA1/imu,0.7450109944580184,-0.6670515759078955,-0.0008471052244194278,0.00030923810570398575,0.0,0.0,0.0,0.0,0.0,0.0,0.0,0.0,0.0,-0.000858634751113356,0.0009449152302134957,3.4260762597626e-05,0.0,0.0,0.0,0.0,0.0,0.0,0.0,0.0,0.0,0.00223596878228151,0.5543894997930402,9.810064472006804,0.0,0.0,0.0,0.0,0.0,0.0,0.0,0.0,0.0
2025/05/06 15:28:01.839028697,1746538081,758727653,mA1/imu,0.7450104344486924,-0.6670522135244653,-0.000829653509582398,0.00032965092971647906,0.0,0.0,0.0,0.0,0.0,0.0,0.0,0.0,0.0,-0.0007263749487068506,0.0011410335924090733,3.521440182841768e-05,0.0,0.0,0.0,0.0,0.0,0.0,0.0,0.0,0.0,0.0032456970710830046,-0.0667595268960251,9.810674095136982,0.0,0.0,0.0,0.0,0.0,0.0,0.0,0.0,0.0
2025/05/06 15:28:01.862989698,1746538081,811528207,mA1/imu,0.7450098649665741,-0.6670528722923507,-0.0008039698520925518,0.0003468450501762215,0.0,0.0,0.0,0.0,0.0,0.0,0.0,0.0,0.0,0.0008604355145270322,0.0012639535503566925,3.602613281453089e-05,0.0,0.0,0.0,0.0,0.0,0.0,0.0,0.0,0.0,0.0030472105059889095,-0.5857428066858129,9.809786444783839,0.0,0.0,0.0,0.0,0.0,0.0,0.0,0.0,0.0
2025/05/06 15:28:01.892741617,1746538081,862742776,mA1/imu,0.7450092843284165,-0.6670535422899527,-0.0007772162435749164,0.00036594780683280525,0.0,0.0,0.0,0.0,0.0,0.0,0.0,0.0,0.0,0.0007281439551405347,0.0013185258518514538,3.6705885637622655e-05,0.0,0.0,0.0,0.0,0.0,0.0,0.0,0.0,0.0,0.003273381402005693,0.035907421267757915,9.809428392860006,0.0,0.0,0.0,0.0,0.0,0.0,0.0,0.0,0.0
2025/05/06 15:28:01.913307446,1746538081,906637006,mA1/imu,0.7450086907975468,-0.6670542155548032,-0.0007558014885210057,0.0003910381074834463,0.0,0.0,0.0,0.0,0.0,0.0,0.0,0.0,0.0,-0.0008672076513441729,0.001294543875832175,3.720068623776035e-05,0.0,0.0,0.0,0.0,0.0,0.0,0.0,0.0,0.0,0.003873418254780608,0.5544575650271426,9.810084320868807,0.0,0.0,0.0,0.0,0.0,0.0,0.0,0.0,0.0
2025/05/06 15:28:01.978292866,1746538081,961972553,mA1/imu,0.7450080884846404,-0.667054896882695,-0.0007355381609527098,0.0004142715208473268,0.0,0.0,0.0,0.0,0.0,0.0,0.0,0.0,0.0,-0.0007352725114941016,0.0011723565668186862,3.750301355146674e-05,0.0,0.0,0.0,0.0,0.0,0.0,0.0,0.0,0.0,0.004832324757223955,-0.06697787189467007,9.810693701691118,0.0,0.0,0.0,0.0,0.0,0.0,0.0,0.0,0.0
2025/05/06 15:28:02.38429589,1746538082,10497498,mA1/imu,0.7450074813464254,-0.6670555901986213,-0.0007129448792222689,0.00042898977109313635,0.0,0.0,0.0,0.0,0.0,0.0,0.0,0.0,0.0,0.0008519295233946043,0.000981237453147181,3.773101540121606e-05,0.0,0.0,0.0,0.0,0.0,0.0,0.0,0.0,0.0,0.004539883193026973,-0.5859007231385001,9.809802425402173,0.0,0.0,0.0,0.0,0.0,0.0,0.0,0.0,0.0
2025/05/06 15:28:02.117405992,1746538082,59669921,mA1/imu,0.7450068666168452,-0.6670562882798386,-0.0006948734273774339,0.0004405802930624444,0.0,0.0,0.0,0.0,0.0,0.0,0.0,0.0,0.0,0.0007207394757424938,0.0007462681240615824,3.791401917086583e-05,0.0,0.0,0.0,0.0,0.0,0.0,0.0,0.0,0.0,0.004458763827353561,0.035982378942559776,9.80945092376436,0.0,0.0,0.0,0.0,0.0,0.0,0.0,0.0,0.0
2025/05/06 15:28:02.134551769,1746538082,107979429,mA1/imu,0.7450062416568952,-0.6670569855443464,-0.0006870960188813129,0.0004536825083063784,0.0,0.0,0.0,0.0,0.0,0.0,0.0,0.0,0.0,-0.0008732920182879137,0.00047185252719455416,3.800701637072195e-05,0.0,0.0,0.0,0.0,0.0,0.0,0.0,0.0,0.0,0.00491870977244475,0.5544872183975419,9.810085117107036,0.0,0.0,0.0,0.0,0.0,0.0,0.0,0.0,0.0
2025/05/06 15:28:02.188332222,1746538082,163012960,mA1/imu,0.7450056105426333,-0.6670576878725218,-0.0006845022506303838,0.00046126655271689525,0.0,0.0,0.0,0.0,0.0,0.0,0.0,0.0,0.0,-0.0007396935242621176,0.00015549229756662344,3.803858745842528e-05,0.0,0.0,0.0,0.0,0.0,0.0,0.0,0.0,0.0,0.005429712605590451,-0.06695065963493653,9.810676938747822,0.0,0.0,0.0,0.0,0.0,0.0,0.0,0.0,0.0
2025/05/06 15:28:02.241671347,1746538082,206507203,mA1/imu,0.7450049763255859,-0.667058400738319,-0.0006824855790199598,0.00045767672440545236,0.0,0.0,0.0,0.0,0.0,0.0,0.0,0.0,0.0,0.0008492789579998797,-0.0001679689527496859,3.8130081773671665e-05,0.0,0.0,0.0,0.0,0.0,0.0,0.0,0.0,0.0,0.004997397501510618,-0.5858509313288042,9.809782364548994,0.0,0.0,0.0,0.0,0.0,0.0,0.0,0.0,0.0
2025/05/06 15:28:02.275851586,1746538082,264167824,mA1/imu,0.7450043343375546,-0.6670591192451208,-0.0006865325280183916,0.00044935873028014535,0.0,0.0,0.0,0.0,0.0,0.0,0.0,0.0,0.0,0.0007243194267738265,-0.0004618668954804931,3.8321001969336804e-05,0.0,0.0,0.0,0.0,0.0,0.0,0.0,0.0,0.0,0.004438178803237081,0.03621901431761351,9.80942866315267,0.0,0.0,0.0,0.0,0.0,0.0,0.0,0.0,0.0
2025/05/06 15:28:02.315758039,1746538082,307527013,mA1/imu,0.7450036803377882,-0.6670598391425804,-0.0007012044915875294,0.0004422651768206035,0.0,0.0,0.0,0.0,0.0,0.0,0.0,0.0,0.0,-0.000871035010250953,-0.0007262837568923716,3.855909548369099e-05,0.0,0.0,0.0,0.0,0.0,0.0,0.0,0.0,0.0,0.004802714566362436,0.5545346596404651,9.810057227659504,0.0,0.0,0.0,0.0,0.0,0.0,0.0,0.0,0.0
2025/05/06 15:28:02.384080023,1746538082,362402469,mA1/imu,0.7450030173305575,-0.6670605672013015,-0.0007200583727850869,0.00043054544807387624,0.0,0.0,0.0,0.0,0.0,0.0,0.0,0.0,0.0,-0.0007365001948293159,-0.0009605821074228854,3.884590605598567e-05,0.0,0.0,0.0,0.0,0.0,0.0,0.0,0.0,0.0,0.00491796173617644,-0.06683226056603403,9.810670237748322,0.0,0.0,0.0,0.0,0.0,0.0,0.0,0.0,0.0
2025/05/06 15:28:02.437823345,1746538082,417972251,mA1/imu,0.7450023478288303,-0.6670613093233031,-0.0007372497708730619,0.0004096293280970157,0.0,0.0,0.0,0.0,0.0,0.0,0.0,0.0,0.0,0.0008536430392822652,-0.0011405514522734171,3.923393336687654e-05,0.0,0.0,0.0,0.0,0.0,0.0,0.0,0.0,0.0,0.004444803040371599,-0.5857925912451332,9.809786999290772,0.0,0.0,0.0,0.0,0.0,0.0,0.0,0.0,0.0
2025/05/06 15:28:02.465377725,1746538082,455744024,mA1/imu,0.7450016675667843,-0.6670620601601086,-0.0007572474244311536,0.00038703229880776265,0.0,0.0,0.0,0.0,0.0,0.0,0.0,0.0,0.0,0.0007248946062782365,-0.0012342983781683367,3.9741146879231127e-05,0.0,0.0,0.0,0.0,0.0,0.0,0.0,0.0,0.0,0.00363012628795432,0.03592440923929571,9.80941317330203,0.0,0.0,0.0,0.0,0.0,0.0,0.0,0.0,0.0
2025/05/06 15:28:02.515213154,1746538082,509393167,mA1/imu,0.7450009733868554,-0.6670628150067396,-0.0007836195803857166,0.0003693619844682066,0.0,0.0,0.0,0.0,0.0,0.0,0.0,0.0,0.0,-0.0008666298496297026,-0.0012578642757055274,4.032271807357385e-05,0.0,0.0,0.0,0.0,0.0,0.0,0.0,0.0,0.0,0.003988960926415394,0.5544629529908053,9.81003945493051,0.0,0.0,0.0,0.0,0.0,0.0,0.0,0.0,0.0
2025/05/06 15:28:02.564726462,1746538082,561630406,mA1/imu,0.7450002680463231,-0.667063581834388,-0.000809295482484744,0.0003513431454167578,0.0,0.0,0.0,0.0,0.0,0.0,0.0,0.0,0.0,-0.0007300024465345539,-0.0012225710389259087,4.101569573477808e-05,0.0,0.0,0.0,0.0,0.0,0.0,0.0,0.0,0.0,0.004056168281005232,-0.06699599846174023,9.810652984023426,0.0,0.0,0.0,0.0,0.0,0.0,0.0,0.0,0.0
2025/05/06 15:28:02.615744958,1746538082,611634811,mA1/imu,0.7449995535972481,-0.6670643681870201,-0.0008281156447275998,0.00032872424850838766,0.0,0.0,0.0,0.0,0.0,0.0,0.0,0.0,0.0,0.0008612929135064677,-0.0011219792512389306,4.1815741265150605e-05,0.0,0.0,0.0,0.0,0.0,0.0,0.0,0.0,0.0,0.0036428575424376497,-0.5859640749301311,9.809769802077742,0.0,0.0,0.0,0.0,0.0,0.0,0.0,0.0,0.0
2025/05/06 15:28:02.694386269,1746538082,664959955,mA1/imu,0.7449988353302743,-0.6670651583755765,-0.0008454817734143895,0.00030821822278008704,0.0,0.0,0.0,0.0,0.0,0.0,0.0,0.0,0.0,0.0007328412476615691,-0.001024311997798159,4.1805745006184555e-05,0.0,0.0,0.0,0.0,0.0,0.0,0.0,0.0,0.0,0.005374402186097736,0.036053956216217264,9.809417425730821,0.0,0.0,0.0,0.0,0.0,0.0,0.0,0.0,0.0
2025/05/06 15:28:02.760054719,1746538082,708027554,mA1/imu,0.7449981168387357,-0.6670659404103372,-0.0008658011261987912,0.0002957019098543796,0.0,0.0,0.0,0.0,0.0,0.0,0.0,0.0,0.0,-0.0008586245794669975,-0.0008707727523126909,4.1818805847347854e-05,0.0,0.0,0.0,0.0,0.0,0.0,0.0,0.0,0.0,0.005783518490668852,0.5545991013588837,9.810044623342737,0.0,0.0,0.0,0.0,0.0,0.0,0.0,0.0,0.0
2025/05/06 15:28:02.824250024,1746538082,765062381,mA1/imu,0.7449974013724459,-0.6670667221218128,-0.0008824076948485628,0.00028555668957815463,0.0,0.0,0.0,0.0,0.0,0.0,0.0,0.0,0.0,-0.0007229053821277485,-0.0006840985707657988,4.1853541910272306e-05,0.0,0.0,0.0,0.0,0.0,0.0,0.0,0.0,0.0,0.006035638052707894,-0.06720247192985765,9.810664689007027,0.0,0.0,0.0,0.0,0.0,0.0,0.0,0.0,0.0
2025/05/06 15:28:02.858128959,1746538082,805701522,mA1/imu,0.7449966913847358,-0.6670675105980508,-0.0008897096013662821,0.0002730332238700084,0.0,0.0,0.0,0.0,0.0,0.0,0.0,0.0,0.0,0.0008671178487257388,-0.00046491694904032187,4.194315582748974e-05,0.0,0.0,0.0,0.0,0.0,0.0,0.0,0.0,0.0,0.005686003795492098,-0.5861513215023263,9.809785163398033,0.0,0.0,0.0,0.0,0.0,0.0,0.0,0.0,0.0
2025/05/06 15:28:02.883958825,1746538082,861450288,mA1/imu,0.7449959849171952,-0.6670682985674465,-0.0008928949178275356,0.00026503255603286467,0.0,0.0,0.0,0.0,0.0,0.0,0.0,0.0,0.0,0.0007381879932945034,-0.0002083717169484978,4.2061366267691594e-05,0.0,0.0,0.0,0.0,0.0,0.0,0.0,0.0,0.0,0.0053263514655380855,0.03620144257864681,9.809439851573067,0.0,0.0,0.0,0.0,0.0,0.0,0.0,0.0,0.0
2025/05/06 15:28:02.939409466,1746538082,906409999,mA1/imu,0.7449952805517119,-0.6670690793422921,-0.0008966281743935652,0.0002672059498751044,0.0,0.0,0.0,0.0,0.0,0.0,0.0,0.0,0.0,-0.0008540568907478077,5.514524742877982e-05,4.214331979479144e-05,0.0,0.0,0.0,0.0,0.0,0.0,0.0,0.0,0.0,0.005838631911059678,0.5547394550322738,9.810071491652735,0.0,0.0,0.0,0.0,0.0,0.0,0.0,0.0,0.0
2025/05/06 15:28:02.977407795,1746538082,958968066,mA1/imu,0.744994580788024,-0.6670698603090499,-0.0008952783568561359,0.00027302088693424123,0.0,0.0,0.0,0.0,0.0,0.0,0.0,0.0,0.0,-0.0007198754907584012,0.00029228359874324846,4.217461769319165e-05,0.0,0.0,0.0,0.0,0.0,0.0,0.0,0.0,0.0,0.006490515176525227,-0.06732448255535572,9.810670370761619,0.0,0.0,0.0,0.0,0.0,0.0,0.0,0.0,0.0
2025/05/06 15:28:03.16155825,1746538083,6271512,mA1/imu,0.7449938876110073,-0.6670706474794565,-0.0008843719505432959,0.00027673060820084097,0.0,0.0,0.0,0.0,0.0,0.0,0.0,0.0,0.0,0.0008686309151954127,0.0004967466800061372,4.218241807515291e-05,0.0,0.0,0.0,0.0,0.0,0.0,0.0,0.0,0.0,0.007517551703376877,-0.5862447347441859,9.80980926503172,0.0,0.0,0.0,0.0,0.0,0.0,0.0,0.0,0.0
2025/05/06 15:28:03.70136796,1746538083,61349005,mA1/imu,0.7449931990770416,-0.667071431409256,-0.0008707537268337424,0.0002837507863742095,0.0,0.0,0.0,0.0,0.0,0.0,0.0,0.0,0.0,0.0007382958035295518,0.0006463839049748095,4.209522578769553e-05,0.0,0.0,0.0,0.0,0.0,0.0,0.0,0.0,0.0,0.007398848761982411,0.03627932130085798,9.809455566506083,0.0,0.0,0.0,0.0,0.0,0.0,0.0,0.0,0.0
2025/05/06 15:28:03.162009477,1746538083,111596328,mA1/imu,0.7449925132855434,-0.6670722044768067,-0.0008601955084790323,0.00029870826874700334,0.0,0.0,0.0,0.0,0.0,0.0,0.0,0.0,0.0,-0.0008497440501937458,0.0007580217340470137,4.1917545492392744e-05,0.0,0.0,0.0,0.0,0.0,0.0,0.0,0.0,0.0,0.007891056472147025,0.5527877052235911,9.81006675983569,0.0,0.0,0.0,0.0,0.0,0.0,0.0,0.0,0.0
2025/05/06 15:28:03.205546243,1746538083,167088806,mA1/imu,0.7449918327022644,-0.667072973222912,-0.0008478094528543624,0.0003143590257619426,0.0,0.0,0.0,0.0,0.0,0.0,0.0,0.0,0.0,-0.0007201147265352404,0.0008052944408796167,4.163286171698904e-05,0.0,0.0,0.0,0.0,0.0,0.0,0.0,0.0,0.0,0.008629983435707112,-0.06717934610730154,9.810666110846839,0.0,0.0,0.0,0.0,0.0,0.0,0.0,0.0,0.0
2025/05/06 15:28:03.349828893,1746538083,207875984,mA1/imu,0.744991159650936,-0.6670737427549462,-0.0008297100005506236,0.0003245769192981659,0.0,0.0,0.0,0.0,0.0,0.0,0.0,0.0,0.0,0.000865687010384403,0.0008047740030200011,4.131398706902031e-05,0.0,0.0,0.0,0.0,0.0,0.0,0.0,0.0,0.0,0.008286895831533731,-0.5861907574415165,9.809807334069268,0.0,0.0,0.0,0.0,0.0,0.0,0.0,0.0,0.0
2025/05/06 15:28:03.380127763,1746538083,262735038,mA1/imu,0.7449904916160331,-0.6670745049000651,-0.0008124626394280241,0.00033499028916633906,0.0,0.0,0.0,0.0,0.0,0.0,0.0,0.0,0.0,0.0007332743049702036,0.0007709987743139436,4.096186367391866e-05,0.0,0.0,0.0,0.0,0.0,0.0,0.0,0.0,0.0,0.008143990671573904,0.036305358819458435,9.809446090421323,0.0,0.0,0.0,0.0,0.0,0.0,0.0,0.0,0.0
2025/05/06 15:28:03.428473053,1746538083,303963419,mA1/imu,0.7449898263807636,-0.6670752528926008,-0.0008017917174973817,0.00035028199240652,0.0,0.0,0.0,0.0,0.0,0.0,0.0,0.0,0.0,-0.0008617557173193948,0.0006954690831306439,4.051340664510948e-05,0.0,0.0,0.0,0.0,0.0,0.0,0.0,0.0,0.0,0.00858671697793362,0.5548052558155132,9.810057243671654,0.0,0.0,0.0,0.0,0.0,0.0,0.0,0.0,0.0
2025/05/06 15:28:03.509231881,1746538083,357790680,mA1/imu,0.7449891670692841,-0.6670759930489925,-0.0007927681741009241,0.0003632708866762967,0.0,0.0,0.0,0.0,0.0,0.0,0.0,0.0,0.0,-0.0007297828603420408,0.0005635141347988198,3.996957903423375e-05,0.0,0.0,0.0,0.0,0.0,0.0,0.0,0.0,0.0,0.009164095547988823,-0.06732203117116466,9.81066210511146,0.0,0.0,0.0,0.0,0.0,0.0,0.0,0.0,0.0
2025/05/06 15:28:03.554653217,1746538083,417901524,mA1/imu,0.7449885164531022,-0.6670767307635141,-0.0007811653830912108,0.00036797759721241365,0.0,0.0,0.0,0.0,0.0,0.0,0.0,0.0,0.0,0.0008567960369156923,0.0004012170155492609,3.942566167103434e-05,0.0,0.0,0.0,0.0,0.0,0.0,0.0,0.0,0.0,0.008738424883566777,-0.5862388645865805,9.809806951434073,0.0,0.0,0.0,0.0,0.0,0.0,0.0,0.0,0.0
2025/05/06 15:28:03.653969148,1746538083,465071695,mA1/imu,0.7449878714821635,-0.6670774590755901,-0.0007731194934338492,0.0003704375507217572,0.0,0.0,0.0,0.0,0.0,0.0,0.0,0.0,0.0,0.0007249500268845508,0.00023353555218356915,3.889594423497842e-05,0.0,0.0,0.0,0.0,0.0,0.0,0.0,0.0,0.0,0.008351829469090348,0.03624574063995596,9.809446127372658,0.0,0.0,0.0,0.0,0.0,0.0,0.0,0.0,0.0
2025/05/06 15:28:03.710122029,1746538083,511383443,mA1/imu,0.7449872295046702,-0.6670781722428648,-0.000773772052596819,0.00037585753288325977,0.0,0.0,0.0,0.0,0.0,0.0,0.0,0.0,0.0,-0.0008694276492665361,5.727849652090946e-05,3.832701849894642e-05,0.0,0.0,0.0,0.0,0.0,0.0,0.0,0.0,0.0,0.00871440198334121,0.5547571691761936,9.8100439252451,0.0,0.0,0.0,0.0,0.0,0.0,0.0,0.0,0.0
2025/05/06 15:28:03.832347523,1746538083,565616958,mA1/imu,0.7449865935860313,-0.6670788770840989,-0.0007774813338414648,0.00037768780061375187,0.0,0.0,0.0,0.0,0.0,0.0,0.0,0.0,0.0,-0.0007366111928616831,-0.00013413306217514867,3.7741418908247354e-05,0.0,0.0,0.0,0.0,0.0,0.0,0.0,0.0,0.0,0.009010258562343519,-0.06727195372338692,9.81065008939306,0.0,0.0,0.0,0.0,0.0,0.0,0.0,0.0,0.0
2025/05/06 15:28:03.870767181,1746538083,607371173,mA1/imu,0.744985965999192,-0.667079579863213,-0.000779247843371646,0.0003706299618652432,0.0,0.0,0.0,0.0,0.0,0.0,0.0,0.0,0.0,0.0008511383452216611,-0.00031505103738274697,3.722840490646046e-05,0.0,0.0,0.0,0.0,0.0,0.0,0.0,0.0,0.0,0.008511434053887428,-0.5861829253673329,9.809791485930939,0.0,0.0,0.0,0.0,0.0,0.0,0.0,0.0,0.0
2025/05/06 15:28:03.897628891,1746538083,663110518,mA1/imu,0.7449853429543984,-0.6670802746849104,-0.0007843925692296422,0.0003614384032154313,0.0,0.0,0.0,0.0,0.0,0.0,0.0,0.0,0.0,0.0007207662411440809,-0.00045653992886996613,3.680055082980042e-05,0.0,0.0,0.0,0.0,0.0,0.0,0.0,0.0,0.0,0.007865473468409634,0.036185358412972164,9.80942784680199,0.0,0.0,0.0,0.0,0.0,0.0,0.0,0.0,0.0
2025/05/06 15:28:03.924538431,1746538083,707529604,mA1/imu,0.7449847214216871,-0.6670809564829602,-0.0007972575331558897,0.00035598659547277046,0.0,0.0,0.0,0.0,0.0,0.0,0.0,0.0,0.0,-0.0008654586495142185,-0.0005676326302099885,3.640101099798645e-05,0.0,0.0,0.0,0.0,0.0,0.0,0.0,0.0,0.0,0.008195074184911222,0.5523696950157853,9.810023817029313,0.0,0.0,0.0,0.0,0.0,0.0,0.0,0.0,0.0
2025/05/06 15:28:03.969439617,1746538083,859779093,mA1/imu,0.7449828831505692,-0.6670829850886072,-0.0008323236093029814,0.0003194610274020952,0.0,0.0,0.0,0.0,0.0,0.0,0.0,0.0,0.0,0.0007232521953280645,-0.0007001389323984484,3.5677387320094465e-05,0.0,0.0,0.0,0.0,0.0,0.0,0.0,0.0,0.0,0.0071629809229819515,0.03618461551396128,9.809415667826434,0.0,0.0,0.0,0.0,0.0,0.0,0.0,0.0,0.0
2025/05/06 15:28:04.5258053,1746538083,913496669,mA1/imu,0.7449822729197006,-0.6670836508837682,-0.0008477062238324991,0.0003116939809590944,0.0,0.0,0.0,0.0,0.0,0.0,0.0,0.0,0.0,-0.0008683991329783271,-0.0005950706358003456,3.5921859259938576e-05,0.0,0.0,0.0,0.0,0.0,0.0,0.0,0.0,0.0,-0.00047900631478982325,0.5548076974948599,9.810015143541914,0.0,0.0,0.0,0.0,0.0,0.0,0.0,0.0,0.0
2025/05/06 15:28:04.33115349,1746538083,956801499,mA1/imu,0.7449816477191852,-0.667084338238559,-0.0008575797602885108,0.0003078885943484724,0.0,0.0,0.0,0.0,0.0,0.0,0.0,0.0,0.0,-0.0007315607698197032,-0.00025564306584178055,3.756504200388703e-05,0.0,0.0,0.0,0.0,0.0,0.0,0.0,0.0,0.0,0.00012044500507659567,-0.06717836458447535,9.810649776007006,0.0,0.0,0.0,0.0,0.0,0.0,0.0,0.0,0.0
2025/05/06 15:28:04.57014936,1746538084,7255948,mA1/imu,0.7449810054910341,-0.6670850597946937,-0.0008556214061889796,0.0003039215145780138,0.0,0.0,0.0,0.0,0.0,0.0,0.0,0.0,0.0,0.0008600124412697772,8.646300820359936e-05,3.9121385473479187e-05,0.0,0.0,0.0,0.0,0.0,0.0,0.0,0.0,0.0,-0.00022452154863022294,-0.5860960427172955,9.809802644299971,0.0,0.0,0.0,0.0,0.0,0.0,0.0,0.0,0.0
2025/05/06 15:28:04.154419045,1746538084,62073930,mA1/imu,0.7449799367598862,-0.6670862629717986,-0.0008470203559050285,0.000306816024930646,0.0,0.0,0.0,0.0,0.0,0.0,0.0,0.0,0.0,0.0007292800212197513,0.0004714877852440038,7.090708039881225e-05,0.0,0.0,0.0,0.0,0.0,0.0,0.0,0.0,0.0,-0.000114925036651033,0.03639992412460352,9.809440571674099,0.0,0.0,0.0,0.0,0.0,0.0,0.0,0.0,0.0
2025/05/06 15:28:04.269927788,1746538084,129110662,mA1/imu,0.7449794851230127,-0.6670867714531474,-0.0008389564490803138,0.00031976576347533006,0.0,0.0,0.0,0.0,0.0,0.0,0.0,0.0,0.0,-0.0008589495652745541,0.000547643940093326,-7.5432640811892e-05,0.0,0.0,0.0,0.0,0.0,0.0,0.0,0.0,0.0,0.01890045040653858,0.5548718858574756,9.810055217628364,0.0,0.0,0.0,0.0,0.0,0.0,0.0,0.0,0.0
2025/05/06 15:28:04.298234914,1746538084,164110927,mA1/imu,0.7449828582756125,-0.6670830072850678,-0.000832514279767233,0.00033043453634423297,0.0,0.0,0.0,0.0,0.0,0.0,0.0,0.0,0.0,-0.0007282034956668266,0.0005533869768723216,-0.0002133235026976733,0.0,0.0,0.0,0.0,0.0,0.0,0.0,0.0,0.0,0.0011035510017917208,-0.06724559274806582,9.810663956037102,0.0,0.0,0.0,0.0,0.0,0.0,0.0,0.0,0.0
2025/05/06 15:28:04.338083338,1746538084,212160818,mA1/imu,0.7449863590793385,-0.6670791129025148,-0.0008168499611870359,0.0003386311355308793,0.0,0.0,0.0,0.0,0.0,0.0,0.0,0.0,0.0,0.0008626567893003536,0.0007624147235030062,-0.00020618070223480308,0.0,0.0,0.0,0.0,0.0,0.0,0.0,0.0,0.0,0.0009405464175029363,-0.5861975722876953,9.809814121083464,0.0,0.0,0.0,0.0,0.0,0.0,0.0,0.0,0.0
2025/05/06 15:28:04.364542693,1746538084,264685064,mA1/imu,0.7449897484602341,-0.6670753442986804,-0.0007980957514869669,0.00035037283782202687,0.0,0.0,0.0,0.0,0.0,0.0,0.0,0.0,0.0,0.0007357694478952394,0.0009317042561258074,-0.00019942574768873776,0.0,0.0,0.0,0.0,0.0,0.0,0.0,0.0,0.0,0.001104140332164021,0.036444021369614235,9.809459813701679,0.0,0.0,0.0,0.0,0.0,0.0,0.0,0.0,0.0
2025/05/06 15:28:04.412927506,1746538084,309708637,mA1/imu,0.7449930289577539,-0.6670716887479262,-0.000782226346616141,0.00037013144133040505,0.0,0.0,0.0,0.0,0.0,0.0,0.0,0.0,0.0,-0.0008541602466267081,0.0010424117961809578,-0.0001930834028482188,0.0,0.0,0.0,0.0,0.0,0.0,0.0,0.0,0.0,0.0017461732360684176,0.5549591310766732,9.810055315153832,0.0,0.0,0.0,0.0,0.0,0.0,0.0,0.0,0.0
2025/05/06 15:28:04.455163525,1746538084,363514596,mA1/imu,0.7449962080556316,-0.6670681470000187,-0.0007647753313148512,0.0003903324020376066,0.0,0.0,0.0,0.0,0.0,0.0,0.0,0.0,0.0,-0.0007181814254456742,0.0010673998897916604,-0.000187131701428968,0.0,0.0,0.0,0.0,0.0,0.0,0.0,0.0,0.0,0.00273951187603787,-0.06729156985052373,9.810683807672108,0.0,0.0,0.0,0.0,0.0,0.0,0.0,0.0,0.0
2025/05/06 15:28:04.517961995,1746538084,406812177,mA1/imu,0.7449992928081933,-0.667064719016507,-0.0007421448945894687,0.00040444984307611345,0.0,0.0,0.0,0.0,0.0,0.0,0.0,0.0,0.0,0.0008718077490834853,0.0010260667720450455,-0.00018152825410847976,0.0,0.0,0.0,0.0,0.0,0.0,0.0,0.0,0.0,0.0025772991557394594,-0.5861770983781377,9.809839222043536,0.0,0.0,0.0,0.0,0.0,0.0,0.0,0.0,0.0
2025/05/06 15:28:04.651343700,1746538084,459551312,mA1/imu,0.7450022902206892,-0.6670613860553581,-0.0007212693220030093,0.00041781622473902535,0.0,0.0,0.0,0.0,0.0,0.0,0.0,0.0,0.0,0.000743354319023811,0.0009332439405824192,-0.00017661278545299587,0.0,0.0,0.0,0.0,0.0,0.0,0.0,0.0,0.0,0.0026274163842256674,0.03644431827887395,9.809479002708335,0.0,0.0,0.0,0.0,0.0,0.0,0.0,0.0,0.0
2025/05/06 15:28:04.838473081,1746538084,507735412,mA1/imu,0.7450052024754238,-0.6670581366545237,-0.0007081514356633736,0.00043488974661733766,0.0,0.0,0.0,0.0,0.0,0.0,0.0,0.0,0.0,-0.0008513377216928866,0.0007868871710971426,-0.00017195970270715279,0.0,0.0,0.0,0.0,0.0,0.0,0.0,0.0,0.0,0.003171911807788111,0.5547728648979736,9.810066655695598,0.0,0.0,0.0,0.0,0.0,0.0,0.0,0.0,0.0
2025/05/06 15:28:04.875593531,1746538084,564227340,mA1/imu,0.7450077916338028,-0.6670552467325322,-0.0006977448977075974,0.00044873553734375973,0.0,0.0,0.0,0.0,0.0,0.0,0.0,0.0,0.0,-0.0007195772835137674,0.0006263879654856739,-0.00013015142032719168,0.0,0.0,0.0,0.0,0.0,0.0,0.0,0.0,0.0,0.0011155206253518997,-0.06849717558759726,9.810632574016738,0.0,0.0,0.0,0.0,0.0,0.0,0.0,0.0,0.0
2025/05/06 15:28:04.918058757,1746538084,606246395,mA1/imu,0.745009693514815,-0.6670531319638225,-0.0006854142191050855,0.0004537769988635232,0.0,0.0,0.0,0.0,0.0,0.0,0.0,0.0,0.0,0.0008669579832425537,0.000398263657560241,-0.00011121910440120436,0.0,0.0,0.0,0.0,0.0,0.0,0.0,0.0,0.0,0.0035960815371151806,-0.5861541607362248,9.809813453057938,0.0,0.0,0.0,0.0,0.0,0.0,0.0,0.0,0.0
2025/05/06 15:28:05.31899410,1746538084,660924608,mA1/imu,0.7450115012370112,-0.6670511194370197,-0.0006781926286884218,0.0004551232275529271,0.0,0.0,0.0,0.0,0.0,0.0,0.0,0.0,0.0,0.0007366701213764407,0.00014534779199568465,-0.0001059336066910377,0.0,0.0,0.0,0.0,0.0,0.0,0.0,0.0,0.0,0.003294440992079468,0.03644049420028431,9.809443807282541,0.0,0.0,0.0,0.0,0.0,0.0,0.0,0.0,0.0
2025/05/06 15:28:05.127037181,1746538084,759801667,mA1/imu,0.7450202002873069,-0.6670413878319829,-0.0006984112572846846,0.00044755419712528123,0.0,0.0,0.0,0.0,0.0,0.0,0.0,0.0,0.0,-0.0007314759402407493,-0.0008423506755899435,-0.00038499114395432817,0.0,0.0,0.0,0.0,0.0,0.0,0.0,0.0,0.0,0.0036588767246750692,-0.0672775490374058,9.810649374374622,0.0,0.0,0.0,0.0,0.0,0.0,0.0,0.0,0.0
2025/05/06 15:28:05.137259912,1746538084,860206914,mA1/imu,0.7450325881337431,-0.6670275413767,-0.0007322116852277154,0.000406853461377272,0.0,0.0,0.0,0.0,0.0,0.0,0.0,0.0,0.0,0.0007251326037508796,-0.0011737259420002413,-0.00036235471096993533,0.0,0.0,0.0,0.0,0.0,0.0,0.0,0.0,0.0,0.0024502652776120623,0.03651330492978641,9.809428501913299,0.0,0.0,0.0,0.0,0.0,0.0,0.0,0.0,0.0
2025/05/06 15:28:05.150736528,1746538084,915487455,mA1/imu,0.7450384974394076,-0.6670209224362946,-0.0007578729870066042,0.0003898640789236074,0.0,0.0,0.0,0.0,0.0,0.0,0.0,0.0,0.0,-0.0008682483562151607,-0.0012324565968977728,-0.0003515038057263353,0.0,0.0,0.0,0.0,0.0,0.0,0.0,0.0,0.0,0.002818735671830241,0.5549924716937493,9.810019561332597,0.0,0.0,0.0,0.0,0.0,0.0,0.0,0.0,0.0
2025/05/06 15:28:05.156596472,1746538084,958536990,mA1/imu,0.7450442280316256,-0.667014502000902,-0.0007836168876359439,0.00037194330363844296,0.0,0.0,0.0,0.0,0.0,0.0,0.0,0.0,0.0,-0.0007358348312890706,-0.0012381281668482917,-0.00034101635814744673,0.0,0.0,0.0,0.0,0.0,0.0,0.0,0.0,0.0,0.0030298858823046074,-0.06731276643465964,9.81062193484748,0.0,0.0,0.0,0.0,0.0,0.0,0.0,0.0,0.0
2025/05/06 15:28:05.167943596,1746538085,58722489,mA1/imu,0.7450551858086756,-0.6670022390078187,-0.0008223368219433018,0.00032713958447488077,0.0,0.0,0.0,0.0,0.0,0.0,0.0,0.0,0.0,0.000722179742461597,-0.001106971332044778,-0.0003210865795748005,0.0,0.0,0.0,0.0,0.0,0.0,0.0,0.0,0.0,0.0037010874649093277,0.03641910404264721,9.809413996602176,0.0,0.0,0.0,0.0,0.0,0.0,0.0,0.0,0.0
2025/05/06 15:28:05.183017656,1746538085,159881289,mA1/imu,0.7450655105229093,-0.6669906665258554,-0.000862987190228605,0.00030174449649326995,0.0,0.0,0.0,0.0,0.0,0.0,0.0,0.0,0.0,-0.0007342459662051493,-0.0007799599119414155,-0.0003026904457769597,0.0,0.0,0.0,0.0,0.0,0.0,0.0,0.0,0.0,0.004366586637725302,-0.06721784467451532,9.81063512648276,0.0,0.0,0.0,0.0,0.0,0.0,0.0,0.0,0.0
2025/05/06 15:28:05.211009960,1746538085,209792811,mA1/imu,0.745070456224102,-0.6669851359229865,-0.0008722713913312718,0.0002878583395185963,0.0,0.0,0.0,0.0,0.0,0.0,0.0,0.0,0.0,0.0008540956032996065,-0.0005585884629906911,-0.00029382364577122455,0.0,0.0,0.0,0.0,0.0,0.0,0.0,0.0,0.0,0.003988625514077082,-0.5861670963834147,9.809798250492841,0.0,0.0,0.0,0.0,0.0,0.0,0.0,0.0,0.0
2025/05/06 15:28:05.264792096,1746538085,260797623,mA1/imu,0.7450748575921442,-0.6669802171167292,-0.0008766841210885756,0.00027925600969797644,0.0,0.0,0.0,0.0,0.0,0.0,0.0,0.0,0.0,0.0007205251298927797,-0.0002481481300460659,-0.0002554022657392392,0.0,0.0,0.0,0.0,0.0,0.0,0.0,0.0,0.0,0.0035438173280299594,0.037427005348654147,9.80943770316772,0.0,0.0,0.0,0.0,0.0,0.0,0.0,0.0,0.0
2025/05/06 15:28:05.312554034,1746538085,311025011,mA1/imu,0.7450790251810543,-0.6669755546784375,-0.0008812623822211443,0.0002811996696507009,0.0,0.0,0.0,0.0,0.0,0.0,0.0,0.0,0.0,-0.0008687483141922372,3.0151627535516606e-05,-0.0002466248265020595,0.0,0.0,0.0,0.0,0.0,0.0,0.0,0.0,0.0,0.004056003407334266,0.5548627197325563,9.810047848406553,0.0,0.0,0.0,0.0,0.0,0.0,0.0,0.0,0.0
2025/05/06 15:28:05.365528605,1746538085,362151504,mA1/imu,0.7450830557119633,-0.6669710507992163,-0.0008804027339693024,0.0002870152239542815,0.0,0.0,0.0,0.0,0.0,0.0,0.0,0.0,0.0,-0.0007319760898271458,0.0002853368240192223,-0.00023821796878103506,0.0,0.0,0.0,0.0,0.0,0.0,0.0,0.0,0.0,0.004703901574870855,-0.06722328796278594,9.81067103909954,0.0,0.0,0.0,0.0,0.0,0.0,0.0,0.0,0.0
2025/05/06 15:28:05.415181756,1746538085,412253114,mA1/imu,0.7450869561710737,-0.6669667060098127,-0.000869553389937797,0.00029102413377270095,0.0,0.0,0.0,0.0,0.0,0.0,0.0,0.0,0.0,0.0008590449616244544,0.0005183471291575801,-0.000230068122729536,0.0,0.0,0.0,0.0,0.0,0.0,0.0,0.0,0.0,0.004420355217243288,-0.5861280930901899,9.809817993103456,0.0,0.0,0.0,0.0,0.0,0.0,0.0,0.0,0.0
2025/05/06 15:28:05.471130568,1746538085,465531495,mA1/imu,0.7450907287517226,-0.6669625068047085,-0.0008549464667396707,0.00029918480070775246,0.0,0.0,0.0,0.0,0.0,0.0,0.0,0.0,0.0,0.0007315754223589208,0.0007314390195999558,-0.00022222295922099902,0.0,0.0,0.0,0.0,0.0,0.0,0.0,0.0,0.0,0.004345485145782888,0.03635093550923939,9.809479669511925,0.0,0.0,0.0,0.0,0.0,0.0,0.0,0.0,0.0
2025/05/06 15:28:05.559111893,1746538085,506382835,mA1/imu,0.7450943754765421,-0.6669584411618567,-0.000842250391585078,0.00031624428196596005,0.0,0.0,0.0,0.0,0.0,0.0,0.0,0.0,0.0,-0.0008587804900680131,0.0009001631613093883,-0.00021473160858163123,0.0,0.0,0.0,0.0,0.0,0.0,0.0,0.0,0.0,0.004893732542813108,0.5548710644728748,9.810076769455295,0.0,0.0,0.0,0.0,0.0,0.0,0.0,0.0,0.0
2025/05/06 15:28:05.628616665,1746538085,558771536,mA1/imu,0.745097902671048,-0.6669545110344888,-0.0008267597235703046,0.0003348347520818738,0.0,0.0,0.0,0.0,0.0,0.0,0.0,0.0,0.0,-0.0007226954992311512,0.0009942877360367105,-0.00020758172072371322,0.0,0.0,0.0,0.0,0.0,0.0,0.0,0.0,0.0,0.00578153987496996,-0.06717929689112985,9.810680488821683,0.0,0.0,0.0,0.0,0.0,0.0,0.0,0.0,0.0
2025/05/06 15:28:05.648919388,1746538085,610340453,mA1/imu,0.7451013161557127,-0.6669507176847365,-0.000804626224672898,0.0003484529785485696,0.0,0.0,0.0,0.0,0.0,0.0,0.0,0.0,0.0,0.0008758180838684956,0.0010289515915628566,-0.0002006440250716003,0.0,0.0,0.0,0.0,0.0,0.0,0.0,0.0,0.0,0.005489359729800216,-0.5855222534984196,9.809833254543387,0.0,0.0,0.0,0.0,0.0,0.0,0.0,0.0,0.0
2025/05/06 15:28:05.675406915,1746538085,663692134,mA1/imu,0.7451046162015242,-0.6669470493361919,-0.0007828056807677505,0.0003626460983700299,0.0,0.0,0.0,0.0,0.0,0.0,0.0,0.0,0.0,0.000741396824639444,0.0010150670496121507,-0.00019394125317445703,0.0,0.0,0.0,0.0,0.0,0.0,0.0,0.0,0.0,0.005478730618233818,0.03688555892546279,9.80946837852249,0.0,0.0,0.0,0.0,0.0,0.0,0.0,0.0,0.0
2025/05/06 15:28:05.709375432,1746538085,704903270,mA1/imu,0.7451078031662844,-0.6669434960813692,-0.000767362262405911,0.00038190395718944924,0.0,0.0,0.0,0.0,0.0,0.0,0.0,0.0,0.0,-0.0008524320268633625,0.0009443728636000596,-0.00018752788599273713,0.0,0.0,0.0,0.0,0.0,0.0,0.0,0.0,0.0,0.005981553495709533,0.5549065287340725,9.8100596891329,0.0,0.0,0.0,0.0,0.0,0.0,0.0,0.0,0.0
2025/05/06 15:28:05.762349676,1746538085,759854384,mA1/imu,0.7451108830173279,-0.6669400610509322,-0.0007536449419300916,0.00039874028930368883,0.0,0.0,0.0,0.0,0.0,0.0,0.0,0.0,0.0,-0.0007187592440705299,0.0007998555037135755,-0.00018137965560915,0.0,0.0,0.0,0.0,0.0,0.0,0.0,0.0,0.0,0.006763860509279689,-0.06714772005355328,9.81069441172953,0.0,0.0,0.0,0.0,0.0,0.0,0.0,0.0,0.0
2025/05/06 15:28:05.818024794,1746538085,811544961,mA1/imu,0.7451138616639091,-0.6669367461252513,-0.0007377346335409315,0.00040690511091245386,0.0,0.0,0.0,0.0,0.0,0.0,0.0,0.0,0.0,0.0008690512730407562,0.000609417299194755,-0.00017545947535005556,0.0,0.0,0.0,0.0,0.0,0.0,0.0,0.0,0.0,0.0064340114933727965,-0.5861134263957268,9.809851892721037,0.0,0.0,0.0,0.0,0.0,0.0,0.0,0.0,0.0
2025/05/06 15:28:05.865978013,1746538085,863813036,mA1/imu,0.7451167412030937,-0.6669335386010798,-0.0007260636445814962,0.00041218868013546115,0.0,0.0,0.0,0.0,0.0,0.0,0.0,0.0,0.0,0.0007375063431564377,0.00039905189343611164,-0.00016982300633360697,0.0,0.0,0.0,0.0,0.0,0.0,0.0,0.0,0.0,0.006140082083404636,0.0362883312536611,9.80944652448748,0.0,0.0,0.0,0.0,0.0,0.0,0.0,0.0,0.0
2025/05/06 15:28:05.918706500,1746538085,912363164,mA1/imu,0.7451195212355132,-0.6669304302680672,-0.0007240069289101259,0.00041960717024462857,0.0,0.0,0.0,0.0,0.0,0.0,0.0,0.0,0.0,-0.00085699023873704,0.0001694282346574429,-0.0001643660010814769,0.0,0.0,0.0,0.0,0.0,0.0,0.0,0.0,0.0,0.006552044659204259,0.5548176741071402,9.810027284755252,0.0,0.0,0.0,0.0,0.0,0.0,0.0,0.0,0.0
2025/05/06 15:28:05.975139433,1746538085,963865954,mA1/imu,0.7451222070630535,-0.6669274253961139,-0.0007261444279612593,0.00042250475106272707,0.0,0.0,0.0,0.0,0.0,0.0,0.0,0.0,0.0,-0.0007276708101395569,-8.409334512344269e-05,-0.00015904359031829082,0.0,0.0,0.0,0.0,0.0,0.0,0.0,0.0,0.0,0.006996746390107441,-0.06742899051247618,9.810660898638792,0.0,0.0,0.0,0.0,0.0,0.0,0.0,0.0,0.0
2025/05/06 15:28:06.6215314,1746538086,4413717,mA1/imu,0.7451248041182855,-0.6669245266502374,-0.0007276985891870227,0.00041532494107282753,0.0,0.0,0.0,0.0,0.0,0.0,0.0,0.0,0.0,0.0008604055025060585,-0.00036643740985651423,-0.0001541136553159771,0.0,0.0,0.0,0.0,0.0,0.0,0.0,0.0,0.0,0.01152235505182313,-0.5863554515977745,9.80979717324029,0.0,0.0,0.0,0.0,0.0,0.0,0.0,0.0,0.0
2025/05/06 15:28:06.64468397,1746538086,56701895,mA1/imu,0.745127330109879,-0.6669217027113926,-0.0007363146373314531,0.00040276123846057536,0.0,0.0,0.0,0.0,0.0,0.0,0.0,0.0,0.0,0.0007278012469009178,-0.0007424218281156421,-0.0001506825619850895,0.0,0.0,0.0,0.0,0.0,0.0,0.0,0.0,0.0,0.010698007968588663,0.036156970700985426,9.809404449711744,0.0,0.0,0.0,0.0,0.0,0.0,0.0,0.0,0.0
2025/05/06 15:28:06.118262849,1746538086,108495436,mA1/imu,0.7451297900464013,-0.6669189387053813,-0.0007568727308255046,0.0003902885638207899,0.0,0.0,0.0,0.0,0.0,0.0,0.0,0.0,0.0,-0.0008677076044122497,-0.0010669569609237288,-0.00014746903117076197,0.0,0.0,0.0,0.0,0.0,0.0,0.0,0.0,0.0,0.01085855925264747,0.5547545098411332,9.809996653858247,0.0,0.0,0.0,0.0,0.0,0.0,0.0,0.0,0.0
2025/05/06 15:28:06.195754132,1746538086,161481746,mA1/imu,0.7451321940882787,-0.6669162333687013,-0.0007824629801737716,0.0003724972166210433,0.0,0.0,0.0,0.0,0.0,0.0,0.0,0.0,0.0,-0.0007360364525192583,-0.001334162009942559,-0.00014451457733485285,0.0,0.0,0.0,0.0,0.0,0.0,0.0,0.0,0.0,0.010698315650234424,-0.06732928995549625,9.810622204550537,0.0,0.0,0.0,0.0,0.0,0.0,0.0,0.0,0.0
2025/05/06 15:28:06.217018116,1746538086,212312740,mA1/imu,0.745134545071992,-0.6669135923447218,-0.0008067659953940349,0.00034527502401190686,0.0,0.0,0.0,0.0,0.0,0.0,0.0,0.0,0.0,0.0008503858638113501,-0.0015211382538222937,-0.00014140019003702246,0.0,0.0,0.0,0.0,0.0,0.0,0.0,0.0,0.0,0.010081913323042313,-0.5862555333978228,9.80976072003147,0.0,0.0,0.0,0.0,0.0,0.0,0.0,0.0,0.0
2025/05/06 15:28:06.257158794,1746538086,254711661,mA1/imu,0.7451368393431086,-0.6669110100212355,-0.0008337480452303629,0.00031659187434021543,0.0,0.0,0.0,0.0,0.0,0.0,0.0,0.0,0.0,0.0007186965472903781,-0.0015943003176356512,-0.00013816385319679385,0.0,0.0,0.0,0.0,0.0,0.0,0.0,0.0,0.0,0.008969194995570815,0.03626931682692494,9.80938677930255,0.0,0.0,0.0,0.0,0.0,0.0,0.0,0.0,0.0
2025/05/06 15:28:06.310275430,1746538086,305814072,mA1/imu,0.7451390751036553,-0.6669084808361594,-0.0008664926243218061,0.000293484253278638,0.0,0.0,0.0,0.0,0.0,0.0,0.0,0.0,0.0,-0.0008750738866017001,-0.0015728135215320796,-0.00013488658359404163,0.0,0.0,0.0,0.0,0.0,0.0,0.0,0.0,0.0,0.009209869386323028,0.5547969258040183,9.809987981043248,0.0,0.0,0.0,0.0,0.0,0.0,0.0,0.0,0.0
2025/05/06 15:28:06.359322020,1746538086,356759603,mA1/imu,0.7451412559154612,-0.6669060126940695,-0.0008974911751230847,0.00027106238657083326,0.0,0.0,0.0,0.0,0.0,0.0,0.0,0.0,0.0,-0.000741422924818636,-0.0014698045285487247,-0.0001315415291583106,0.0,0.0,0.0,0.0,0.0,0.0,0.0,0.0,0.0,0.009062847965940663,-0.06733212363345056,9.81062046304458,0.0,0.0,0.0,0.0,0.0,0.0,0.0,0.0,0.0
2025/05/06 15:28:06.413245870,1746538086,410368219,mA1/imu,0.7451433846675982,-0.6669036131837232,-0.0009202123873269998,0.00024539309860932627,0.0,0.0,0.0,0.0,0.0,0.0,0.0,0.0,0.0,0.000847237688185192,-0.0012842027335036074,-0.00012810342990607668,0.0,0.0,0.0,0.0,0.0,0.0,0.0,0.0,0.0,0.008548404184997586,-0.5862545210608676,9.809787071298063,0.0,0.0,0.0,0.0,0.0,0.0,0.0,0.0,0.0
2025/05/06 15:28:06.456986707,1746538086,454257363,mA1/imu,0.7451454607266097,-0.6669012750587731,-0.0009388249837933077,0.00022425690920229634,0.0,0.0,0.0,0.0,0.0,0.0,0.0,0.0,0.0,0.0007179771028493986,-0.0010052731137588625,-0.000124643405138866,0.0,0.0,0.0,0.0,0.0,0.0,0.0,0.0,0.0,0.007727685863540439,0.03626556973655547,9.809426232245313,0.0,0.0,0.0,0.0,0.0,0.0,0.0,0.0,0.0
2025/05/06 15:28:06.513674028,1746538086,507381323,mA1/imu,0.7451474847496117,-0.6668989910271276,-0.0009570146900978224,0.00021415230377210443,0.0,0.0,0.0,0.0,0.0,0.0,0.0,0.0,0.0,-0.0008735187225661729,-0.0006708456977124232,-0.00012124749931148199,0.0,0.0,0.0,0.0,0.0,0.0,0.0,0.0,0.0,0.008107706394130344,0.554786032627389,9.810035120855593,0.0,0.0,0.0,0.0,0.0,0.0,0.0,0.0,0.0
2025/05/06 15:28:06.568451674,1746538086,559874656,mA1/imu,0.7451494607955536,-0.6668967684543639,-0.0009682365851517829,0.00020933021212035451,0.0,0.0,0.0,0.0,0.0,0.0,0.0,0.0,0.0,-0.0007374998330111081,-0.00031515432257304884,-0.00011791974849337083,0.0,0.0,0.0,0.0,0.0,0.0,0.0,0.0,0.0,0.008453508496952448,-0.06730680746074624,9.810663668501961,0.0,0.0,0.0,0.0,0.0,0.0,0.0,0.0,0.0
2025/05/06 15:28:06.616110931,1746538086,610723534,mA1/imu,0.7451513921560464,-0.6668946133911284,-0.0009671992683862612,0.00020475199231216113,0.0,0.0,0.0,0.0,0.0,0.0,0.0,0.0,0.0,0.0008533051727083586,5.3594703286672614e-05,-0.0001146279679443288,0.0,0.0,0.0,0.0,0.0,0.0,0.0,0.0,0.0,0.008090768640681567,-0.5862263377836312,9.8098259676684,0.0,0.0,0.0,0.0,0.0,0.0,0.0,0.0,0.0
2025/05/06 15:28:06.668054392,1746538086,662007773,mA1/imu,0.7451532788312702,-0.6668925156478557,-0.0009595815293351941,0.0002069376003403951,0.0,0.0,0.0,0.0,0.0,0.0,0.0,0.0,0.0,0.0007240708458956724,0.00043143221588872653,-0.00011143090514728622,0.0,0.0,0.0,0.0,0.0,0.0,0.0,0.0,0.0,0.007800965115976761,0.036119352822173954,9.809476555793923,0.0,0.0,0.0,0.0,0.0,0.0,0.0,0.0,0.0
2025/05/06 15:28:06.723258958,1746538086,713400452,mA1/imu,0.7451552530500871,-0.6668903195086232,-0.0009496268946167451,0.0002209214981582055,0.0,0.0,0.0,0.0,0.0,0.0,0.0,0.0,0.0,-0.0007984019004758687,0.0008796008718791873,-0.0001321594775048937,0.0,0.0,0.0,0.0,0.0,0.0,0.0,0.0,0.0,0.0012688387718652744,0.5609897640572242,9.809332135657833,0.0,0.0,0.0,0.0,0.0,0.0,0.0,0.0,0.0
2025/05/06 15:28:06.766335930,1746538086,760386033,mA1/imu,0.7451580150173502,-0.6668872560311718,-0.0009286728873826417,0.00024075980794248684,0.0,0.0,0.0,0.0,0.0,0.0,0.0,0.0,0.0,-0.0005768985511950175,0.0013379983537709006,-0.00018397862200872378,0.0,0.0,0.0,0.0,0.0,0.0,0.0,0.0,0.0,0.003962942445275969,-0.05906712798276479,9.811470257901638,0.0,0.0,0.0,0.0,0.0,0.0,0.0,0.0,0.0
2025/05/06 15:28:06.814197419,1746538086,811169835,mA1/imu,0.7451607441994677,-0.6668842476280965,-0.0008935431008781725,0.00025913380730056834,0.0,0.0,0.0,0.0,0.0,0.0,0.0,0.0,0.0,0.001145517957354203,0.0016212588001297478,-0.00014363709693339003,0.0,0.0,0.0,0.0,0.0,0.0,0.0,0.0,0.0,0.009182108350773285,-0.5650753250898229,9.809909820474818,0.0,0.0,0.0,0.0,0.0,0.0,0.0,0.0,0.0
2025/05/06 15:28:06.880681924,1746538086,865822278,mA1/imu,0.7451570671399714,-0.6668884135141532,-0.0008423050545395567,0.00028237232038125633,0.0,0.0,0.0,0.0,0.0,0.0,0.0,0.0,0.0,0.0013716594171718337,0.0026141202368019346,0.0005616857527411918,0.0,0.0,0.0,0.0,0.0,0.0,0.0,0.0,0.0,-0.04010345331254268,0.07521044222936774,9.808701327365027,0.0,0.0,0.0,0.0,0.0,0.0,0.0,0.0,0.0
2025/05/06 15:28:06.912337017,1746538086,908388668,mA1/imu,0.7451418542411472,-0.6669054740561184,-0.000775607002580884,0.0003227473105398001,0.0,0.0,0.0,0.0,0.0,0.0,0.0,0.0,0.0,-6.034039681339577e-05,0.0031897185963220185,0.0010494629721406437,0.0,0.0,0.0,0.0,0.0,0.0,0.0,0.0,0.0,-0.0047852999242957465,0.5762946136882614,9.810117425808178,0.0,0.0,0.0,0.0,0.0,0.0,0.0,0.0,0.0
2025/05/06 15:28:06.962938291,1746538086,959370179,mA1/imu,0.7451340574498183,-0.6669142347187602,-0.0007224359922341447,0.00034357546235338555,0.0,0.0,0.0,0.0,0.0,0.0,0.0,0.0,0.0,0.0005494952182918362,0.000742486731380634,-0.0003841967053651428,0.0,0.0,0.0,0.0,0.0,0.0,0.0,0.0,0.0,0.12477184527614596,-0.19701185205779492,9.810929906152845,0.0,0.0,0.0,0.0,0.0,0.0,0.0,0.0,0.0
2025/05/06 15:28:07.12391545,1746538087,10210635,mA1/imu,0.745151038926312,-0.666895290833349,-0.0007071262197527957,0.00031658150585359726,0.0,0.0,0.0,0.0,0.0,0.0,0.0,0.0,0.0,0.002199433996823452,-0.000492566312056917,-0.0011724657458812696,0.0,0.0,0.0,0.0,0.0,0.0,0.0,0.0,0.0,0.019578111006348122,-0.5434598637304545,9.810893392124544,0.0,0.0,0.0,0.0,0.0,0.0,0.0,0.0,0.0
2025/05/06 15:28:07.67505936,1746538087,62155749,mA1/imu,0.7451681654822699,-0.6668761727580915,-0.0006975257706474574,0.00029802199212220545,0.0,0.0,0.0,0.0,0.0,0.0,0.0,0.0,0.0,0.00031478332198820857,-0.00013568592397718898,-0.0009927270769208838,0.0,0.0,0.0,0.0,0.0,0.0,0.0,0.0,0.0,-0.002227620417310056,0.5609531457087917,9.809694219941946,0.0,0.0,0.0,0.0,0.0,0.0,0.0,0.0,0.0
2025/05/06 15:28:07.111960601,1746538087,104411887,mA1/imu,0.7451845287506553,-0.6668579050899658,-0.0006873099742247188,0.00028308070465742877,0.0,0.0,0.0,0.0,0.0,0.0,0.0,0.0,0.0,-0.0007682472586510206,-0.00010930018522348904,-0.0010060158263769875,0.0,0.0,0.0,0.0,0.0,0.0,0.0,0.0,0.0,0.0063658114053602635,0.3318344236637579,9.80946845186816,0.0,0.0,0.0,0.0,0.0,0.0,0.0,0.0,0.0
2025/05/06 15:28:07.158450800,1746538087,155562432,mA1/imu,0.7451988033677305,-0.6668419846225258,-0.0006654635785586934,0.0002610789523177924,0.0,0.0,0.0,0.0,0.0,0.0,0.0,0.0,0.0,0.00043633984273754094,7.027241748022515e-05,-0.0008638892875728098,0.0,0.0,0.0,0.0,0.0,0.0,0.0,0.0,0.0,0.008233745971727555,-0.02573891497305965,9.811470470434383,0.0,0.0,0.0,0.0,0.0,0.0,0.0,0.0,0.0
2025/05/06 15:28:07.215098787,1746538087,207576193,mA1/imu,0.7452144782104547,-0.6668244854058571,-0.0006534682561674968,0.0002451692712602539,0.0,0.0,0.0,0.0,0.0,0.0,0.0,0.0,0.0,0.0013316101533084428,-0.00015556866302212898,-0.0009917580808648497,0.0,0.0,0.0,0.0,0.0,0.0,0.0,0.0,0.0,0.008273035640090555,0.0457479136849274,9.811714604998846,0.0,0.0,0.0,0.0,0.0,0.0,0.0,0.0,0.0
2025/05/06 15:28:07.266852045,1746538087,262268726,mA1/imu,0.7452306808473211,-0.6668063842687674,-0.0006494998158091379,0.0002374283896505596,0.0,0.0,0.0,0.0,0.0,0.0,0.0,0.0,0.0,-0.0004269804654663357,-8.594892890680905e-05,-0.0009807701183571743,0.0,0.0,0.0,0.0,0.0,0.0,0.0,0.0,0.0,0.00683999134009026,0.5688916816770984,9.809529866820254,0.0,0.0,0.0,0.0,0.0,0.0,0.0,0.0,0.0
2025/05/06 15:28:07.313738371,1746538087,310151450,mA1/imu,0.7452482327591547,-0.6667867709397196,-0.0006486641841321562,0.0002300085100455464,0.0,0.0,0.0,0.0,0.0,0.0,0.0,0.0,0.0,-0.0005340601493171935,-0.00022478515706841404,-0.0011007783903018008,0.0,0.0,0.0,0.0,0.0,0.0,0.0,0.0,0.0,0.006774953785342347,-0.05317548574403691,9.808849287055601,0.0,0.0,0.0,0.0,0.0,0.0,0.0,0.0,0.0
2025/05/06 15:28:07.371868063,1746538087,367251457,mA1/imu,0.7452647342254645,-0.6667683339798474,-0.0006442717362193614,0.0002227902965873265,0.0,0.0,0.0,0.0,0.0,0.0,0.0,0.0,0.0,0.0010633053534793177,-7.071327923200077e-05,-0.0010047030241763432,0.0,0.0,0.0,0.0,0.0,0.0,0.0,0.0,0.0,0.007828971459875742,-0.5607544735719865,9.810000269121595,0.0,0.0,0.0,0.0,0.0,0.0,0.0,0.0,0.0
2025/05/06 15:28:07.417356986,1746538087,413915139,mA1/imu,0.745282837224364,-0.6667480974247554,-0.0006470324876549586,0.00022015501634201664,0.0,0.0,0.0,0.0,0.0,0.0,0.0,0.0,0.0,0.00027774566219635177,-0.00021804311878949084,-0.00114233682433843,0.0,0.0,0.0,0.0,0.0,0.0,0.0,0.0,0.0,0.008413996690396632,0.026261788058158604,9.811430494225664,0.0,0.0,0.0,0.0,0.0,0.0,0.0,0.0,0.0
2025/05/06 15:28:07.462086146,1746538087,457983083,mA1/imu,0.7453031464284855,-0.6667253805409794,-0.0006606577788676166,0.00022449406450447608,0.0,0.0,0.0,0.0,0.0,0.0,0.0,0.0,0.0,-0.0008673512312865111,-0.00034398633723193575,-0.0012728841388034628,0.0,0.0,0.0,0.0,0.0,0.0,0.0,0.0,0.0,0.007884500883331348,-0.0378840368649112,9.81085678918921,0.0,0.0,0.0,0.0,0.0,0.0,0.0,0.0,0.0
2025/05/06 15:28:07.518765618,1746538087,514184334,mA1/imu,0.7453258501072854,-0.666699983168318,-0.0006766747908679296,0.0002274124985220152,0.0,0.0,0.0,0.0,0.0,0.0,0.0,0.0,0.0,-0.0003912732619296177,-0.0004440242013979383,-0.0014245210511349238,0.0,0.0,0.0,0.0,0.0,0.0,0.0,0.0,0.0,0.00703170040321316,-0.6198517994474444,9.810267136142963,0.0,0.0,0.0,0.0,0.0,0.0,0.0,0.0,0.0
2025/05/06 15:28:07.559745683,1746538087,556702382,mA1/imu,0.7453492061759935,-0.6666738577161841,-0.0006900839625452752,0.00022819895206116242,0.0,0.0,0.0,0.0,0.0,0.0,0.0,0.0,0.0,-0.0002467689927653761,-0.0002641497528596165,-0.0013472802401156745,0.0,0.0,0.0,0.0,0.0,0.0,0.0,0.0,0.0,0.0028111979871785243,0.021549392525240733,9.809246924182562,0.0,0.0,0.0,0.0,0.0,0.0,0.0,0.0,0.0
2025/05/06 15:28:07.611695637,1746538087,610468464,mA1/imu,0.7453727517421227,-0.6666475117621613,-0.0007070386898469692,0.0002368923519088252,0.0,0.0,0.0,0.0,0.0,0.0,0.0,0.0,0.0,-0.0008483452268596986,-0.000295870124491353,-0.001470576697660152,0.0,0.0,0.0,0.0,0.0,0.0,0.0,0.0,0.0,0.007478171232520875,0.1822869032477786,9.809900294752554,0.0,0.0,0.0,0.0,0.0,0.0,0.0,0.0,0.0
2025/05/06 15:28:07.668983504,1746538087,662083130,mA1/imu,0.7453985815747013,-0.6666186011751116,-0.0007300474131973292,0.00024936827264679823,0.0,0.0,0.0,0.0,0.0,0.0,0.0,0.0,0.0,-0.002034815686263115,-0.00037626082264047007,-0.0016083537426196397,0.0,0.0,0.0,0.0,0.0,0.0,0.0,0.0,0.0,0.006990114781810506,0.5527399763403429,9.809973954269969,0.0,0.0,0.0,0.0,0.0,0.0,0.0,0.0,0.0
2025/05/06 15:28:07.711418212,1746538087,707373980,mA1/imu,0.7454267168001872,-0.666587108665017,-0.0007539276465862324,0.00026083559968199363,0.0,0.0,0.0,0.0,0.0,0.0,0.0,0.0,0.0,-0.0008990836694066319,-0.0004346500312850643,-0.0017370417423481354,0.0,0.0,0.0,0.0,0.0,0.0,0.0,0.0,0.0,0.007683502054531335,-0.1551342024306665,9.810303974072067,0.0,0.0,0.0,0.0,0.0,0.0,0.0,0.0,0.0
2025/05/06 15:28:07.766426053,1746538087,758197731,mA1/imu,0.7454527718601371,-0.6665579376168049,-0.0007754452678125133,0.000281799053141013,0.0,0.0,0.0,0.0,0.0,0.0,0.0,0.0,0.0,-0.0016189547667945056,4.220383625138364e-05,-0.0015188143354980211,0.0,0.0,0.0,0.0,0.0,0.0,0.0,0.0,0.0,0.010078370640822901,-0.04009744737868369,9.8082697125284,0.0,0.0,0.0,0.0,0.0,0.0,0.0,0.0,0.0
2025/05/06 15:28:07.817591102,1746538087,812309704,mA1/imu,0.745479598505154,-0.6665279113904529,-0.0007895051211313365,0.00029703827826678587,0.0,0.0,0.0,0.0,0.0,0.0,0.0,0.0,0.0,-0.0024392970425175034,-1.6629976789364274e-05,-0.0016411448946007793,0.0,0.0,0.0,0.0,0.0,0.0,0.0,0.0,0.0,0.007445075707704444,0.5386023457405974,9.810295401169814,0.0,0.0,0.0,0.0,0.0,0.0,0.0,0.0,0.0
2025/05/06 15:28:07.867679247,1746538087,863360697,mA1/imu,0.7455078756879401,-0.6664962623208001,-0.0008024189254052228,0.00030939218880271285,0.0,0.0,0.0,0.0,0.0,0.0,0.0,0.0,0.0,-0.0015761521921897823,-5.3212668911484205e-05,-0.0017638407740558633,0.0,0.0,0.0,0.0,0.0,0.0,0.0,0.0,0.0,0.007655744553725042,0.5852571214537073,9.81053569451483,0.0,0.0,0.0,0.0,0.0,0.0,0.0,0.0,0.0
2025/05/06 15:28:07.911236849,1746538087,905941613,mA1/imu,0.7455391061164621,-0.6664612868799485,-0.0008268830723365516,0.00033257446473274613,0.0,0.0,0.0,0.0,0.0,0.0,0.0,0.0,0.0,-0.0022321728493558696,-7.183632499142094e-05,-0.001910759285418166,0.0,0.0,0.0,0.0,0.0,0.0,0.0,0.0,0.0,-0.00014761674332512686,0.5370767321169762,9.81025237189071,0.0,0.0,0.0,0.0,0.0,0.0,0.0,0.0,0.0
2025/05/06 15:28:07.968324653,1746538087,963050925,mA1/imu,0.7455718838435977,-0.6664245901070764,-0.0008435821736664742,0.00034654240744772967,0.0,0.0,0.0,0.0,0.0,0.0,0.0,0.0,0.0,-0.0007202064538614359,-0.00017312048172318749,-0.001991853076549104,0.0,0.0,0.0,0.0,0.0,0.0,0.0,0.0,0.0,0.010260584211728083,-0.6285199647170551,9.809902327946075,0.0,0.0,0.0,0.0,0.0,0.0,0.0,0.0,0.0
2025/05/06 15:28:08.18383186,1746538088,8331524,mA1/imu,0.745605584014163,-0.6663868716452037,-0.0008537271753000453,0.0003486197468105203,0.0,0.0,0.0,0.0,0.0,0.0,0.0,0.0,0.0,2.9319140369199054e-05,-0.00029394795392663546,-0.0020445040128118973,0.0,0.0,0.0,0.0,0.0,0.0,0.0,0.0,0.0,0.010375785796748103,-0.11331964634765508,9.80976517048163,0.0,0.0,0.0,0.0,0.0,0.0,0.0,0.0,0.0
2025/05/06 15:28:08.66730933,1746538088,63714036,mA1/imu,0.7456396283989384,-0.666348762964225,-0.0008639273650230334,0.00035254311528879883,0.0,0.0,0.0,0.0,0.0,0.0,0.0,0.0,0.0,-0.0002957563684103161,-0.00017814183138305687,-0.002054693724012538,0.0,0.0,0.0,0.0,0.0,0.0,0.0,0.0,0.0,0.010048327237286898,0.12916826682986782,9.810891092423882,0.0,0.0,0.0,0.0,0.0,0.0,0.0,0.0,0.0
2025/05/06 15:28:08.113305810,1746538088,109440728,mA1/imu,0.7456743902647088,-0.6663098497179637,-0.0008731819583059513,0.0003541545527181328,0.0,0.0,0.0,0.0,0.0,0.0,0.0,0.0,0.0,-0.0010169951638559062,-0.00026161569401467134,-0.0021085386999293862,0.0,0.0,0.0,0.0,0.0,0.0,0.0,0.0,0.0,0.0102637732271332,0.4579985117063856,9.811074215552686,0.0,0.0,0.0,0.0,0.0,0.0,0.0,0.0,0.0
2025/05/06 15:28:08.172384295,1746538088,161807833,mA1/imu,0.7457074381462683,-0.6662728597661358,-0.0008761839925804538,0.00035402541706643705,0.0,0.0,0.0,0.0,0.0,0.0,0.0,0.0,0.0,0.0007534897336884294,-7.964472844924216e-05,-0.0019746418738642905,0.0,0.0,0.0,0.0,0.0,0.0,0.0,0.0,0.0,0.010209791777931472,-0.5839721101896957,9.80825230196645,0.0,0.0,0.0,0.0,0.0,0.0,0.0,0.0,0.0
2025/05/06 15:28:08.211167972,1746538088,209304442,mA1/imu,0.7457408467239661,-0.6662354783209455,-0.000871045013863101,0.00034385239092204236,0.0,0.0,0.0,0.0,0.0,0.0,0.0,0.0,0.0,0.0010456687453388913,-0.00014734573833035636,-0.002026838376023563,0.0,0.0,0.0,0.0,0.0,0.0,0.0,0.0,0.0,0.010155104428545373,-0.5804992567371375,9.80912669034236,0.0,0.0,0.0,0.0,0.0,0.0,0.0,0.0,0.0
2025/05/06 15:28:08.267530842,1746538088,260285067,mA1/imu,0.7457749633823639,-0.6661973045906334,-0.0008636937312172116,0.0003307285097927779,0.0,0.0,0.0,0.0,0.0,0.0,0.0,0.0,0.0,0.0008103073221412861,-9.314472959980484e-05,-0.0020572083838786646,0.0,0.0,0.0,0.0,0.0,0.0,0.0,0.0,0.0,0.007537541493233291,0.019785059678502217,9.81061799886375,0.0,0.0,0.0,0.0,0.0,0.0,0.0,0.0,0.0
2025/05/06 15:28:08.314967736,1746538088,312703012,mA1/imu,0.7458096898419865,-0.6661584387064159,-0.0008590322574866475,0.00032115667671897915,0.0,0.0,0.0,0.0,0.0,0.0,0.0,0.0,0.0,4.2684073724129754e-05,-0.00013635641444192869,-0.002106434020679975,0.0,0.0,0.0,0.0,0.0,0.0,0.0,0.0,0.0,0.010134967224438905,0.2666426121659452,9.810736426055584,0.0,0.0,0.0,0.0,0.0,0.0,0.0,0.0,0.0
2025/05/06 15:28:08.358021286,1746538088,356651351,mA1/imu,0.7458448379575124,-0.6661191056303463,-0.0008486844720538146,0.0003074752456489908,0.0,0.0,0.0,0.0,0.0,0.0,0.0,0.0,0.0,0.00013317013386480214,-4.163869487147053e-05,-0.002127115477983862,0.0,0.0,0.0,0.0,0.0,0.0,0.0,0.0,0.0,0.010186398165586101,-0.04785866810742077,9.810004152679188,0.0,0.0,0.0,0.0,0.0,0.0,0.0,0.0,0.0
2025/05/06 15:28:08.414805569,1746538088,407009264,mA1/imu,0.745880792047324,-0.6660788686332912,-0.0008365885698232852,0.0002914354409025757,0.0,0.0,0.0,0.0,0.0,0.0,0.0,0.0,0.0,0.0009559251337798749,-7.97631749068748e-05,-0.002180227093485525,0.0,0.0,0.0,0.0,0.0,0.0,0.0,0.0,0.0,0.009497874861519217,-0.6250672706772763,9.809700317743928,0.0,0.0,0.0,0.0,0.0,0.0,0.0,0.0,0.0
2025/05/06 15:28:08.468245178,1746538088,463182543,mA1/imu,0.7459142231319663,-0.6660414675101762,-0.0008126981177054058,0.00027351068691254033,0.0,0.0,0.0,0.0,0.0,0.0,0.0,0.0,0.0,0.0018764039809834533,0.0003598559107593006,-0.0019390967205782377,0.0,0.0,0.0,0.0,0.0,0.0,0.0,0.0,0.0,0.010436832808500785,-0.5694414039527829,9.808970126086269,0.0,0.0,0.0,0.0,0.0,0.0,0.0,0.0,0.0
2025/05/06 15:28:08.508787772,1746538088,506433076,mA1/imu,0.7459470603231374,-0.6660047207127023,-0.0007916652830789602,0.00026162902085859034,0.0,0.0,0.0,0.0,0.0,0.0,0.0,0.0,0.0,0.0005776196768394406,0.0002750086875125356,-0.0019926928724430535,0.0,0.0,0.0,0.0,0.0,0.0,0.0,0.0,0.0,0.010768521107525814,-0.09158707565458465,9.810090545296132,0.0,0.0,0.0,0.0,0.0,0.0,0.0,0.0,0.0
2025/05/06 15:28:08.568898256,1746538088,562073336,mA1/imu,0.7459807869586731,-0.6659669764398697,-0.0007690376621677143,0.00024568502407740147,0.0,0.0,0.0,0.0,0.0,0.0,0.0,0.0,0.0,-0.0004550021902975898,0.0002589361236722655,-0.002046749960288765,0.0,0.0,0.0,0.0,0.0,0.0,0.0,0.0,0.0,0.009253886307790327,0.5295553966423089,9.809771469645964,0.0,0.0,0.0,0.0,0.0,0.0,0.0,0.0,0.0
2025/05/06 15:28:08.615917111,1746538088,611060840,mA1/imu,0.7460154199888395,-0.6659282142520598,-0.0007451542164827385,0.0002265990555683118,0.0,0.0,0.0,0.0,0.0,0.0,0.0,0.0,0.0,0.0009240282790938596,0.0001706819520144863,-0.0021006014311688455,0.0,0.0,0.0,0.0,0.0,0.0,0.0,0.0,0.0,0.010126072355671666,0.02861077906674444,9.810257289059518,0.0,0.0,0.0,0.0,0.0,0.0,0.0,0.0,0.0
2025/05/06 15:28:08.665293063,1746538088,658996943,mA1/imu,0.7460474831441313,-0.6658923175462647,-0.000725254346654599,0.00021984836692084026,0.0,0.0,0.0,0.0,0.0,0.0,0.0,0.0,0.0,8.24908661973375e-05,0.0004951296074511581,-0.0018602382063408317,0.0,0.0,0.0,0.0,0.0,0.0,0.0,0.0,0.0,0.011365339734734983,0.5817253031263662,9.811636711132104,0.0,0.0,0.0,0.0,0.0,0.0,0.0,0.0,0.0
2025/05/06 15:28:08.720068737,1746538088,714375153,mA1/imu,0.7460789871441088,-0.6658570404028603,-0.0007074563699398897,0.0002149266126634296,0.0,0.0,0.0,0.0,0.0,0.0,0.0,0.0,0.0,0.0008268791263699983,0.00033527219559354766,-0.0019130117525778228,0.0,0.0,0.0,0.0,0.0,0.0,0.0,0.0,0.0,0.011015782920734171,0.014784430969693578,9.809340987295592,0.0,0.0,0.0,0.0,0.0,0.0,0.0,0.0,0.0
2025/05/06 15:28:08.771425371,1746538088,760322083,mA1/imu,0.7461109180591854,-0.6658212747945709,-0.0006944125138787779,0.00021395109834958324,0.0,0.0,0.0,0.0,0.0,0.0,0.0,0.0,0.0,0.0012273125875563856,0.0003159964935673664,-0.0019337049653090225,0.0,0.0,0.0,0.0,0.0,0.0,0.0,0.0,0.0,0.011061126274278434,-0.5744263197800131,9.809351148716347,0.0,0.0,0.0,0.0,0.0,0.0,0.0,0.0,0.0
2025/05/06 15:28:08.812267537,1746538088,807885578,mA1/imu,0.7461436388958214,-0.6657846167481877,-0.0006852532458787329,0.000211340388993347,0.0,0.0,0.0,0.0,0.0,0.0,0.0,0.0,0.0,-1.7879019317535303e-05,0.00012901393812462074,-0.0019864812979085724,0.0,0.0,0.0,0.0,0.0,0.0,0.0,0.0,0.0,0.011162060066101421,-0.01755705994116498,9.810102540303383,0.0,0.0,0.0,0.0,0.0,0.0,0.0,0.0,0.0
2025/05/06 15:28:08.861832241,1746538088,859284666,mA1/imu,0.7461772275435374,-0.6657469764819065,-0.0006819797232215704,0.0002080968451489517,0.0,0.0,0.0,0.0,0.0,0.0,0.0,0.0,0.0,-3.771257088714831e-05,-6.452235976957447e-05,-0.002038739730141238,0.0,0.0,0.0,0.0,0.0,0.0,0.0,0.0,0.0,0.010989575657171423,-0.30321981215244936,9.810080326639627,0.0,0.0,0.0,0.0,0.0,0.0,0.0,0.0,0.0
2025/05/06 15:28:08.912287485,1746538088,909057435,mA1/imu,0.7462116702691212,-0.6657083641146117,-0.000688302939189977,0.00020818520603950382,0.0,0.0,0.0,0.0,0.0,0.0,0.0,0.0,0.0,-0.0009149496845921002,-0.0002606308558245753,-0.002090223627092922,0.0,0.0,0.0,0.0,0.0,0.0,0.0,0.0,0.0,0.010899085461084158,0.028331735293759756,9.810852663984269,0.0,0.0,0.0,0.0,0.0,0.0,0.0,0.0,0.0
2025/05/06 15:28:08.962130273,1746538088,959969747,mA1/imu,0.7462456502879555,-0.6656702653290681,-0.0006958868855878999,0.0002074234244445973,0.0,0.0,0.0,0.0,0.0,0.0,0.0,0.0,0.0,-0.0010095163575294243,-0.0001690516967277888,-0.0019751451080750873,0.0,0.0,0.0,0.0,0.0,0.0,0.0,0.0,0.0,0.0075143838203365655,0.5885899807677822,9.81041157649927,0.0,0.0,0.0,0.0,0.0,0.0,0.0,0.0,0.0
2025/05/06 15:28:09.14608589,1746538089,12234134,mA1/imu,0.7462787848001726,-0.6656330978156259,-0.0007124359654062372,0.00021652839610487347,0.0,0.0,0.0,0.0,0.0,0.0,0.0,0.0,0.0,-0.0019242921834833643,-0.0003302858539314307,-0.002014495212048018,0.0,0.0,0.0,0.0,0.0,0.0,0.0,0.0,0.0,0.013258614717917182,0.5376151573843517,9.809968098592917,0.0,0.0,0.0,0.0,0.0,0.0,0.0,0.0,0.0
2025/05/06 15:28:09.58214663,1746538089,54945181,mA1/imu,0.7463012129455958,-0.665607940762939,-0.0007153388928693742,0.00023882948053255475,0.0,0.0,0.0,0.0,0.0,0.0,0.0,0.0,0.0,-0.0016827264034019163,0.0011018037265124799,-0.0008960803833759645,0.0,0.0,0.0,0.0,0.0,0.0,0.0,0.0,0.0,-0.03386997840403163,-0.17398345273657864,9.809437140622602,0.0,0.0,0.0,0.0,0.0,0.0,0.0,0.0,0.0
2025/05/06 15:28:09.108199271,1746538089,105019855,mA1/imu,0.7463103739891984,-0.6655976810399439,-0.0006935106243287761,0.00026779351318588214,0.0,0.0,0.0,0.0,0.0,0.0,0.0,0.0,0.0,-0.00044113358393911366,0.0015663170006751594,-0.0004109094178719695,0.0,0.0,0.0,0.0,0.0,0.0,0.0,0.0,0.0,-0.007770740912768644,0.01992988803821376,9.812959886484109,0.0,0.0,0.0,0.0,0.0,0.0,0.0,0.0,0.0
2025/05/06 15:28:09.159765916,1746538089,156836460,mA1/imu,0.7463071946774904,-0.6656012552545642,-0.0006633075362791081,0.000316542691524991,0.0,0.0,0.0,0.0,0.0,0.0,0.0,0.0,0.0,-0.0005626776811131147,0.0024809835656485427,0.0005016496226571685,0.0,0.0,0.0,0.0,0.0,0.0,0.0,0.0,0.0,-0.005473230683953789,0.6433674900412251,9.812900565221176,0.0,0.0,0.0,0.0,0.0,0.0,0.0,0.0,0.0
2025/05/06 15:28:09.212651140,1746538089,208874919,mA1/imu,0.7462963052750171,-0.6656134678785941,-0.0006313111136065426,0.000370887810933442,0.0,0.0,0.0,0.0,0.0,0.0,0.0,0.0,0.0,7.257256451351381e-05,0.002178199940035672,0.0006794445073643081,0.0,0.0,0.0,0.0,0.0,0.0,0.0,0.0,0.0,0.018377244148408058,0.055451277107828635,9.808964817149729,0.0,0.0,0.0,0.0,0.0,0.0,0.0,0.0,0.0
2025/05/06 15:28:09.265427987,1746538089,260690907,mA1/imu,0.7462746952641625,-0.665637697189284,-0.000591760629541362,0.0004302421246432043,0.0,0.0,0.0,0.0,0.0,0.0,0.0,0.0,0.0,0.00016404846723900733,0.0028731965741101467,0.0016008934443554495,0.0,0.0,0.0,0.0,0.0,0.0,0.0,0.0,0.0,0.0026123101016877646,0.058122511542550104,9.807810799056925,0.0,0.0,0.0,0.0,0.0,0.0,0.0,0.0,0.0
2025/05/06 15:28:09.312374752,1746538089,310490805,mA1/imu,0.7462455674022525,-0.6656703404589502,-0.0005583002972414048,0.0004891487847618244,0.0,0.0,0.0,0.0,0.0,0.0,0.0,0.0,0.0,-9.370714899281973e-05,0.0021959921277097025,0.0017776671255334163,0.0,0.0,0.0,0.0,0.0,0.0,0.0,0.0,0.0,0.02187472247187598,-0.4374642085976526,9.809095853277165,0.0,0.0,0.0,0.0,0.0,0.0,0.0,0.0,0.0
2025/05/06 15:28:09.364468349,1746538089,361826106,mA1/imu,0.7462129573026237,-0.6657068790795164,-0.0005367438606642837,0.0005342339474441772,0.0,0.0,0.0,0.0,0.0,0.0,0.0,0.0,0.0,-0.0006384076468666734,0.0015170406904270223,0.002038975375242016,0.0,0.0,0.0,0.0,0.0,0.0,0.0,0.0,0.0,0.022813827786956096,-0.24927063724069387,9.808766440148169,0.0,0.0,0.0,0.0,0.0,0.0,0.0,0.0,0.0
2025/05/06 15:28:09.413094025,1746538089,411827225,mA1/imu,0.7461795493958494,-0.6657443094245669,-0.0005325071395514987,0.000557645371333779,0.0,0.0,0.0,0.0,0.0,0.0,0.0,0.0,0.0,-0.0009083895368600245,0.00023254403128849735,0.001987529321419114,0.0,0.0,0.0,0.0,0.0,0.0,0.0,0.0,0.0,0.021654837828605968,-0.551969560243932,9.809509382779023,0.0,0.0,0.0,0.0,0.0,0.0,0.0,0.0,0.0
2025/05/06 15:28:09.466512336,1746538089,462907506,mA1/imu,0.7461434222904957,-0.6657847865639277,-0.0005433320568757596,0.0005622658872391243,0.0,0.0,0.0,0.0,0.0,0.0,0.0,0.0,0.0,-0.0009687794751917694,-0.00048482584387784605,0.0022935980852183267,0.0,0.0,0.0,0.0,0.0,0.0,0.0,0.0,0.0,0.004771613162467421,-0.03529310679825856,9.809521128907964,0.0,0.0,0.0,0.0,0.0,0.0,0.0,0.0,0.0
2025/05/06 15:28:09.506417989,1746538089,503662194,mA1/imu,0.7461047863892183,-0.6658280751151882,-0.0005679039886630943,0.0005473578007963157,0.0,0.0,0.0,0.0,0.0,0.0,0.0,0.0,0.0,-0.0001634172731860703,-0.0016075580437571884,0.002258443776535052,0.0,0.0,0.0,0.0,0.0,0.0,0.0,0.0,0.0,0.020536358388922427,0.01250941486900506,9.806374345061458,0.0,0.0,0.0,0.0,0.0,0.0,0.0,0.0,0.0
2025/05/06 15:28:09.557359678,1746538089,555485966,mA1/imu,0.7460684375286627,-0.665868781888203,-0.0006187993020643215,0.0005185727379012543,0.0,0.0,0.0,0.0,0.0,0.0,0.0,0.0,0.0,-0.001014519775184564,-0.0027106633199941825,0.002158424484529823,0.0,0.0,0.0,0.0,0.0,0.0,0.0,0.0,0.0,0.019447089774343975,0.5462059265920001,9.809242813286678,0.0,0.0,0.0,0.0,0.0,0.0,0.0,0.0,0.0
2025/05/06 15:28:09.607138228,1746538089,605303032,mA1/imu,0.7460328569350168,-0.6659086285359503,-0.0006785969543623971,0.00046294807499298044,0.0,0.0,0.0,0.0,0.0,0.0,0.0,0.0,0.0,0.0005432932126355095,-0.00360354074743651,0.002118504020152953,0.0,0.0,0.0,0.0,0.0,0.0,0.0,0.0,0.0,0.018046104826812393,0.050615426266756455,9.81002727624856,0.0,0.0,0.0,0.0,0.0,0.0,0.0,0.0,0.0
2025/05/06 15:28:09.657525546,1746538089,656352757,mA1/imu,0.7459941392989102,-0.6659519476787334,-0.0007589534126487398,0.0004141307733162184,0.0,0.0,0.0,0.0,0.0,0.0,0.0,0.0,0.0,0.001464052034548716,-0.003836968297549621,0.0024124376244348093,0.0,0.0,0.0,0.0,0.0,0.0,0.0,0.0,0.0,0.01698383197228208,-0.5217367481319743,9.80857550218013,0.0,0.0,0.0,0.0,0.0,0.0,0.0,0.0,0.0
2025/05/06 15:28:09.713308773,1746538089,706286033,mA1/imu,0.7459542720884069,-0.6659965449766879,-0.0008388365369906297,0.0003498362956166985,0.0,0.0,0.0,0.0,0.0,0.0,0.0,0.0,0.0,-0.0017410209410710703,-0.00425302081928338,0.0023757187506331556,0.0,0.0,0.0,0.0,0.0,0.0,0.0,0.0,0.0,0.01702876877182931,-0.12422249409443072,9.811015446001047,0.0,0.0,0.0,0.0,0.0,0.0,0.0,0.0,0.0
2025/05/06 15:28:09.761215320,1746538089,759007441,mA1/imu,0.7459140214601504,-0.666041560134323,-0.0009155219006367819,0.00027309821071886336,0.0,0.0,0.0,0.0,0.0,0.0,0.0,0.0,0.0,-0.0015329073784380617,-0.004363531562566751,0.002413213754887363,0.0,0.0,0.0,0.0,0.0,0.0,0.0,0.0,0.0,0.015745323354251925,0.508767405148343,9.811888281900286,0.0,0.0,0.0,0.0,0.0,0.0,0.0,0.0,0.0
2025/05/06 15:28:09.813825716,1746538089,811452395,mA1/imu,0.7458739813003451,-0.6660863231454532,-0.000988602845978428,0.00019183888129999587,0.0,0.0,0.0,0.0,0.0,0.0,0.0,0.0,0.0,-0.0003888570790114677,-0.004292870313234359,0.002388627213408969,0.0,0.0,0.0,0.0,0.0,0.0,0.0,0.0,0.0,0.014767294499217402,0.41989938582634784,9.809834406693918,0.0,0.0,0.0,0.0,0.0,0.0,0.0,0.0,0.0
2025/05/06 15:28:09.865127156,1746538089,863371092,mA1/imu,0.7458356557546522,-0.6661291420294878,-0.0010614581556797585,0.00011853552345791023,0.0,0.0,0.0,0.0,0.0,0.0,0.0,0.0,0.0,0.0003053324186186259,-0.0039763026106433945,0.002254484887915092,0.0,0.0,0.0,0.0,0.0,0.0,0.0,0.0,0.0,0.01257299156601662,-0.00673753161565294,9.810648364044702,0.0,0.0,0.0,0.0,0.0,0.0,0.0,0.0,0.0
2025/05/06 15:28:09.905726723,1746538089,904555785,mA1/imu,0.745798277502129,-0.6661708984722572,-0.0011228199408073456,5.078290478444526e-05,0.0,0.0,0.0,0.0,0.0,0.0,0.0,0.0,0.0,0.0003063362393970509,-0.0033915472215500157,0.0022278544997198844,0.0,0.0,0.0,0.0,0.0,0.0,0.0,0.0,0.0,0.012176585599587866,-0.6417305061392373,9.810616617941935,0.0,0.0,0.0,0.0,0.0,0.0,0.0,0.0,0.0
2025/05/06 15:28:09.960745234,1746538089,957635211,mA1/imu,0.7457581265323879,-0.6662157903060546,-0.0011564332995277812,-1.0945589639769246e-05,0.0,0.0,0.0,0.0,0.0,0.0,0.0,0.0,0.0,0.0023257779701158082,-0.002212392680782816,0.002477441099247504,0.0,0.0,0.0,0.0,0.0,0.0,0.0,0.0,0.0,0.01198209416063075,-0.5087185771248082,9.810316401106054,0.0,0.0,0.0,0.0,0.0,0.0,0.0,0.0,0.0
2025/05/06 15:28:10.18125983,1746538090,12936274,mA1/imu,0.7457170647646302,-0.6662616995351911,-0.0011854175970627612,-4.2853515584983376e-05,0.0,0.0,0.0,0.0,0.0,0.0,0.0,0.0,0.0,0.0009291942050860158,-0.001386784508897056,0.0024531488527268965,0.0,0.0,0.0,0.0,0.0,0.0,0.0,0.0,0.0,0.01307327487229077,0.019214351354157753,9.810479637588555,0.0,0.0,0.0,0.0,0.0,0.0,0.0,0.0,0.0
2025/05/06 15:28:10.58966269,1746538090,54381651,mA1/imu,0.7456739742014071,-0.6663099200921665,-0.001187717010853251,-6.255998670226092e-05,0.0,0.0,0.0,0.0,0.0,0.0,0.0,0.0,0.0,-0.0002597869787430802,-0.00019070722775882843,0.0026067366916221477,0.0,0.0,0.0,0.0,0.0,0.0,0.0,0.0,0.0,0.01349802603993321,-0.0634314951381455,9.810968875680205,0.0,0.0,0.0,0.0,0.0,0.0,0.0,0.0,0.0
2025/05/06 15:28:10.105832629,1746538090,104596825,mA1/imu,0.7456307439437757,-0.6663583314567126,-0.0011672506258001054,-7.28701177131185e-05,0.0,0.0,0.0,0.0,0.0,0.0,0.0,0.0,0.0,0.001628216217917279,0.0006794223882266098,0.002588657558047726,0.0,0.0,0.0,0.0,0.0,0.0,0.0,0.0,0.0,0.012934300309129444,-0.5593691999625436,9.810060266960804,0.0,0.0,0.0,0.0,0.0,0.0,0.0,0.0,0.0
2025/05/06 15:28:10.157422499,1746538090,155547530,mA1/imu,0.7455878160859557,-0.6664064126177712,-0.0011393881894846344,-5.933499507485571e-05,0.0,0.0,0.0,0.0,0.0,0.0,0.0,0.0,0.0,0.001751929412502705,0.0015061640046932136,0.0025724763875384256,0.0,0.0,0.0,0.0,0.0,0.0,0.0,0.0,0.0,0.013418106404642274,-0.5474462596730374,9.809085615061978,0.0,0.0,0.0,0.0,0.0,0.0,0.0,0.0,0.0
2025/05/06 15:28:10.209745495,1746538090,206076675,mA1/imu,0.7455451662495444,-0.666454207860413,-0.0010919725439260217,-3.8769213584621256e-05,0.0,0.0,0.0,0.0,0.0,0.0,0.0,0.0,0.0,0.000361670154906795,0.002242862153618082,0.002557642709186966,0.0,0.0,0.0,0.0,0.0,0.0,0.0,0.0,0.0,0.014322497015431212,0.3974067147432523,9.811231330289186,0.0,0.0,0.0,0.0,0.0,0.0,0.0,0.0,0.0
2025/05/06 15:28:10.261365148,1746538090,257956775,mA1/imu,0.7455024256098717,-0.6665021046455087,-0.0010382157230299784,4.584469708984675e-06,0.0,0.0,0.0,0.0,0.0,0.0,0.0,0.0,0.0,-0.0004399951641514088,0.0030461133278022346,0.002572667217012687,0.0,0.0,0.0,0.0,0.0,0.0,0.0,0.0,0.0,0.015497204327359217,-0.058589560923796094,9.810097331756896,0.0,0.0,0.0,0.0,0.0,0.0,0.0,0.0,0.0
2025/05/06 15:28:10.311123503,1746538090,308112931,mA1/imu,0.7454597396159198,-0.666549952552985,-0.0009669515091689667,4.866371898956147e-05,0.0,0.0,0.0,0.0,0.0,0.0,0.0,0.0,0.0,0.0002445829093277115,0.0034450076385643858,0.0025628815503050493,0.0,0.0,0.0,0.0,0.0,0.0,0.0,0.0,0.0,0.015275774685683979,-0.0027318672569275563,9.808826002201894,0.0,0.0,0.0,0.0,0.0,0.0,0.0,0.0,0.0
2025/05/06 15:28:10.361157029,1746538090,358913820,mA1/imu,0.7454171760381866,-0.6665976427253927,-0.000897416183360902,0.00010499713646770027,0.0,0.0,0.0,0.0,0.0,0.0,0.0,0.0,0.0,0.00012928823206918613,0.0036312619092891923,0.0025567109549292414,0.0,0.0,0.0,0.0,0.0,0.0,0.0,0.0,0.0,0.016467930779678973,-0.003943109247051503,9.810958639728856,0.0,0.0,0.0,0.0,0.0,0.0,0.0,0.0,0.0
2025/05/06 15:28:10.413619410,1746538090,409097392,mA1/imu,0.7453747042011091,-0.6666452104674717,-0.0008286179493308733,0.0001645909580113978,0.0,0.0,0.0,0.0,0.0,0.0,0.0,0.0,0.0,1.368273260795498e-05,0.0036162818285801236,0.002551898352430961,0.0,0.0,0.0,0.0,0.0,0.0,0.0,0.0,0.0,0.016504680852589545,-0.00309889093874313,9.810349391328302,0.0,0.0,0.0,0.0,0.0,0.0,0.0,0.0,0.0
2025/05/06 15:28:10.465790690,1746538090,462176471,mA1/imu,0.7453319098877027,-0.6666931168567193,-0.0007621135405129216,0.00022632271962451486,0.0,0.0,0.0,0.0,0.0,0.0,0.0,0.0,0.0,-0.00011232797878577976,0.0035452451044671947,0.0025753006249547216,0.0,0.0,0.0,0.0,0.0,0.0,0.0,0.0,0.0,0.017751392107198387,-0.0026574050366547104,9.8083182561405,0.0,0.0,0.0,0.0,0.0,0.0,0.0,0.0,0.0
2025/05/06 15:28:10.539869682,1746538090,514291394,mA1/imu,0.7452890565887254,-0.6667410665170791,-0.0007016892684772466,0.0002828089918662715,0.0,0.0,0.0,0.0,0.0,0.0,0.0,0.0,0.0,0.00029103542211427873,0.003119214097271624,0.0025749654979937216,0.0,0.0,0.0,0.0,0.0,0.0,0.0,0.0,0.0,0.017536331260138222,-0.279218919751586,9.807677258235806,0.0,0.0,0.0,0.0,0.0,0.0,0.0,0.0,0.0
2025/05/06 15:28:10.567492913,1746538090,562910007,mA1/imu,0.7452461510916207,-0.666789048889461,-0.0006538271800747267,0.0003332780100872841,0.0,0.0,0.0,0.0,0.0,0.0,0.0,0.0,0.0,-0.0003873453639254835,0.0025152381085749667,0.0025778865302260204,0.0,0.0,0.0,0.0,0.0,0.0,0.0,0.0,0.0,0.018143154472594736,0.1876395244553164,9.809900488396474,0.0,0.0,0.0,0.0,0.0,0.0,0.0,0.0,0.0
2025/05/06 15:28:10.608181923,1746538090,606056203,mA1/imu,0.7452031846151189,-0.6668370791844632,-0.0006195288629195981,0.0003736953398632163,0.0,0.0,0.0,0.0,0.0,0.0,0.0,0.0,0.0,-0.0013345069928051183,0.0018111701419842078,0.0025804385992064193,0.0,0.0,0.0,0.0,0.0,0.0,0.0,0.0,0.0,0.018160955715332522,0.5624943807561436,9.809830361955743,0.0,0.0,0.0,0.0,0.0,0.0,0.0,0.0,0.0
2025/05/06 15:28:10.658575232,1746538090,656968072,mA1/imu,0.7451640526046138,-0.6668808063232289,-0.0006053796702681565,0.0003979685957341613,0.0,0.0,0.0,0.0,0.0,0.0,0.0,0.0,0.0,-0.00014514003659156968,0.0006691748571191305,0.002254238972847977,0.0,0.0,0.0,0.0,0.0,0.0,0.0,0.0,0.0,0.016786454832617384,0.020490022844998467,9.810705660309617,0.0,0.0,0.0,0.0,0.0,0.0,0.0,0.0,0.0
2025/05/06 15:28:10.710501142,1746538090,707603518,mA1/imu,0.7451264203161442,-0.6669228443313593,-0.0006083500877220491,0.00040910388564100245,0.0,0.0,0.0,0.0,0.0,0.0,0.0,0.0,0.0,-0.0007044221516898974,-0.00010399316404968306,0.002259790093246424,0.0,0.0,0.0,0.0,0.0,0.0,0.0,0.0,0.0,0.01688116612428749,0.11096426052708193,9.808724578854932,0.0,0.0,0.0,0.0,0.0,0.0,0.0,0.0,0.0
2025/05/06 15:28:10.762797674,1746538090,760491528,mA1/imu,0.7450858352718149,-0.6669681758328725,-0.0006187693424745412,0.000409423952764196,0.0,0.0,0.0,0.0,0.0,0.0,0.0,0.0,0.0,-0.00011580101217483908,-0.0005662354686046914,0.002470794713189138,0.0,0.0,0.0,0.0,0.0,0.0,0.0,0.0,0.0,0.016801626915428695,0.021806397950994486,9.808480636435725,0.0,0.0,0.0,0.0,0.0,0.0,0.0,0.0,0.0
2025/05/06 15:28:10.812301276,1746538090,810375108,mA1/imu,0.7450444832652625,-0.6670143507801656,-0.0006438814798960931,0.00039903126701523186,0.0,0.0,0.0,0.0,0.0,0.0,0.0,0.0,0.0,-0.0006265623559782354,-0.0013203624411601755,0.002483988696264992,0.0,0.0,0.0,0.0,0.0,0.0,0.0,0.0,0.0,0.016962113620694358,0.6139517322047363,9.8099422368676,0.0,0.0,0.0,0.0,0.0,0.0,0.0,0.0,0.0
2025/05/06 15:28:10.864168185,1746538090,861306886,mA1/imu,0.7450043293114816,-0.6670591741370646,-0.000682249391198675,0.0003768852542709477,0.0,0.0,0.0,0.0,0.0,0.0,0.0,0.0,0.0,0.0006073186301463867,-0.0019870660556810258,0.0023664542075808657,0.0,0.0,0.0,0.0,0.0,0.0,0.0,0.0,0.0,0.014547194842417337,-0.02799894258055396,9.80923110920055,0.0,0.0,0.0,0.0,0.0,0.0,0.0,0.0,0.0
2025/05/06 15:28:10.914228200,1746538090,911200528,mA1/imu,0.7449647357034604,-0.6671033520155593,-0.0007338774235664856,0.00034887219064299116,0.0,0.0,0.0,0.0,0.0,0.0,0.0,0.0,0.0,-0.0002473433115920809,-0.0024845834937323283,0.002374575043310356,0.0,0.0,0.0,0.0,0.0,0.0,0.0,0.0,0.0,0.014966029042210552,0.0010538564888000618,9.810886402159634,0.0,0.0,0.0,0.0,0.0,0.0,0.0,0.0,0.0
2025/05/06 15:28:10.967341252,1746538090,962347691,mA1/imu,0.7449356345471237,-0.6671357881746511,-0.0008083341541382572,0.0002951514126161159,0.0,0.0,0.0,0.0,0.0,0.0,0.0,0.0,0.0,-0.0009911633608565874,-0.004161754443571336,0.001471240255447895,0.0,0.0,0.0,0.0,0.0,0.0,0.0,0.0,0.0,0.010750065834582687,-0.044701016712405436,9.81174304506154,0.0,0.0,0.0,0.0,0.0,0.0,0.0,0.0,0.0
2025/05/06 15:28:11.16451989,1746538091,13175136,mA1/imu,0.7449109583681044,-0.6671632675006044,-0.0008870895306116856,0.00022731738610841764,0.0,0.0,0.0,0.0,0.0,0.0,0.0,0.0,0.0,-0.000721748812547075,-0.004117201879613582,0.0014746969717277958,0.0,0.0,0.0,0.0,0.0,0.0,0.0,0.0,0.0,0.010001651876420924,-0.08360876872023323,9.810094778233433,0.0,0.0,0.0,0.0,0.0,0.0,0.0,0.0,0.0
2025/05/06 15:28:11.56284049,1746538091,54359808,mA1/imu,0.7448862761415854,-0.6671907417917825,-0.0009610958155961372,0.00016117718833963152,0.0,0.0,0.0,0.0,0.0,0.0,0.0,0.0,0.0,-0.000598737523102301,-0.00383713216384623,0.0014739109126020282,0.0,0.0,0.0,0.0,0.0,0.0,0.0,0.0,0.0,0.00910243779960682,-0.0370514608158043,9.809865278562272,0.0,0.0,0.0,0.0,0.0,0.0,0.0,0.0,0.0
2025/05/06 15:28:11.106742210,1746538091,104101820,mA1/imu,0.7448616092787297,-0.6672182026707028,-0.0010217490680203534,9.52702478408938e-05,0.0,0.0,0.0,0.0,0.0,0.0,0.0,0.0,0.0,-0.0007099188973157107,-0.003346234973825244,0.0014723682108797851,0.0,0.0,0.0,0.0,0.0,0.0,0.0,0.0,0.0,0.008778757527402457,0.5765491145393243,9.811302461020382,0.0,0.0,0.0,0.0,0.0,0.0,0.0,0.0,0.0
2025/05/06 15:28:11.158712780,1746538091,156808136,mA1/imu,0.7448365050534065,-0.6672461607075362,-0.0010677307737808844,4.137480314290434e-05,0.0,0.0,0.0,0.0,0.0,0.0,0.0,0.0,0.0,0.0008666162188884726,-0.002459567919714008,0.0015059704899263167,0.0,0.0,0.0,0.0,0.0,0.0,0.0,0.0,0.0,0.007753663996325803,0.04978561368563867,9.810357293907073,0.0,0.0,0.0,0.0,0.0,0.0,0.0,0.0,0.0
2025/05/06 15:28:11.208909655,1746538091,205521367,mA1/imu,0.7448113667277536,-0.6672741662013063,-0.0011023090263412975,5.319576727458699e-06,0.0,0.0,0.0,0.0,0.0,0.0,0.0,0.0,0.0,0.0011069411083128148,-0.0016764217043935934,0.0015024719912372243,0.0,0.0,0.0,0.0,0.0,0.0,0.0,0.0,0.0,0.008441283998876541,0.054320736249154386,9.812629463427845,0.0,0.0,0.0,0.0,0.0,0.0,0.0,0.0,0.0
2025/05/06 15:28:11.262843644,1746538091,257408491,mA1/imu,0.7447863136061416,-0.6673021008395078,-0.001119348784289637,-1.8397083968037242e-05,0.0,0.0,0.0,0.0,0.0,0.0,0.0,0.0,0.0,0.0013835658298050433,-0.0007921865310381841,0.0014984121720900653,0.0,0.0,0.0,0.0,0.0,0.0,0.0,0.0,0.0,0.0077742850441573155,-0.5603221816131672,9.811657289085286,0.0,0.0,0.0,0.0,0.0,0.0,0.0,0.0,0.0
2025/05/06 15:28:11.307500148,1746538091,306496682,mA1/imu,0.7447613535767982,-0.6673299596762543,-0.0011181767914944685,-2.8593833492651676e-05,0.0,0.0,0.0,0.0,0.0,0.0,0.0,0.0,0.0,-7.303144822120902e-05,0.00012651855756481807,0.0014933872496242992,0.0,0.0,0.0,0.0,0.0,0.0,0.0,0.0,0.0,0.008282967823969523,-0.05024243470338999,9.80990699584911,0.0,0.0,0.0,0.0,0.0,0.0,0.0,0.0,0.0
2025/05/06 15:28:11.359594470,1746538091,357846204,mA1/imu,0.7447378516036538,-0.6673562284504212,-0.0010935135396309963,-3.106995381236513e-05,0.0,0.0,0.0,0.0,0.0,0.0,0.0,0.0,0.0,-0.00015983135743398124,0.0010355399081122128,0.0013881574457026721,0.0,0.0,0.0,0.0,0.0,0.0,0.0,0.0,0.0,0.008316863212665771,-0.048375994625878826,9.809944628264457,0.0,0.0,0.0,0.0,0.0,0.0,0.0,0.0,0.0
2025/05/06 15:28:11.420127470,1746538091,412637879,mA1/imu,0.7447148733042634,-0.667381942133897,-0.0010489373873648093,-2.287705958562737e-05,0.0,0.0,0.0,0.0,0.0,0.0,0.0,0.0,0.0,-0.0001536603689095188,0.0018880702342491942,0.0013737711728560834,0.0,0.0,0.0,0.0,0.0,0.0,0.0,0.0,0.0,0.008231065008668641,0.5764180953047797,9.811013289371333,0.0,0.0,0.0,0.0,0.0,0.0,0.0,0.0,0.0
2025/05/06 15:28:11.458343823,1746538091,455048600,mA1/imu,0.7446927218133789,-0.6674067402887944,-0.000996536427378748,3.22742325883571e-06,0.0,0.0,0.0,0.0,0.0,0.0,0.0,0.0,0.0,-0.0001062133467252886,0.0025247834525687738,0.0013187031742822417,0.0,0.0,0.0,0.0,0.0,0.0,0.0,0.0,0.0,0.009237880984156418,0.5804482166694016,9.81053078644308,0.0,0.0,0.0,0.0,0.0,0.0,0.0,0.0,0.0
2025/05/06 15:28:11.506965591,1746538091,504777338,mA1/imu,0.744670924547972,-0.667431156753192,-0.0009293877958776029,3.696335241373122e-05,0.0,0.0,0.0,0.0,0.0,0.0,0.0,0.0,0.0,-9.796678928863249e-06,0.0031235771403716754,0.0013051625939484272,0.0,0.0,0.0,0.0,0.0,0.0,0.0,0.0,0.0,0.009832736833564597,0.5851281496069706,9.81099982689306,0.0,0.0,0.0,0.0,0.0,0.0,0.0,0.0,0.0
2025/05/06 15:28:11.558748355,1746538091,555684613,mA1/imu,0.7446481588719573,-0.6674566584406786,-0.0008499898911960501,7.816004368285553e-05,0.0,0.0,0.0,0.0,0.0,0.0,0.0,0.0,0.0,0.0004243539648368808,0.0037253908835875134,0.0014449281171684512,0.0,0.0,0.0,0.0,0.0,0.0,0.0,0.0,0.0,0.007720169311309668,0.6208484109550149,9.809401501663334,0.0,0.0,0.0,0.0,0.0,0.0,0.0,0.0,0.0
2025/05/06 15:28:11.607963696,1746538091,605497158,mA1/imu,0.744623952739098,-0.6674837470988431,-0.0007731068141946556,0.0001366453187308197,0.0,0.0,0.0,0.0,0.0,0.0,0.0,0.0,0.0,0.0013160582271605143,0.003868590606353772,0.001452576129452862,0.0,0.0,0.0,0.0,0.0,0.0,0.0,0.0,0.0,0.01212932061502435,-0.57186876520465,9.809470774191212,0.0,0.0,0.0,0.0,0.0,0.0,0.0,0.0,0.0
2025/05/06 15:28:11.659513278,1746538091,657515341,mA1/imu,0.7445998554474497,-0.6675107022278789,-0.0006935695696345383,0.00019141612556930167,0.0,0.0,0.0,0.0,0.0,0.0,0.0,0.0,0.0,0.0006780051206945288,0.0037592754005461027,0.0014455552134884386,0.0,0.0,0.0,0.0,0.0,0.0,0.0,0.0,0.0,0.013680428743573413,-0.607761503506032,9.80965781600263,0.0,0.0,0.0,0.0,0.0,0.0,0.0,0.0,0.0
2025/05/06 15:28:11.710227911,1746538091,707994663,mA1/imu,0.744575865318786,-0.6675375145248431,-0.0006221596191165043,0.00024577262722738104,0.0,0.0,0.0,0.0,0.0,0.0,0.0,0.0,0.0,-0.0006395880307786898,0.0034424113743146485,0.0014378763104717837,0.0,0.0,0.0,0.0,0.0,0.0,0.0,0.0,0.0,0.013017649391003638,-0.05611769048050363,9.808759873570219,0.0,0.0,0.0,0.0,0.0,0.0,0.0,0.0,0.0
2025/05/06 15:28:11.761418691,1746538091,759006598,mA1/imu,0.7445533394037018,-0.667562671945396,-0.0005621672480183243,0.0002962699861840713,0.0,0.0,0.0,0.0,0.0,0.0,0.0,0.0,0.0,-0.0008523678672859751,0.0029205676526795803,0.001330587641316991,0.0,0.0,0.0,0.0,0.0,0.0,0.0,0.0,0.0,0.014256138248327463,-0.059265730334644544,9.80810150788157,0.0,0.0,0.0,0.0,0.0,0.0,0.0,0.0,0.0
2025/05/06 15:28:11.811831997,1746538091,809459494,mA1/imu,0.7445313375731105,-0.6675872453739524,-0.0005020939637019189,0.00032417165991769633,0.0,0.0,0.0,0.0,0.0,0.0,0.0,0.0,0.0,-5.418400135776863e-05,0.0022861139770750123,0.0013134211468890918,0.0,0.0,0.0,0.0,0.0,0.0,0.0,0.0,0.0,0.013140938078691836,0.6377277996323952,9.809654518047068,0.0,0.0,0.0,0.0,0.0,0.0,0.0,0.0,0.0
2025/05/06 15:28:11.862884661,1746538091,860433822,mA1/imu,0.7445095955170439,-0.6676114878519307,-0.0004790885603069344,0.00036598542405479945,0.0,0.0,0.0,0.0,0.0,0.0,0.0,0.0,0.0,0.001835588370834883,0.001456491219918982,0.001297647191499755,0.0,0.0,0.0,0.0,0.0,0.0,0.0,0.0,0.0,0.013340972747122083,-0.47599193178048604,9.807383612749042,0.0,0.0,0.0,0.0,0.0,0.0,0.0,0.0,0.0
2025/05/06 15:28:11.913011197,1746538091,910275227,mA1/imu,0.7444881128121066,-0.6676354373173614,-0.0004690166648551816,0.00039082335098411254,0.0,0.0,0.0,0.0,0.0,0.0,0.0,0.0,0.0,0.0001658179147904701,0.0006115955545949014,0.0012807131098425356,0.0,0.0,0.0,0.0,0.0,0.0,0.0,0.0,0.0,0.014452652295662434,0.04403579895595984,9.810013262271754,0.0,0.0,0.0,0.0,0.0,0.0,0.0,0.0,0.0
2025/05/06 15:28:11.965720299,1746538091,962001505,mA1/imu,0.7444668964097376,-0.6676590819738212,-0.00047709855005051747,0.000403466108526538,0.0,0.0,0.0,0.0,0.0,0.0,0.0,0.0,0.0,0.00044316734993854283,-0.00025734284037745646,0.0012645106584625275,0.0,0.0,0.0,0.0,0.0,0.0,0.0,0.0,0.0,0.01343612588769727,-0.5533473259478371,9.809889429600572,0.0,0.0,0.0,0.0,0.0,0.0,0.0,0.0,0.0
2025/05/06 15:28:12.16266676,1746538092,12840291,mA1/imu,0.7444460400160716,-0.6676823177127718,-0.0005031783449998973,0.0004036454433239889,0.0,0.0,0.0,0.0,0.0,0.0,0.0,0.0,0.0,-0.0003968014345916149,-0.0011571217341890285,0.001215614368256308,0.0,0.0,0.0,0.0,0.0,0.0,0.0,0.0,0.0,0.021896670561569936,0.021514162614973145,9.808744912651031,0.0,0.0,0.0,0.0,0.0,0.0,0.0,0.0,0.0
2025/05/06 15:28:12.68290335,1746538092,63596818,mA1/imu,0.7444040630429176,-0.6677290955137001,-0.0005113570527302825,0.00042946899378112544,0.0,0.0,0.0,0.0,0.0,0.0,0.0,0.0,0.0,-0.00167732969083868,0.0014161539011756364,0.0034004624711924743,0.0,0.0,0.0,0.0,0.0,0.0,0.0,0.0,0.0,-0.09293760103162986,-0.06416768355587069,9.8028064430164,0.0,0.0,0.0,0.0,0.0,0.0,0.0,0.0,0.0
2025/05/06 15:28:12.114257516,1746538092,112629720,mA1/imu,0.7443248635983902,-0.6678173590475416,-0.0004761095745023392,0.0004956850591508639,0.0,0.0,0.0,0.0,0.0,0.0,0.0,0.0,0.0,-0.003459062378161187,0.0037082200511886374,0.005602840198636335,0.0,0.0,0.0,0.0,0.0,0.0,0.0,0.0,0.0,-0.0829315813244662,0.45792345143160945,9.811808766878801,0.0,0.0,0.0,0.0,0.0,0.0,0.0,0.0,0.0
2025/05/06 15:28:12.160628965,1746538092,154360869,mA1/imu,0.7442175518659719,-0.66793693300651,-0.00041149427971307154,0.0005654139492255386,0.0,0.0,0.0,0.0,0.0,0.0,0.0,0.0,0.0,-0.001352868628067268,0.0037596468768554036,0.006834492527104983,0.0,0.0,0.0,0.0,0.0,0.0,0.0,0.0,0.0,-0.017591276591417643,0.6247960860019643,9.808789388030315,0.0,0.0,0.0,0.0,0.0,0.0,0.0,0.0,0.0
2025/05/06 15:28:12.207359751,1746538092,205108096,mA1/imu,0.7440935112429113,-0.6680750645850022,-0.00036878514328700363,0.0006469957176092161,0.0,0.0,0.0,0.0,0.0,0.0,0.0,0.0,0.0,-0.0006131982650624494,0.0032181241070046987,0.00781663006745548,0.0,0.0,0.0,0.0,0.0,0.0,0.0,0.0,0.0,-0.017215575021159356,0.3967705228098111,9.8134182601926,0.0,0.0,0.0,0.0,0.0,0.0,0.0,0.0,0.0
2025/05/06 15:28:12.259002567,1746538092,256588693,mA1/imu,0.7439532673117103,-0.6682311761829955,-0.00033976433940923617,0.000718187659896262,0.0,0.0,0.0,0.0,0.0,0.0,0.0,0.0,0.0,-0.0004756499972844228,0.0022511397008486995,0.008697550653106598,0.0,0.0,0.0,0.0,0.0,0.0,0.0,0.0,0.0,0.025907384361045532,0.05488422825969412,9.810793550293983,0.0,0.0,0.0,0.0,0.0,0.0,0.0,0.0,0.0
2025/05/06 15:28:12.307387957,1746538092,306269914,mA1/imu,0.7438066410152506,-0.6683943327588776,-0.00034781737768726107,0.000758775656363527,0.0,0.0,0.0,0.0,0.0,0.0,0.0,0.0,0.0,-0.0009649340712036404,-0.0001584303871184526,0.008803400641308022,0.0,0.0,0.0,0.0,0.0,0.0,0.0,0.0,0.0,0.036742983038374616,0.019559210703186457,9.808895290539352,0.0,0.0,0.0,0.0,0.0,0.0,0.0,0.0,0.0
2025/05/06 15:28:12.361279518,1746538092,359456105,mA1/imu,0.7436587410739777,-0.668558847100303,-0.0004038653309895051,0.0007626801259340352,0.0,0.0,0.0,0.0,0.0,0.0,0.0,0.0,0.0,-0.0023461826450772248,-0.0025097513928538802,0.0088783617267231,0.0,0.0,0.0,0.0,0.0,0.0,0.0,0.0,0.0,0.03607171371219939,-0.07710884315896119,9.81124636969786,0.0,0.0,0.0,0.0,0.0,0.0,0.0,0.0,0.0
2025/05/06 15:28:12.412183647,1746538092,409256783,mA1/imu,0.7435098846203199,-0.6687243720587136,-0.0004950931867786787,0.0007215048815828384,0.0,0.0,0.0,0.0,0.0,0.0,0.0,0.0,0.0,-0.002372341776550749,-0.004638931294718102,0.008925768685580647,0.0,0.0,0.0,0.0,0.0,0.0,0.0,0.0,0.0,0.03273173682673522,-0.07932892700619312,9.81220806939677,0.0,0.0,0.0,0.0,0.0,0.0,0.0,0.0,0.0
2025/05/06 15:28:12.462302690,1746538092,460817185,mA1/imu,0.7433597442772816,-0.6688912456200258,-0.0006166431385604813,0.0006417726582516379,0.0,0.0,0.0,0.0,0.0,0.0,0.0,0.0,0.0,-0.0013658184900639393,-0.006428951852665754,0.00897832362027708,0.0,0.0,0.0,0.0,0.0,0.0,0.0,0.0,0.0,0.030085350741322618,-0.021692234050673852,9.812436932059146,0.0,0.0,0.0,0.0,0.0,0.0,0.0,0.0,0.0
2025/05/06 15:28:12.512532317,1746538092,511371392,mA1/imu,0.7432091700938654,-0.6690584723225604,-0.000771865563852642,0.0005425175949410228,0.0,0.0,0.0,0.0,0.0,0.0,0.0,0.0,0.0,-0.001091167196100784,-0.007782229810406608,0.009036142274684333,0.0,0.0,0.0,0.0,0.0,0.0,0.0,0.0,0.0,0.028614217493959357,-0.010471556475723552,9.813770879519707,0.0,0.0,0.0,0.0,0.0,0.0,0.0,0.0,0.0
2025/05/06 15:28:12.565878041,1746538092,562332135,mA1/imu,0.7430569515031231,-0.6692274075022981,-0.0009346174119622311,0.0004127480241435128,0.0,0.0,0.0,0.0,0.0,0.0,0.0,0.0,0.0,-0.0002216897640316222,-0.008600871759793217,0.009099531828245752,0.0,0.0,0.0,0.0,0.0,0.0,0.0,0.0,0.0,0.024261993634376155,0.03192470755633714,9.81159497290112,0.0,0.0,0.0,0.0,0.0,0.0,0.0,0.0,0.0
2025/05/06 15:28:12.608242770,1746538092,606081183,mA1/imu,0.7429042134101824,-0.6693967527552803,-0.001112763071492854,0.0002808138725231524,0.0,0.0,0.0,0.0,0.0,0.0,0.0,0.0,0.0,0.00017926660134363404,-0.008922470861309685,0.009124386095307756,0.0,0.0,0.0,0.0,0.0,0.0,0.0,0.0,0.0,0.02339796325246949,0.04200286204713676,9.810945384448534,0.0,0.0,0.0,0.0,0.0,0.0,0.0,0.0,0.0
2025/05/06 15:28:12.659481839,1746538092,657104370,mA1/imu,0.7427509218018383,-0.6695665714228245,-0.0012859273174153244,0.00014486731117134446,0.0,0.0,0.0,0.0,0.0,0.0,0.0,0.0,0.0,0.0005964647343728048,-0.008653816994232785,0.009154995345118995,0.0,0.0,0.0,0.0,0.0,0.0,0.0,0.0,0.0,0.01911846426281326,-0.5734717399980122,9.809303127132745,0.0,0.0,0.0,0.0,0.0,0.0,0.0,0.0,0.0
2025/05/06 15:28:12.712362811,1746538092,707195174,mA1/imu,0.7425970573000813,-0.6697369065684827,-0.0014443952091227259,1.3849881591778768e-05,0.0,0.0,0.0,0.0,0.0,0.0,0.0,0.0,0.0,-0.0007109555607027883,-0.007883898471469988,0.00918870574914486,0.0,0.0,0.0,0.0,0.0,0.0,0.0,0.0,0.0,0.019031694661169374,-0.05458729900187749,9.811949813867322,0.0,0.0,0.0,0.0,0.0,0.0,0.0,0.0,0.0
2025/05/06 15:28:12.768036373,1746538092,762343059,mA1/imu,0.7424421184548813,-0.6699083665668772,-0.0015709964453944907,-0.00011453425348066605,0.0,0.0,0.0,0.0,0.0,0.0,0.0,0.0,0.0,-0.00013964203830167207,-0.00668133133460062,0.009260162428384509,0.0,0.0,0.0,0.0,0.0,0.0,0.0,0.0,0.0,0.016413026921745844,-0.03498981203078021,9.81085915111159,0.0,0.0,0.0,0.0,0.0,0.0,0.0,0.0,0.0
2025/05/06 15:28:12.814577762,1746538092,811948387,mA1/imu,0.742286345775589,-0.6700807091039837,-0.001665513673379633,-0.00022411164409623222,0.0,0.0,0.0,0.0,0.0,0.0,0.0,0.0,0.0,0.0016169484707114561,-0.005085161905282703,0.009303796594277026,0.0,0.0,0.0,0.0,0.0,0.0,0.0,0.0,0.0,0.016031134017517067,0.06697739378068698,9.811167806895554,0.0,0.0,0.0,0.0,0.0,0.0,0.0,0.0,0.0
2025/05/06 15:28:12.864236729,1746538092,854911441,mA1/imu,0.7421298447115674,-0.6702538426651481,-0.0017289080772294717,-0.00030142635639754216,0.0,0.0,0.0,0.0,0.0,0.0,0.0,0.0,0.0,0.00185979310237024,-0.0031974852761867943,0.009348738045815704,0.0,0.0,0.0,0.0,0.0,0.0,0.0,0.0,0.0,0.014093516000898532,0.07181909108872364,9.808579832961577,0.0,0.0,0.0,0.0,0.0,0.0,0.0,0.0,0.0
2025/05/06 15:28:12.905638515,1746538092,904757464,mA1/imu,0.7419726358005401,-0.6704277874824115,-0.001751285738669857,-0.0003499898559314238,0.0,0.0,0.0,0.0,0.0,0.0,0.0,0.0,0.0,0.0018618786031168772,-0.0011571647608662292,0.00939224906198308,0.0,0.0,0.0,0.0,0.0,0.0,0.0,0.0,0.0,0.01508797858162047,0.05593020332700834,9.808428688538314,0.0,0.0,0.0,0.0,0.0,0.0,0.0,0.0,0.0
2025/05/06 15:28:12.958202224,1746538092,956655615,mA1/imu,0.741815684635702,-0.670601486569129,-0.0017325436485071978,-0.00036678637522336813,0.0,0.0,0.0,0.0,0.0,0.0,0.0,0.0,0.0,0.001914067360355533,0.0008221383603838634,0.009228441641551694,0.0,0.0,0.0,0.0,0.0,0.0,0.0,0.0,0.0,0.020960622410098446,0.2047163265404904,9.808670385370919,0.0,0.0,0.0,0.0,0.0,0.0,0.0,0.0,0.0
2025/05/06 15:28:13.7736066,1746538093,6511174,mA1/imu,0.7416635816907753,-0.6707698407901889,-0.001682989715914893,-0.00034615824622910997,0.0,0.0,0.0,0.0,0.0,0.0,0.0,0.0,0.0,0.001586699519159839,0.0029564044758338755,0.009083085054421637,0.0,0.0,0.0,0.0,0.0,0.0,0.0,0.0,0.0,-0.007372217107803485,0.02802185105041568,9.811265495135798,0.0,0.0,0.0,0.0,0.0,0.0,0.0,0.0,0.0
2025/05/06 15:28:13.60664377,1746538093,57616484,mA1/imu,0.741513646530369,-0.670935836171392,-0.0015900504790518587,-0.00029578658538280834,0.0,0.0,0.0,0.0,0.0,0.0,0.0,0.0,0.0,0.0019223570465789657,0.004807992693790048,0.008852919581442355,0.0,0.0,0.0,0.0,0.0,0.0,0.0,0.0,0.0,0.012980052904318076,-0.10944522603379264,9.807993600254088,0.0,0.0,0.0,0.0,0.0,0.0,0.0,0.0,0.0
2025/05/06 15:28:13.112259234,1746538093,107443435,mA1/imu,0.7413677370714379,-0.671097361747953,-0.0014715962800222805,-0.00020949678054960183,0.0,0.0,0.0,0.0,0.0,0.0,0.0,0.0,0.0,0.0009683689589470945,0.006371715657758832,0.008595112485520875,0.0,0.0,0.0,0.0,0.0,0.0,0.0,0.0,0.0,0.01983933413654399,-0.012690124051888782,9.80612268631407,0.0,0.0,0.0,0.0,0.0,0.0,0.0,0.0,0.0
2025/05/06 15:28:13.160990437,1746538093,158611041,mA1/imu,0.7412264005419473,-0.6712537881854722,-0.0013285946883645266,-9.91082038328422e-05,0.0,0.0,0.0,0.0,0.0,0.0,0.0,0.0,0.0,-0.00030814358765108565,0.0076617369537545655,0.008323821888109968,0.0,0.0,0.0,0.0,0.0,0.0,0.0,0.0,0.0,0.02022239990799784,-0.08994850959388814,9.805908248692282,0.0,0.0,0.0,0.0,0.0,0.0,0.0,0.0,0.0
2025/05/06 15:28:13.210278582,1746538093,208270353,mA1/imu,0.741090104251366,-0.6714045745806001,-0.0011636146218073104,2.4778103038070954e-05,0.0,0.0,0.0,0.0,0.0,0.0,0.0,0.0,0.0,0.0002416074413857173,0.00853216762696175,0.007999358221547534,0.0,0.0,0.0,0.0,0.0,0.0,0.0,0.0,0.0,0.016719639951611177,-0.04207014491951021,9.81001602850865,0.0,0.0,0.0,0.0,0.0,0.0,0.0,0.0,0.0
2025/05/06 15:28:13.262375944,1746538093,259930229,mA1/imu,0.7409603797593143,-0.6715479900673901,-0.0009932861109462469,0.00016138798960886505,0.0,0.0,0.0,0.0,0.0,0.0,0.0,0.0,0.0,-3.142585788548832e-05,0.008808825046718859,0.007581217251621062,0.0,0.0,0.0,0.0,0.0,0.0,0.0,0.0,0.0,0.01736218113842592,0.1668478282053383,9.80947954173047,0.0,0.0,0.0,0.0,0.0,0.0,0.0,0.0,0.0
2025/05/06 15:28:13.312967850,1746538093,311121184,mA1/imu,0.7408376400789568,-0.6716835654103133,-0.0008285457749725975,0.0003041575751618577,0.0,0.0,0.0,0.0,0.0,0.0,0.0,0.0,0.0,0.00035801471866202077,0.00858437079419761,0.00713392610466088,0.0,0.0,0.0,0.0,0.0,0.0,0.0,0.0,0.0,0.020139251459640403,-0.004193192300103619,9.81075226204885,0.0,0.0,0.0,0.0,0.0,0.0,0.0,0.0,0.0
2025/05/06 15:28:13.365353889,1746538093,363050064,mA1/imu,0.7407230259747614,-0.671810052567385,-0.0006762589001956819,0.0004412868682553912,0.0,0.0,0.0,0.0,0.0,0.0,0.0,0.0,0.0,0.000755758859080006,0.00786724917545681,0.00662003199468468,0.0,0.0,0.0,0.0,0.0,0.0,0.0,0.0,0.0,0.01864741690238509,0.04067320740332564,9.80987467734008,0.0,0.0,0.0,0.0,0.0,0.0,0.0,0.0,0.0
2025/05/06 15:28:13.413932690,1746538093,412321006,mA1/imu,0.7406204386453716,-0.6719231613970725,-0.0005553474828314727,0.0005680035863912432,0.0,0.0,0.0,0.0,0.0,0.0,0.0,0.0,0.0,-0.0005207454961064803,0.006054167523910106,0.0056318310605919545,0.0,0.0,0.0,0.0,0.0,0.0,0.0,0.0,0.0,0.0642154536391776,-0.03539018540608244,9.804503172844672,0.0,0.0,0.0,0.0,0.0,0.0,0.0,0.0,0.0
2025/05/06 15:28:13.465257554,1746538093,463289173,mA1/imu,0.7405335395669232,-0.6720189165475586,-0.00046618253421759956,0.0006597367463635589,0.0,0.0,0.0,0.0,0.0,0.0,0.0,0.0,0.0,-7.176020800825822e-05,0.0042255382486023774,0.004766903309807506,0.0,0.0,0.0,0.0,0.0,0.0,0.0,0.0,0.0,0.06391941531656156,-0.4672203785933233,9.806081008438728,0.0,0.0,0.0,0.0,0.0,0.0,0.0,0.0,0.0
2025/05/06 15:28:13.508073117,1746538093,503984057,mA1/imu,0.7404657079277384,-0.6720936259249002,-0.0004258897026236331,0.0007155362706254095,0.0,0.0,0.0,0.0,0.0,0.0,0.0,0.0,0.0,-0.0018267777357310797,0.0018149377699489125,0.003619523140518085,0.0,0.0,0.0,0.0,0.0,0.0,0.0,0.0,0.0,0.038451908712702175,0.5235253364302553,9.813273956374397,0.0,0.0,0.0,0.0,0.0,0.0,0.0,0.0,0.0
2025/05/06 15:28:13.560093112,1746538093,555562496,mA1/imu,0.7404119824143037,-0.6721527937422764,-0.0004167592141697754,0.0007378844970831757,0.0,0.0,0.0,0.0,0.0,0.0,0.0,0.0,0.0,-0.0010382126785265684,0.00010843113112213814,0.002813359138761054,0.0,0.0,0.0,0.0,0.0,0.0,0.0,0.0,0.0,0.01420212382463876,-0.05365173257457485,9.814355654482412,0.0,0.0,0.0,0.0,0.0,0.0,0.0,0.0,0.0
2025/05/06 15:28:13.608820248,1746538093,606108349,mA1/imu,0.7403688454297422,-0.6722003054456565,-0.00043084234356306804,0.0007324279293005375,0.0,0.0,0.0,0.0,0.0,0.0,0.0,0.0,0.0,-0.0012833134264911559,-0.0009299504136386017,0.0024693437421218836,0.0,0.0,0.0,0.0,0.0,0.0,0.0,0.0,0.0,-0.00037083877942253223,0.5619107185403225,9.813156853970025,0.0,0.0,0.0,0.0,0.0,0.0,0.0,0.0,0.0
2025/05/06 15:28:13.658863865,1746538093,657049584,mA1/imu,0.7403298432795918,-0.6722432624614281,-0.000461616090170963,0.0007114319474358088,0.0,0.0,0.0,0.0,0.0,0.0,0.0,0.0,0.0,0.00027450638657143734,-0.0018071618291358458,0.0022130661698973896,0.0,0.0,0.0,0.0,0.0,0.0,0.0,0.0,0.0,-0.0018190475104530482,0.02993002226055048,9.812489297832268,0.0,0.0,0.0,0.0,0.0,0.0,0.0,0.0,0.0
2025/05/06 15:28:13.707982057,1746538093,706756340,mA1/imu,0.7402950547355628,-0.6722815770816405,-0.0005062958116658191,0.0006758071050533969,0.0,0.0,0.0,0.0,0.0,0.0,0.0,0.0,0.0,0.001656299950280735,-0.0025952552748379435,0.0019719583883599954,0.0,0.0,0.0,0.0,0.0,0.0,0.0,0.0,0.0,-0.00034709503677307087,-0.3021352255127774,9.811412872223528,0.0,0.0,0.0,0.0,0.0,0.0,0.0,0.0,0.0
2025/05/06 15:28:13.760473379,1746538093,757901035,mA1/imu,0.7402643590647937,-0.6723153734326317,-0.0005651448166735753,0.0006308374335399919,0.0,0.0,0.0,0.0,0.0,0.0,0.0,0.0,0.0,0.0004431847005833457,-0.0031953169405363854,0.0017259017991335301,0.0,0.0,0.0,0.0,0.0,0.0,0.0,0.0,0.0,-0.0011841510231753601,-0.6149869741313011,9.811177552406102,0.0,0.0,0.0,0.0,0.0,0.0,0.0,0.0,0.0
2025/05/06 15:28:13.816052057,1746538093,812084674,mA1/imu,0.7402377608145537,-0.6723446623708148,-0.0006246554880456511,0.0005676717815773206,0.0,0.0,0.0,0.0,0.0,0.0,0.0,0.0,0.0,-0.0009633162287567105,-0.0036096874027448677,0.001481213630402101,0.0,0.0,0.0,0.0,0.0,0.0,0.0,0.0,0.0,-0.0018459579064935192,-0.12753157823574954,9.813178451378686,0.0,0.0,0.0,0.0,0.0,0.0,0.0,0.0,0.0
2025/05/06 15:28:13.866036260,1746538093,863102932,mA1/imu,0.7402145752114013,-0.6723701968313005,-0.0006792001327848584,0.0004896374396567842,0.0,0.0,0.0,0.0,0.0,0.0,0.0,0.0,0.0,-0.001085132904975778,-0.003755431424690415,0.001287321205932677,0.0,0.0,0.0,0.0,0.0,0.0,0.0,0.0,0.0,-0.0025388213628679372,0.5101697816334652,9.812570915542237,0.0,0.0,0.0,0.0,0.0,0.0,0.0,0.0,0.0
2025/05/06 15:28:13.915069327,1746538093,912856184,mA1/imu,0.740195301010706,-0.6723914160071589,-0.0007313487905064699,0.00040641174331577424,0.0,0.0,0.0,0.0,0.0,0.0,0.0,0.0,0.0,0.0005197561063391117,-0.0037501875320279394,0.0010476745540375788,0.0,0.0,0.0,0.0,0.0,0.0,0.0,0.0,0.0,-0.003637103201200121,0.6101896772066782,9.810827928061162,0.0,0.0,0.0,0.0,0.0,0.0,0.0,0.0,0.0
2025/05/06 15:28:13.959990112,1746538093,954642255,mA1/imu,0.7401795915259142,-0.672408692757789,-0.0007844798458551835,0.0003267776970598703,0.0,0.0,0.0,0.0,0.0,0.0,0.0,0.0,0.0,0.0023960276877187047,-0.003530844560870261,0.0009610959963197241,0.0,0.0,0.0,0.0,0.0,0.0,0.0,0.0,0.0,-0.015330506361190776,0.11334784029431968,9.808947513381362,0.0,0.0,0.0,0.0,0.0,0.0,0.0,0.0,0.0
2025/05/06 15:28:14.8688329,1746538094,5316787,mA1/imu,0.7401629900403981,-0.6724269415888003,-0.000830485303884008,0.00025825210486443657,0.0,0.0,0.0,0.0,0.0,0.0,0.0,0.0,0.0,0.0028267807759623635,-0.0031002955269248773,0.000926725702898442,0.0,0.0,0.0,0.0,0.0,0.0,0.0,0.0,0.0,0.0021959692968153647,-0.5168327279145262,9.807997524576086,0.0,0.0,0.0,0.0,0.0,0.0,0.0,0.0,0.0
2025/05/06 15:28:14.58510307,1746538094,56464438,mA1/imu,0.7401473387010097,-0.672444145051464,-0.0008660432102895268,0.00019689839086258854,0.0,0.0,0.0,0.0,0.0,0.0,0.0,0.0,0.0,0.0014959889303725496,-0.002205969827594378,0.0011355728279788403,0.0,0.0,0.0,0.0,0.0,0.0,0.0,0.0,0.0,-0.03457789839430628,-0.607739651228734,9.804654987947307,0.0,0.0,0.0,0.0,0.0,0.0,0.0,0.0,0.0
2025/05/06 15:28:14.109250367,1746538094,106783167,mA1/imu,0.7401215948211313,-0.6724724894114537,-0.0008677080229765964,0.00015148258778976568,0.0,0.0,0.0,0.0,0.0,0.0,0.0,0.0,0.0,0.00019469288056704547,-0.0006520921767032536,0.0017784168338334805,0.0,0.0,0.0,0.0,0.0,0.0,0.0,0.0,0.0,-0.030985682845090477,-0.19748445779576393,9.810612329992654,0.0,0.0,0.0,0.0,0.0,0.0,0.0,0.0,0.0
2025/05/06 15:28:14.159817759,1746538094,157748768,mA1/imu,0.7400902351953609,-0.6725070337866879,-0.0008481406448117789,0.00011803962344806765,0.0,0.0,0.0,0.0,0.0,0.0,0.0,0.0,0.0,-0.000297123145147042,5.3798160821191056e-05,0.0020096901325137246,0.0,0.0,0.0,0.0,0.0,0.0,0.0,0.0,0.0,-0.02671187966262263,0.31399793165227263,9.809320159541887,0.0,0.0,0.0,0.0,0.0,0.0,0.0,0.0,0.0
2025/05/06 15:28:14.210130212,1746538094,207987101,mA1/imu,0.740049678423366,-0.6725517160896162,-0.0008071890635070438,0.00010533850527327294,0.0,0.0,0.0,0.0,0.0,0.0,0.0,0.0,0.0,0.0005834117987859334,0.00148720624370859,0.002705792246110737,0.0,0.0,0.0,0.0,0.0,0.0,0.0,0.0,0.0,-0.03473839273848757,-0.042691005858198516,9.81078724566754,0.0,0.0,0.0,0.0,0.0,0.0,0.0,0.0,0.0
2025/05/06 15:28:14.264102814,1746538094,259160206,mA1/imu,0.7399957987501019,-0.672611068886037,-0.0007438971416648945,0.00012025482986914674,0.0,0.0,0.0,0.0,0.0,0.0,0.0,0.0,0.0,0.0018556081195317494,0.0027791675776300743,0.00354133590853137,0.0,0.0,0.0,0.0,0.0,0.0,0.0,0.0,0.0,-0.02665298880953551,-0.5754593810648071,9.804486052901472,0.0,0.0,0.0,0.0,0.0,0.0,0.0,0.0,0.0
2025/05/06 15:28:14.312739712,1746538094,308920077,mA1/imu,0.7399279486377579,-0.6726857855155515,-0.0006629601630144151,0.00015897756781567315,0.0,0.0,0.0,0.0,0.0,0.0,0.0,0.0,0.0,0.000960185918053444,0.0038350471590048,0.004362601982425496,0.0,0.0,0.0,0.0,0.0,0.0,0.0,0.0,0.0,-0.023998909444604255,0.1645088267030958,9.80891321823491,0.0,0.0,0.0,0.0,0.0,0.0,0.0,0.0,0.0
2025/05/06 15:28:14.365177283,1746538094,362303589,mA1/imu,0.7398457123412403,-0.6727762938076896,-0.0005749748265075635,0.00022321429399253825,0.0,0.0,0.0,0.0,0.0,0.0,0.0,0.0,0.0,-0.0010312525047567096,0.0045982622912680736,0.005246039531051207,0.0,0.0,0.0,0.0,0.0,0.0,0.0,0.0,0.0,-0.017943301486959738,0.5238010748885831,9.809158384879156,0.0,0.0,0.0,0.0,0.0,0.0,0.0,0.0,0.0
2025/05/06 15:28:14.415612881,1746538094,411749557,mA1/imu,0.7397477726264649,-0.672884032266504,-0.00047517170608878134,0.0002936440094576538,0.0,0.0,0.0,0.0,0.0,0.0,0.0,0.0,0.0,0.00040155135758234404,0.00503518070093418,0.006234410832751658,0.0,0.0,0.0,0.0,0.0,0.0,0.0,0.0,0.0,-0.02329101255737468,0.1640984945925807,9.810832798267386,0.0,0.0,0.0,0.0,0.0,0.0,0.0,0.0,0.0
2025/05/06 15:28:14.467313845,1746538094,462899515,mA1/imu,0.7396382282108689,-0.6730044537454697,-0.00039526160652359637,0.0003746680010152541,0.0,0.0,0.0,0.0,0.0,0.0,0.0,0.0,0.0,0.0003586997898283988,0.004191108711701382,0.006713649740601025,0.0,0.0,0.0,0.0,0.0,0.0,0.0,0.0,0.0,0.012606055335512413,0.043793379623517856,9.808726173051115,0.0,0.0,0.0,0.0,0.0,0.0,0.0,0.0,0.0
2025/05/06 15:28:14.513899349,1746538094,512796023,mA1/imu,0.7395224175727396,-0.6731316948900894,-0.0003424335428887664,0.0004449505983661634,0.0,0.0,0.0,0.0,0.0,0.0,0.0,0.0,0.0,-0.0007401911865189687,0.002817117997129968,0.006925631436645128,0.0,0.0,0.0,0.0,0.0,0.0,0.0,0.0,0.0,0.03159246959020327,0.18861524926988046,9.809001197435116,0.0,0.0,0.0,0.0,0.0,0.0,0.0,0.0,0.0
2025/05/06 15:28:14.570006106,1746538094,566236562,mA1/imu,0.7394041845488708,-0.6732615344050401,-0.00032932848840596806,0.0004997048499799366,0.0,0.0,0.0,0.0,0.0,0.0,0.0,0.0,0.0,-0.001335318455089981,0.001260758943769688,0.007127454612431885,0.0,0.0,0.0,0.0,0.0,0.0,0.0,0.0,0.0,0.027954883187413283,-0.01168163404619994,9.809046458623238,0.0,0.0,0.0,0.0,0.0,0.0,0.0,0.0,0.0
2025/05/06 15:28:14.605431900,1746538094,604487649,mA1/imu,0.7392835463903379,-0.6733939685841263,-0.00034973039528985583,0.0005280148637925198,0.0,0.0,0.0,0.0,0.0,0.0,0.0,0.0,0.0,-0.001158358185222814,-0.0006037737281598505,0.007181608683098115,0.0,0.0,0.0,0.0,0.0,0.0,0.0,0.0,0.0,0.031187168379006088,0.023610076507406878,9.809888843779277,0.0,0.0,0.0,0.0,0.0,0.0,0.0,0.0,0.0
2025/05/06 15:28:14.659841382,1746538094,656032356,mA1/imu,0.7391622311134399,-0.6735270915259713,-0.0004113444738151019,0.0005327961068236272,0.0,0.0,0.0,0.0,0.0,0.0,0.0,0.0,0.0,-0.002344857876596298,-0.002417695171473163,0.0072102678318853594,0.0,0.0,0.0,0.0,0.0,0.0,0.0,0.0,0.0,0.029092673246647254,0.4160487365732795,9.810539794147248,0.0,0.0,0.0,0.0,0.0,0.0,0.0,0.0,0.0
2025/05/06 15:28:14.712358739,1746538094,707046578,mA1/imu,0.7390401627367182,-0.673660978061364,-0.0005093743807329847,0.0005148176684513113,0.0,0.0,0.0,0.0,0.0,0.0,0.0,0.0,0.0,-0.0021570943118458187,-0.004002593294798106,0.007271300626620784,0.0,0.0,0.0,0.0,0.0,0.0,0.0,0.0,0.0,0.027419472939716114,-0.0075295031217049125,9.81010740957917,0.0,0.0,0.0,0.0,0.0,0.0,0.0,0.0,0.0
2025/05/06 15:28:14.760230270,1746538094,758085621,mA1/imu,0.7389168552784711,-0.6737961563533164,-0.0006315553077137815,0.0004709636565347867,0.0,0.0,0.0,0.0,0.0,0.0,0.0,0.0,0.0,-0.0031618055927389874,-0.0052809567923057955,0.007343965869967236,0.0,0.0,0.0,0.0,0.0,0.0,0.0,0.0,0.0,0.024860357681438086,0.5570141043611169,9.811442392414232,0.0,0.0,0.0,0.0,0.0,0.0,0.0,0.0,0.0
2025/05/06 15:28:14.809986065,1746538094,807979597,mA1/imu,0.7387922459795034,-0.6739326654399196,-0.0007794172281218236,0.00041502095247547923,0.0,0.0,0.0,0.0,0.0,0.0,0.0,0.0,0.0,-0.0026501546072327142,-0.006230035134460595,0.007419929137231136,0.0,0.0,0.0,0.0,0.0,0.0,0.0,0.0,0.0,0.023283523253971077,-0.15037041790769,9.810931382955348,0.0,0.0,0.0,0.0,0.0,0.0,0.0,0.0,0.0
2025/05/06 15:28:14.865064738,1746538094,859048922,mA1/imu,0.7386669957163785,-0.6740697875717717,-0.0009356405456312132,0.00033985152006528495,0.0,0.0,0.0,0.0,0.0,0.0,0.0,0.0,0.0,-0.0014124463290914522,-0.006851075072217003,0.007436195790647286,0.0,0.0,0.0,0.0,0.0,0.0,0.0,0.0,0.0,0.020626854698605576,-0.5931671921950459,9.811384714346493,0.0,0.0,0.0,0.0,0.0,0.0,0.0,0.0,0.0
2025/05/06 15:28:14.911878809,1746538094,910713134,mA1/imu,0.7385406229726503,-0.674208049500863,-0.0010911695390900806,0.00025210404288437054,0.0,0.0,0.0,0.0,0.0,0.0,0.0,0.0,0.0,-0.0005626537248038464,-0.006996790558463302,0.007521891931013038,0.0,0.0,0.0,0.0,0.0,0.0,0.0,0.0,0.0,0.02037818998991726,-0.2621130681683342,9.811808777583911,0.0,0.0,0.0,0.0,0.0,0.0,0.0,0.0,0.0
2025/05/06 15:28:14.971200821,1746538094,961990790,mA1/imu,0.7384127501409006,-0.6743478591997975,-0.0012439785566742958,0.00016655135080944597,0.0,0.0,0.0,0.0,0.0,0.0,0.0,0.0,0.0,-0.0011583576361287968,-0.006672052317109287,0.0076076882386731555,0.0,0.0,0.0,0.0,0.0,0.0,0.0,0.0,0.0,0.016986187284123124,0.018038502050689444,9.810728882662053,0.0,0.0,0.0,0.0,0.0,0.0,0.0,0.0,0.0
