time,header_stamp_secs,header_stamp_nsecs,header_frame_id,orientation_x,orientation_y,orientation_z,orientation_w,orientation_covariance_0,orientation_covariance_1,orientation_covariance_2,orientation_covariance_3,orientation_covariance_4,orientation_covariance_5,orientation_covariance_6,orientation_covariance_7,orientation_covariance_8,angular_velocity_x,angular_velocity_y,angular_velocity_z,angular_velocity_covariance_0,angular_velocity_covariance_1,angular_velocity_covariance_2,angular_velocity_covariance_3,angular_velocity_covariance_4,angular_velocity_covariance_5,angular_velocity_covariance_6,angular_velocity_covariance_7,angular_velocity_covariance_8,linear_acceleration_x,linear_acceleration_y,linear_acceleration_z,linear_acceleration_covariance_0,linear_acceleration_covariance_1,linear_acceleration_covariance_2,linear_acceleration_covariance_3,linear_acceleration_covariance_4,linear_acceleration_covariance_5,linear_acceleration_covariance_6,linear_acceleration_covariance_7,linear_acceleration_covariance_8
2025/05/06 15:48:33.362485975,1746539313,360940694,mA1/imu,0.04769622147449537,0.9988614888840402,0.0007772003579892762,0.0004386809976332601,0.0,0.0,0.0,0.0,0.0,0.0,0.0,0.0,0.0,1.166387791641139e-05,-4.326852768780274e-05,-0.00016286251127906572,0.0,0.0,0.0,0.0,0.0,0.0,0.0,0.0,0.0,0.007785772454070486,-0.01594966563046174,9.811226552398471,0.0,0.0,0.0,0.0,0.0,0.0,0.0,0.0,0.0
2025/05/06 15:48:33.407584849,1746539313,405801598,mA1/imu,0.047692152036592016,0.9988616830262013,0.0007768540655711611,0.0004396748158498953,0.0,0.0,0.0,0.0,0.0,0.0,0.0,0.0,0.0,1.1066173007190836e-05,-3.793515893762187e-05,-0.00016309752755678945,0.0,0.0,0.0,0.0,0.0,0.0,0.0,0.0,0.0,0.007787293627656809,-0.015939509403445982,9.810878642359253,0.0,0.0,0.0,0.0,0.0,0.0,0.0,0.0,0.0
2025/05/06 15:48:33.462674266,1746539313,460301654,mA1/imu,0.047688076758197355,0.9988618775068817,0.0007765037997507508,0.00044050014811422816,0.0,0.0,0.0,0.0,0.0,0.0,0.0,0.0,0.0,1.2350834325792392e-05,-3.035801778126691e-05,-0.00016331194182730714,0.0,0.0,0.0,0.0,0.0,0.0,0.0,0.0,0.0,0.0077870124047508095,-0.015348938667530627,9.809055568182508,0.0,0.0,0.0,0.0,0.0,0.0,0.0,0.0,0.0
2025/05/06 15:48:33.512622683,1746539313,512325935,mA1/imu,0.047683995782749754,0.9988620723256704,0.0007761654203303122,0.0004411152892414097,0.0,0.0,0.0,0.0,0.0,0.0,0.0,0.0,0.0,1.304279696420635e-05,-2.1369462701119615e-05,-0.000163533177490929,0.0,0.0,0.0,0.0,0.0,0.0,0.0,0.0,0.0,0.007785254320914704,-0.015355793320571394,9.808703496426416,0.0,0.0,0.0,0.0,0.0,0.0,0.0,0.0,0.0
2025/05/06 15:48:33.556242833,1746539313,556059305,mA1/imu,0.04767982907322133,0.998862271064793,0.0007758158354972906,0.0004421002395085864,0.0,0.0,0.0,0.0,0.0,0.0,0.0,0.0,0.0,1.3204129615138702e-05,-6.427100588877242e-05,-0.00017338556082091973,0.0,0.0,0.0,0.0,0.0,0.0,0.0,0.0,0.0,0.010133624985029142,-0.01525056069883775,9.81124718906937,0.0,0.0,0.0,0.0,0.0,0.0,0.0,0.0,0.0
2025/05/06 15:48:33.607173107,1746539313,606978049,mA1/imu,0.0476750865002156,0.9988624966775304,0.0007752707941142273,0.00044476232259760604,0.0,0.0,0.0,0.0,0.0,0.0,0.0,0.0,0.0,1.7906458359276157e-05,-0.0001344131869320575,-0.000200988574756069,0.0,0.0,0.0,0.0,0.0,0.0,0.0,0.0,0.0,0.010192620357668016,-0.015187844100586583,9.810901196539989,0.0,0.0,0.0,0.0,0.0,0.0,0.0,0.0,0.0
2025/05/06 15:48:33.662242869,1746539313,659589699,mA1/imu,0.04767192295574064,0.9988626476015576,0.0007743451908503039,0.0004465172270106169,0.0,0.0,0.0,0.0,0.0,0.0,0.0,0.0,0.0,4.648065003661969e-05,2.5873917261323457e-05,-3.524250792659335e-05,0.0,0.0,0.0,0.0,0.0,0.0,0.0,0.0,0.0,0.00928686973293135,-0.013520672273360304,9.8087387465788,0.0,0.0,0.0,0.0,0.0,0.0,0.0,0.0,0.0
2025/05/06 15:48:33.710744375,1746539313,710120066,mA1/imu,0.04767136960020225,0.998862674476102,0.0007729900568659987,0.0004478228013005053,0.0,0.0,0.0,0.0,0.0,0.0,0.0,0.0,0.0,5.687299645515337e-05,-0.00012618135031222801,-2.442833590660722e-05,0.0,0.0,0.0,0.0,0.0,0.0,0.0,0.0,0.0,0.013559952045535152,-0.013974926337028988,9.808704298024589,0.0,0.0,0.0,0.0,0.0,0.0,0.0,0.0,0.0
2025/05/06 15:48:33.761785286,1746539313,761463746,mA1/imu,0.04767068275746464,0.9988627060885695,0.0007712044279365334,0.00045346950000160367,0.0,0.0,0.0,0.0,0.0,0.0,0.0,0.0,0.0,6.346440432537648e-05,-0.0002948048534771224,-2.9881372262565304e-05,0.0,0.0,0.0,0.0,0.0,0.0,0.0,0.0,0.0,0.013269896452800809,-0.01463419532384103,9.811218252156738,0.0,0.0,0.0,0.0,0.0,0.0,0.0,0.0,0.0
2025/05/06 15:48:33.813145531,1746539313,812623982,mA1/imu,0.04766986619508464,0.9988627426081169,0.000768859845092925,0.00046275357605553763,0.0,0.0,0.0,0.0,0.0,0.0,0.0,0.0,0.0,7.372381055744198e-05,-0.0004094914716488034,-3.49942232605575e-05,0.0,0.0,0.0,0.0,0.0,0.0,0.0,0.0,0.0,0.010629495996103515,-0.014198594317200632,9.810848071226829,0.0,0.0,0.0,0.0,0.0,0.0,0.0,0.0,0.0
2025/05/06 15:48:33.855344243,1746539313,855192340,mA1/imu,0.04766761286142469,0.9988628460319766,0.0007667516806561004,0.0004749661601136152,0.0,0.0,0.0,0.0,0.0,0.0,0.0,0.0,0.0,5.837275616174028e-05,-0.0004972287459986153,-0.00010422347666975453,0.0,0.0,0.0,0.0,0.0,0.0,0.0,0.0,0.0,0.00869290093886984,-0.013798750390085155,9.809039361959837,0.0,0.0,0.0,0.0,0.0,0.0,0.0,0.0,0.0
2025/05/06 15:48:33.905545257,1746539313,904900513,mA1/imu,0.04766497632621397,0.9988629678757878,0.0007647459140976225,0.0004864173942633312,0.0,0.0,0.0,0.0,0.0,0.0,0.0,0.0,0.0,6.509518636408935e-05,-0.00043349503236277977,-0.00010709371287613838,0.0,0.0,0.0,0.0,0.0,0.0,0.0,0.0,0.0,0.008629717546000365,-0.017252432449751685,9.808691136757046,0.0,0.0,0.0,0.0,0.0,0.0,0.0,0.0,0.0
2025/05/06 15:48:33.957536460,1746539313,957065214,mA1/imu,0.047662948686872895,0.9988630613327696,0.0007628390061627132,0.0004960887532450673,0.0,0.0,0.0,0.0,0.0,0.0,0.0,0.0,0.0,5.567791761392598e-05,-0.00034873402760004287,-5.114181242182654e-05,0.0,0.0,0.0,0.0,0.0,0.0,0.0,0.0,0.0,0.010649771693063258,-0.013913604293690212,9.811367136757106,0.0,0.0,0.0,0.0,0.0,0.0,0.0,0.0,0.0
2025/05/06 15:48:34.8630173,1746539314,6897368,mA1/imu,0.047661787133353194,0.99886311362801,0.0007611061691661794,0.0005049732778912622,0.0,0.0,0.0,0.0,0.0,0.0,0.0,0.0,0.0,4.747065825622543e-05,-0.00036939713965729494,-4.873864646146873e-05,0.0,0.0,0.0,0.0,0.0,0.0,0.0,0.0,0.0,0.012450460179034685,-0.014724334189595097,9.810867441377006,0.0,0.0,0.0,0.0,0.0,0.0,0.0,0.0,0.0
2025/05/06 15:48:34.58263868,1746539314,58065298,mA1/imu,0.047660507187896266,0.9988631710954753,0.0007595997553518065,0.0005142877555839267,0.0,0.0,0.0,0.0,0.0,0.0,0.0,0.0,0.0,3.794958707582535e-05,-0.0003751605074872978,-5.342709479237631e-05,0.0,0.0,0.0,0.0,0.0,0.0,0.0,0.0,0.0,0.012187232876929837,-0.014202316044035575,9.809087578653978,0.0,0.0,0.0,0.0,0.0,0.0,0.0,0.0,0.0
2025/05/06 15:48:34.108540276,1746539314,108309361,mA1/imu,0.04765911169483545,0.9988632338707172,0.0007583950375748438,0.0005233839503457559,0.0,0.0,0.0,0.0,0.0,0.0,0.0,0.0,0.0,2.67759908806962e-05,-0.00035601069719080745,-5.7989515108254685e-05,0.0,0.0,0.0,0.0,0.0,0.0,0.0,0.0,0.0,0.012077669673967168,-0.014244186448451497,9.808749551791836,0.0,0.0,0.0,0.0,0.0,0.0,0.0,0.0,0.0
2025/05/06 15:48:34.160962096,1746539314,159349386,mA1/imu,0.047654977983758874,0.9988634265136517,0.0007582339741167029,0.0005322856515491566,0.0,0.0,0.0,0.0,0.0,0.0,0.0,0.0,0.0,-4.588302471548333e-05,-0.0003828526778937861,-0.00028520369244162106,0.0,0.0,0.0,0.0,0.0,0.0,0.0,0.0,0.0,0.007092418775549597,-0.017208232948501403,9.811777821445606,0.0,0.0,0.0,0.0,0.0,0.0,0.0,0.0,0.0
2025/05/06 15:48:34.212806343,1746539314,211620622,mA1/imu,0.047647368656497886,0.9988637860320728,0.0007594418106855096,0.000537086512035862,0.0,0.0,0.0,0.0,0.0,0.0,0.0,0.0,0.0,-6.420117691429948e-05,-4.4289558437592944e-05,-0.0003033110726874466,0.0,0.0,0.0,0.0,0.0,0.0,0.0,0.0,0.0,0.0036020998546060943,-0.014503719857008627,9.810994577394148,0.0,0.0,0.0,0.0,0.0,0.0,0.0,0.0,0.0
2025/05/06 15:48:34.264185887,1746539314,263997012,mA1/imu,0.04763983395441117,0.9988641467014322,0.0007613935754080968,0.0005319163837822094,0.0,0.0,0.0,0.0,0.0,0.0,0.0,0.0,0.0,-7.135687413708273e-05,0.000376755675449358,-0.00030027101276823635,0.0,0.0,0.0,0.0,0.0,0.0,0.0,0.0,0.0,0.0019606255799738655,-0.01396825373708003,9.809232154925729,0.0,0.0,0.0,0.0,0.0,0.0,0.0,0.0,0.0
2025/05/06 15:48:34.306698285,1746539314,304934467,mA1/imu,0.04763237299508965,0.9988645085823366,0.0007639162623582529,0.0005166907858495926,0.0,0.0,0.0,0.0,0.0,0.0,0.0,0.0,0.0,-6.951288275659595e-05,0.0007728619049589765,-0.00029685418942528165,0.0,0.0,0.0,0.0,0.0,0.0,0.0,0.0,0.0,0.00040310276356173187,-0.01547766315610737,9.808896129550677,0.0,0.0,0.0,0.0,0.0,0.0,0.0,0.0,0.0
2025/05/06 15:48:34.357468563,1746539314,356476805,mA1/imu,0.04762498948395418,0.9988648714003788,0.0007664065196081868,0.0004916096059368318,0.0,0.0,0.0,0.0,0.0,0.0,0.0,0.0,0.0,-5.402885163222985e-05,0.0011526941720026516,-0.0002936633792763273,0.0,0.0,0.0,0.0,0.0,0.0,0.0,0.0,0.0,0.001216192067055615,-0.013133235882466204,9.811424348569261,0.0,0.0,0.0,0.0,0.0,0.0,0.0,0.0,0.0
2025/05/06 15:48:34.407311348,1746539314,406710512,mA1/imu,0.04761767908084816,0.9988652333632773,0.0007695584736392022,0.00045825411599649253,0.0,0.0,0.0,0.0,0.0,0.0,0.0,0.0,0.0,-6.719258551734945e-05,0.001455313442454152,-0.0002903062849466733,0.0,0.0,0.0,0.0,0.0,0.0,0.0,0.0,0.0,0.0005376423673657494,-0.014039503535466895,9.811054855630246,0.0,0.0,0.0,0.0,0.0,0.0,0.0,0.0,0.0
2025/05/06 15:48:34.461554954,1746539314,461277719,mA1/imu,0.047608650865168196,0.9988656772904573,0.0007733718856132097,0.0004207015584547247,0.0,0.0,0.0,0.0,0.0,0.0,0.0,0.0,0.0,-8.298834196647101e-05,0.0015680858336595451,-0.0003896712220726748,0.0,0.0,0.0,0.0,0.0,0.0,0.0,0.0,0.0,-0.0008957769894065853,-0.013665831976164743,9.809312467917378,0.0,0.0,0.0,0.0,0.0,0.0,0.0,0.0,0.0
2025/05/06 15:48:34.514249338,1746539314,512763234,mA1/imu,0.04759897865048818,0.9988661520300337,0.0007774128530554617,0.0003784037527271007,0.0,0.0,0.0,0.0,0.0,0.0,0.0,0.0,0.0,-7.828990857860627e-05,0.0017604035018239984,-0.00038364133820659494,0.0,0.0,0.0,0.0,0.0,0.0,0.0,0.0,0.0,0.0013740326744629272,-0.01401898471615304,9.808950895930518,0.0,0.0,0.0,0.0,0.0,0.0,0.0,0.0,0.0
2025/05/06 15:48:34.560505779,1746539314,560163700,mA1/imu,0.04759123706752571,0.9988665347676914,0.0007809316754457158,0.0003316945657421914,0.0,0.0,0.0,0.0,0.0,0.0,0.0,0.0,0.0,-3.403484126700889e-05,0.0018937638682270904,-0.00027619287590805087,0.0,0.0,0.0,0.0,0.0,0.0,0.0,0.0,0.0,0.004644040696359454,-0.01344452547508994,9.81128926550438,0.0,0.0,0.0,0.0,0.0,0.0,0.0,0.0,0.0
2025/05/06 15:48:34.612995867,1746539314,612738076,mA1/imu,0.047584321025632016,0.9988668758052824,0.0007839514731728775,0.0002867605479221981,0.0,0.0,0.0,0.0,0.0,0.0,0.0,0.0,0.0,-3.5080059226336424e-05,0.0017333850316912354,-0.0002750544596302045,0.0,0.0,0.0,0.0,0.0,0.0,0.0,0.0,0.0,0.003016614365700448,-0.014290698371797023,9.810958418387314,0.0,0.0,0.0,0.0,0.0,0.0,0.0,0.0,0.0
2025/05/06 15:48:34.656513255,1746539314,655715641,mA1/imu,0.04757563991954254,0.9988672971950162,0.0007868472992390288,0.00024890137943581496,0.0,0.0,0.0,0.0,0.0,0.0,0.0,0.0,0.0,-4.246664182729774e-05,0.001401495427707663,-0.00037641136589177364,0.0,0.0,0.0,0.0,0.0,0.0,0.0,0.0,0.0,0.0013425118813539419,-0.013927411111188925,9.809151301444551,0.0,0.0,0.0,0.0,0.0,0.0,0.0,0.0,0.0
2025/05/06 15:48:34.709627217,1746539314,708768523,mA1/imu,0.04756628848849897,0.9988677480683082,0.0007892777740701757,0.00021704601071802492,0.0,0.0,0.0,0.0,0.0,0.0,0.0,0.0,0.0,-3.170718771411765e-05,0.0011844321814041823,-0.0003715160851794116,0.0,0.0,0.0,0.0,0.0,0.0,0.0,0.0,0.0,0.001541552949726709,-0.014199573563187306,9.80875371712482,0.0,0.0,0.0,0.0,0.0,0.0,0.0,0.0,0.0
2025/05/06 15:48:34.760037207,1746539314,759883694,mA1/imu,0.047557060578681996,0.9988681911950448,0.0007911013523725087,0.00019174593985458286,0.0,0.0,0.0,0.0,0.0,0.0,0.0,0.0,0.0,-1.9548588552114366e-05,0.0008932892371597974,-0.0003668937480829291,0.0,0.0,0.0,0.0,0.0,0.0,0.0,0.0,0.0,0.0020035736457227867,-0.014861410485446496,9.811181948990383,0.0,0.0,0.0,0.0,0.0,0.0,0.0,0.0,0.0
2025/05/06 15:48:34.811254902,1746539314,809697651,mA1/imu,0.04754794205985119,0.9988686275697726,0.0007922153269041806,0.00017452113816109402,0.0,0.0,0.0,0.0,0.0,0.0,0.0,0.0,0.0,-7.272084895393457e-06,0.0005485974220634319,-0.0003634823390544179,0.0,0.0,0.0,0.0,0.0,0.0,0.0,0.0,0.0,0.0022787095217258976,-0.015054701546678666,9.810801273443406,0.0,0.0,0.0,0.0,0.0,0.0,0.0,0.0,0.0
2025/05/06 15:48:34.860790385,1746539314,860660890,mA1/imu,0.04753889844534179,0.9988690591108581,0.0007925778841970086,0.0001664508644699805,0.0,0.0,0.0,0.0,0.0,0.0,0.0,0.0,0.0,5.710080683371783e-06,0.00017119008327439348,-0.0003608480198872198,0.0,0.0,0.0,0.0,0.0,0.0,0.0,0.0,0.0,0.002413104682973942,-0.01456877129894583,9.808948114411388,0.0,0.0,0.0,0.0,0.0,0.0,0.0,0.0,0.0
2025/05/06 15:48:34.911247260,1746539314,910800364,mA1/imu,0.04752992758926009,0.9988694860769705,0.0007921802101170618,0.0001679827474046621,0.0,0.0,0.0,0.0,0.0,0.0,0.0,0.0,0.0,1.8255371710207533e-05,-0.00022567564959911159,-0.0003580888513187619,0.0,0.0,0.0,0.0,0.0,0.0,0.0,0.0,0.0,0.00441581677508625,-0.014439594886287568,9.808574364124246,0.0,0.0,0.0,0.0,0.0,0.0,0.0,0.0,0.0
2025/05/06 15:48:34.963423168,1746539314,962890269,mA1/imu,0.047522842896034555,0.9988698225802649,0.0007907689016236238,0.00017783726558090305,0.0,0.0,0.0,0.0,0.0,0.0,0.0,0.0,0.0,4.3947111671809066e-05,-0.0005447948339180605,-0.00025221787751602084,0.0,0.0,0.0,0.0,0.0,0.0,0.0,0.0,0.0,0.006516604480103248,-0.015236257469248232,9.811047478329284,0.0,0.0,0.0,0.0,0.0,0.0,0.0,0.0,0.0
2025/05/06 15:48:35.9783357,1746539315,9331247,mA1/imu,0.047516563077445825,0.9988701192023652,0.0007885311279170636,0.00019853619337133077,0.0,0.0,0.0,0.0,0.0,0.0,0.0,0.0,0.0,5.290955684040868e-05,-0.0010048060386456878,-0.0002518058844317817,0.0,0.0,0.0,0.0,0.0,0.0,0.0,0.0,0.0,0.0042906117198487125,-0.015302185235670628,9.810696907703031,0.0,0.0,0.0,0.0,0.0,0.0,0.0,0.0,0.0
2025/05/06 15:48:35.62971856,1746539315,62527649,mA1/imu,0.04750852450113413,0.9988704966744494,0.0007858799680937295,0.00023101025887815483,0.0,0.0,0.0,0.0,0.0,0.0,0.0,0.0,0.0,4.429754056825655e-05,-0.0014503095933609575,-0.0003528009943222531,0.0,0.0,0.0,0.0,0.0,0.0,0.0,0.0,0.0,0.0013690711341848901,-0.014484713756580997,9.808920856998466,0.0,0.0,0.0,0.0,0.0,0.0,0.0,0.0,0.0
2025/05/06 15:48:35.110441816,1746539315,110113217,mA1/imu,0.04749982443149685,0.9988709030480729,0.0007828764075634204,0.0002698655865564889,0.0,0.0,0.0,0.0,0.0,0.0,0.0,0.0,0.0,4.769097883074787e-05,-0.0016261989897196042,-0.00034758611285063497,0.0,0.0,0.0,0.0,0.0,0.0,0.0,0.0,0.0,0.003154549050973724,-0.01458006044677097,9.80858100913057,0.0,0.0,0.0,0.0,0.0,0.0,0.0,0.0,0.0
2025/05/06 15:48:35.163145635,1746539315,162600267,mA1/imu,0.04749304104317674,0.9988712165586878,0.0007794402400938674,0.00031025143107419424,0.0,0.0,0.0,0.0,0.0,0.0,0.0,0.0,0.0,6.249756546281268e-05,-0.0016422187493700501,-0.00024063623693928882,0.0,0.0,0.0,0.0,0.0,0.0,0.0,0.0,0.0,0.0050233014865896765,-0.015444528121568886,9.811110227163898,0.0,0.0,0.0,0.0,0.0,0.0,0.0,0.0,0.0
2025/05/06 15:48:35.205493766,1746539315,205093368,mA1/imu,0.04748708717430942,0.9988714881662574,0.00077584605561973,0.00035318992620572297,0.0,0.0,0.0,0.0,0.0,0.0,0.0,0.0,0.0,6.046728066007654e-05,-0.0017618775013659477,-0.00023922795997874627,0.0,0.0,0.0,0.0,0.0,0.0,0.0,0.0,0.0,0.004894209688052668,-0.01536960710123876,9.810807973837342,0.0,0.0,0.0,0.0,0.0,0.0,0.0,0.0,0.0
2025/05/06 15:48:35.258334397,1746539315,258124387,mA1/imu,0.04748117102015159,0.9988717555277987,0.0007722661296780636,0.000397507728071863,0.0,0.0,0.0,0.0,0.0,0.0,0.0,0.0,0.0,5.662181072380594e-05,-0.0017738040314629676,-0.00023767569385034135,0.0,0.0,0.0,0.0,0.0,0.0,0.0,0.0,0.0,0.004317440460957153,-0.014798403879244937,9.809056481519917,0.0,0.0,0.0,0.0,0.0,0.0,0.0,0.0,0.0
2025/05/06 15:48:35.313224479,1746539315,311869105,mA1/imu,0.047475289919494894,0.9988720195661618,0.0007689009860861827,0.0004406428836553111,0.0,0.0,0.0,0.0,0.0,0.0,0.0,0.0,0.0,5.021518284689752e-05,-0.0016858320301137478,-0.0002366361356115652,0.0,0.0,0.0,0.0,0.0,0.0,0.0,0.0,0.0,0.004088240483382953,-0.014666816845651232,9.808741301027299,0.0,0.0,0.0,0.0,0.0,0.0,0.0,0.0,0.0
2025/05/06 15:48:35.369900411,1746539315,363606928,mA1/imu,0.0474694148384759,0.9988722829070728,0.000765932525432328,0.00048004403104659,0.0,0.0,0.0,0.0,0.0,0.0,0.0,0.0,0.0,3.964330738479617e-05,-0.0014975609693504532,-0.00023637286431591855,0.0,0.0,0.0,0.0,0.0,0.0,0.0,0.0,0.0,0.003715959689330331,-0.015282017246429708,9.811288166109446,0.0,0.0,0.0,0.0,0.0,0.0,0.0,0.0,0.0
2025/05/06 15:48:35.409355460,1746539315,408867666,mA1/imu,0.04746354597074572,0.9988725469552118,0.0007635165029936393,0.0005136006627009122,0.0,0.0,0.0,0.0,0.0,0.0,0.0,0.0,0.0,2.7074363639815378e-05,-0.0012339740520470187,-0.00023585184659899713,0.0,0.0,0.0,0.0,0.0,0.0,0.0,0.0,0.0,0.0037750060982415026,-0.015289035381186832,9.810978169252907,0.0,0.0,0.0,0.0,0.0,0.0,0.0,0.0,0.0
2025/05/06 15:48:35.466600371,1746539315,462954448,mA1/imu,0.04745768572185887,0.9988728130367088,0.000761765272096123,0.00053958847990226,0.0,0.0,0.0,0.0,0.0,0.0,0.0,0.0,0.0,1.537547469123981e-05,-0.0009064260016438632,-0.00023523690171454244,0.0,0.0,0.0,0.0,0.0,0.0,0.0,0.0,0.0,0.003657886756657026,-0.014715734558763379,9.809243332780978,0.0,0.0,0.0,0.0,0.0,0.0,0.0,0.0,0.0
2025/05/06 15:48:35.508846328,1746539315,507464465,mA1/imu,0.047451832152669036,0.9988730824654308,0.0007607547270743173,0.0005567796770932335,0.0,0.0,0.0,0.0,0.0,0.0,0.0,0.0,0.0,3.2651895603489207e-06,-0.0005390880093273724,-0.00023474339047074936,0.0,0.0,0.0,0.0,0.0,0.0,0.0,0.0,0.0,0.00378178960631974,-0.014722496247583004,9.808908655831965,0.0,0.0,0.0,0.0,0.0,0.0,0.0,0.0,0.0
2025/05/06 15:48:35.571986652,1746539315,563061672,mA1/imu,0.047446892278218286,0.9988733127078836,0.000760314028357718,0.0005652395032878842,0.0,0.0,0.0,0.0,0.0,0.0,0.0,0.0,0.0,8.050068732675222e-06,-0.0002244632043562862,-0.00014403790875174342,0.0,0.0,0.0,0.0,0.0,0.0,0.0,0.0,0.0,0.007819585691309467,-0.011499483759492633,9.812145624171945,0.0,0.0,0.0,0.0,0.0,0.0,0.0,0.0,0.0
2025/05/06 15:48:35.606575584,1746539315,605811517,mA1/imu,0.04744398602630094,0.9988734500350106,0.0007600087571252702,0.0005669142618215698,0.0,0.0,0.0,0.0,0.0,0.0,0.0,0.0,0.0,3.6461349206497227e-06,4.743694853960239e-05,-0.00011783410916873287,0.0,0.0,0.0,0.0,0.0,0.0,0.0,0.0,0.0,0.006349372557198889,-0.015551286803171862,9.811079713214319,0.0,0.0,0.0,0.0,0.0,0.0,0.0,0.0,0.0
2025/05/06 15:48:35.663571573,1746539315,662595262,mA1/imu,0.04743889967295745,0.9988736946210394,0.0007608576021889746,0.000560435226319655,0.0,0.0,0.0,0.0,0.0,0.0,0.0,0.0,0.0,-3.458743635949995e-05,0.000404246079050313,-0.0002408369372496128,0.0,0.0,0.0,0.0,0.0,0.0,0.0,0.0,0.0,0.004540313738916169,-0.014490221930597359,9.809282217132205,0.0,0.0,0.0,0.0,0.0,0.0,0.0,0.0,0.0
2025/05/06 15:48:35.710797480,1746539315,708450097,mA1/imu,0.04743286980843158,0.9988739880543884,0.0007626040178229424,0.0005452386355809564,0.0,0.0,0.0,0.0,0.0,0.0,0.0,0.0,0.0,-3.9640583531739754e-05,0.0007341337005394037,-0.00024115813036919642,0.0,0.0,0.0,0.0,0.0,0.0,0.0,0.0,0.0,0.006580401691870876,-0.016941587312176053,9.808906851611862,0.0,0.0,0.0,0.0,0.0,0.0,0.0,0.0,0.0
2025/05/06 15:48:35.764316400,1746539315,763250030,mA1/imu,0.04742889761938199,0.9988741866083182,0.0007643538169284834,0.0005241769007379008,0.0,0.0,0.0,0.0,0.0,0.0,0.0,0.0,0.0,-2.6826211613593727e-05,0.0009081233619737416,-0.00012287131473522325,0.0,0.0,0.0,0.0,0.0,0.0,0.0,0.0,0.0,0.00904166693073078,-0.015484518589842896,9.811345654470522,0.0,0.0,0.0,0.0,0.0,0.0,0.0,0.0,0.0
2025/05/06 15:48:35.811617548,1746539315,810985011,mA1/imu,0.047425750134912494,0.9988743470271582,0.0007662993042532504,0.0004998605659761056,0.0,0.0,0.0,0.0,0.0,0.0,0.0,0.0,0.0,-3.5784945138143545e-05,0.0010037289747927272,-0.00012696496689864204,0.0,0.0,0.0,0.0,0.0,0.0,0.0,0.0,0.0,0.010992033804478503,-0.015443169407184687,9.810966125486626,0.0,0.0,0.0,0.0,0.0,0.0,0.0,0.0,0.0
2025/05/06 15:48:35.869210508,1746539315,863365227,mA1/imu,0.04742428427666948,0.9988744282814284,0.0007683549592050205,0.0004726700243491078,0.0,0.0,0.0,0.0,0.0,0.0,0.0,0.0,0.0,-2.5240550111741705e-05,0.0011017710674563845,-2.957390191401402e-05,0.0,0.0,0.0,0.0,0.0,0.0,0.0,0.0,0.0,0.01354427473653087,-0.015028739128633199,9.80909960364081,0.0,0.0,0.0,0.0,0.0,0.0,0.0,0.0,0.0
2025/05/06 15:48:35.905759878,1746539315,905598609,mA1/imu,0.04742342729910297,0.9988744795255656,0.0007698293027816006,0.0004472790872157992,0.0,0.0,0.0,0.0,0.0,0.0,0.0,0.0,0.0,-1.0930280603619859e-05,0.0009535217122556633,-3.6159596662086116e-05,0.0,0.0,0.0,0.0,0.0,0.0,0.0,0.0,0.0,0.013501486581856452,-0.013791976488961513,9.808705741948613,0.0,0.0,0.0,0.0,0.0,0.0,0.0,0.0,0.0
2025/05/06 15:48:35.966959088,1746539315,962843642,mA1/imu,0.04742241004041329,0.9988745357703311,0.0007713462235339458,0.0004264276818644582,0.0,0.0,0.0,0.0,0.0,0.0,0.0,0.0,0.0,-2.5907433642317043e-05,0.0007517148902379108,-4.2687911205876527e-05,0.0,0.0,0.0,0.0,0.0,0.0,0.0,0.0,0.0,0.013631422527637316,-0.015064096354849286,9.811174296051092,0.0,0.0,0.0,0.0,0.0,0.0,0.0,0.0,0.0
2025/05/06 15:48:36.37922248,1746539316,14807682,mA1/imu,0.04742123526253715,0.9988745967643194,0.0007728478984076954,0.0004112070270583594,0.0,0.0,0.0,0.0,0.0,0.0,0.0,0.0,0.0,-3.4868351030831084e-05,0.0005129726912857149,-4.912842939876538e-05,0.0,0.0,0.0,0.0,0.0,0.0,0.0,0.0,0.0,0.013542523146830687,-0.015331437626135936,9.81078744146572,0.0,0.0,0.0,0.0,0.0,0.0,0.0,0.0,0.0
2025/05/06 15:48:36.59783599,1746539316,58367889,mA1/imu,0.047419223681921155,0.998874694899107,0.0007742152146929882,0.0004021273692490338,0.0,0.0,0.0,0.0,0.0,0.0,0.0,0.0,0.0,-4.13561105931074e-05,0.000254921180123765,-0.00011439210252716165,0.0,0.0,0.0,0.0,0.0,0.0,0.0,0.0,0.0,0.011338886672328508,-0.015427611486237775,9.80873793205715,0.0,0.0,0.0,0.0,0.0,0.0,0.0,0.0,0.0
2025/05/06 15:48:36.122176696,1746539316,116658158,mA1/imu,0.04741611894495869,0.998874842839526,0.0007755553991022605,0.0003981461197665581,0.0,0.0,0.0,0.0,0.0,0.0,0.0,0.0,0.0,-4.6543008734367265e-05,0.00010653652481480367,-0.00012583877308569382,0.0,0.0,0.0,0.0,0.0,0.0,0.0,0.0,0.0,0.009379773106576244,-0.014873920099801584,9.808545161839508,0.0,0.0,0.0,0.0,0.0,0.0,0.0,0.0,0.0
2025/05/06 15:48:36.167460318,1746539316,164052577,mA1/imu,0.0474129147162159,0.9988749941798236,0.000776793113921355,0.000397634038114536,0.0,0.0,0.0,0.0,0.0,0.0,0.0,0.0,0.0,-4.877992348798475e-05,-3.2561807715144425e-05,-0.000129884693572735,0.0,0.0,0.0,0.0,0.0,0.0,0.0,0.0,0.0,0.009282866423954744,-0.015504387595440833,9.81103009297894,0.0,0.0,0.0,0.0,0.0,0.0,0.0,0.0,0.0
2025/05/06 15:48:36.227591176,1746539316,208666710,mA1/imu,0.04740961432358893,0.9988751488389704,0.0007778672781858175,0.0004005297876702051,0.0,0.0,0.0,0.0,0.0,0.0,0.0,0.0,0.0,-4.8802588161309896e-05,-0.0001662881803100434,-0.0001337886137918042,0.0,0.0,0.0,0.0,0.0,0.0,0.0,0.0,0.0,0.009212775334655827,-0.015531876579960902,9.810681332766013,0.0,0.0,0.0,0.0,0.0,0.0,0.0,0.0,0.0
2025/05/06 15:48:36.295290167,1746539316,267269825,mA1/imu,0.04740688492531444,0.9988752753173328,0.0007785395903370079,0.00040681384784750977,0.0,0.0,0.0,0.0,0.0,0.0,0.0,0.0,0.0,-3.0183584949405237e-05,-0.00029335364463623203,-8.018184066755338e-05,0.0,0.0,0.0,0.0,0.0,0.0,0.0,0.0,0.0,0.011194746576090911,-0.01437900372432998,9.808713003131873,0.0,0.0,0.0,0.0,0.0,0.0,0.0,0.0,0.0
2025/05/06 15:48:36.316719524,1746539316,310802270,mA1/imu,0.04740498561293686,0.9988753609745197,0.0007787021602765557,0.00041737274231456664,0.0,0.0,0.0,0.0,0.0,0.0,0.0,0.0,0.0,-2.3305398700723882e-05,-0.0005010346171245614,-7.826547014410339e-05,0.0,0.0,0.0,0.0,0.0,0.0,0.0,0.0,0.0,0.010826901179752896,-0.01518856856018598,9.808532156058636,0.0,0.0,0.0,0.0,0.0,0.0,0.0,0.0,0.0
2025/05/06 15:48:36.371384371,1746539316,363851382,mA1/imu,0.04740118599894554,0.9988755341794809,0.0007786386585814049,0.00043417207333755394,0.0,0.0,0.0,0.0,0.0,0.0,0.0,0.0,0.0,-3.525543125394662e-05,-0.0007393022783311462,-0.00018422859753362703,0.0,0.0,0.0,0.0,0.0,0.0,0.0,0.0,0.0,0.00811014644585933,-0.015540405067133058,9.811061691476155,0.0,0.0,0.0,0.0,0.0,0.0,0.0,0.0,0.0
2025/05/06 15:48:36.416228744,1746539316,415612149,mA1/imu,0.047396593614989734,0.9988757438017161,0.0007785732822310914,0.0004529700964582234,0.0,0.0,0.0,0.0,0.0,0.0,0.0,0.0,0.0,-3.223433794190201e-05,-0.0007686825098180187,-0.0001847471067584199,0.0,0.0,0.0,0.0,0.0,0.0,0.0,0.0,0.0,0.010521400483391528,-0.015606598021537263,9.810744039799086,0.0,0.0,0.0,0.0,0.0,0.0,0.0,0.0,0.0
2025/05/06 15:48:36.475241628,1746539316,455963397,mA1/imu,0.047393320013366755,0.9988758908894251,0.0007783207456690512,0.0004712056715029167,0.0,0.0,0.0,0.0,0.0,0.0,0.0,0.0,0.0,-1.9034254541335168e-05,-0.0007414412557706352,-0.00012020451444319649,0.0,0.0,0.0,0.0,0.0,0.0,0.0,0.0,0.0,0.01178030931730484,-0.01516902356407246,9.809010615939643,0.0,0.0,0.0,0.0,0.0,0.0,0.0,0.0,0.0
2025/05/06 15:48:36.515243778,1746539316,510789953,mA1/imu,0.04739029473772769,0.9988760255694126,0.0007777419051343016,0.0004905352735345505,0.0,0.0,0.0,0.0,0.0,0.0,0.0,0.0,0.0,-8.997783369092549e-06,-0.000787785392017404,-0.00012274946313421003,0.0,0.0,0.0,0.0,0.0,0.0,0.0,0.0,0.0,0.011610941104056985,-0.01512141777754249,9.808711107895364,0.0,0.0,0.0,0.0,0.0,0.0,0.0,0.0,0.0
2025/05/06 15:48:36.558369450,1746539316,556764728,mA1/imu,0.04738720767196115,0.9988761628014761,0.0007769284076821542,0.0005102139772960299,0.0,0.0,0.0,0.0,0.0,0.0,0.0,0.0,0.0,-1.2846024972397927e-06,-0.00078091159727778,-0.00012520859664549692,0.0,0.0,0.0,0.0,0.0,0.0,0.0,0.0,0.0,0.011192267336307014,-0.015691415974113814,9.811293638097103,0.0,0.0,0.0,0.0,0.0,0.0,0.0,0.0,0.0
2025/05/06 15:48:36.620919878,1746539316,606497317,mA1/imu,0.04738406029345314,0.998876303110823,0.0007759375760885458,0.0005289939884112721,0.0,0.0,0.0,0.0,0.0,0.0,0.0,0.0,0.0,6.46808465730203e-06,-0.0007265505669270874,-0.00012756035708571398,0.0,0.0,0.0,0.0,0.0,0.0,0.0,0.0,0.0,0.01106332851138885,-0.015667720029094636,9.810997226923101,0.0,0.0,0.0,0.0,0.0,0.0,0.0,0.0,0.0
2025/05/06 15:48:36.671106869,1746539316,654288751,mA1/imu,0.047380080700447115,0.9988764835046112,0.0007748420211989447,0.0005461447822597084,0.0,0.0,0.0,0.0,0.0,0.0,0.0,0.0,0.0,8.315718622098867e-06,-0.0006781918687509858,-0.0002070547706126032,0.0,0.0,0.0,0.0,0.0,0.0,0.0,0.0,0.0,0.013734783826146676,-0.017295710397199182,9.80870892758407,0.0,0.0,0.0,0.0,0.0,0.0,0.0,0.0,0.0
2025/05/06 15:48:36.707520284,1746539316,706637361,mA1/imu,0.047374289830202955,0.9988767510960508,0.0007740636404741679,0.0005600074666987947,0.0,0.0,0.0,0.0,0.0,0.0,0.0,0.0,0.0,7.854241613907287e-06,-0.00044024467330252344,-0.00023177996415772316,0.0,0.0,0.0,0.0,0.0,0.0,0.0,0.0,0.0,0.006598503029188833,-0.0149525792364837,9.80892860992196,0.0,0.0,0.0,0.0,0.0,0.0,0.0,0.0,0.0
2025/05/06 15:48:36.762276912,1746539316,760872885,mA1/imu,0.047369177722634256,0.9988769902522037,0.00077346804268662,0.0005666513632547044,0.0,0.0,0.0,0.0,0.0,0.0,0.0,0.0,0.0,1.5819977569148635e-05,-0.0001400145500874258,-0.00017376467201136303,0.0,0.0,0.0,0.0,0.0,0.0,0.0,0.0,0.0,0.008684229261200584,-0.014999624755332668,9.811640941845281,0.0,0.0,0.0,0.0,0.0,0.0,0.0,0.0,0.0
2025/05/06 15:48:36.844503244,1746539316,815938952,mA1/imu,0.0473649801761464,0.9988771893952789,0.0007728756766843233,0.0005672934776746312,0.0,0.0,0.0,0.0,0.0,0.0,0.0,0.0,0.0,2.4154538267215372e-05,4.114690251109751e-05,-0.00016917889213867695,0.0,0.0,0.0,0.0,0.0,0.0,0.0,0.0,0.0,0.01058001995401835,-0.01563110867566655,9.81113195200374,0.0,0.0,0.0,0.0,0.0,0.0,0.0,0.0,0.0
2025/05/06 15:48:36.888030850,1746539316,866869222,mA1/imu,0.0473607148385691,0.9988773940857388,0.0007723138614451352,0.0005637426387850904,0.0,0.0,0.0,0.0,0.0,0.0,0.0,0.0,0.0,3.1262109373292846e-05,0.00020622020853837717,-0.00017172610141278342,0.0,0.0,0.0,0.0,0.0,0.0,0.0,0.0,0.0,0.010622029425050111,-0.015018696833711357,9.809323891271406,0.0,0.0,0.0,0.0,0.0,0.0,0.0,0.0,0.0
2025/05/06 15:48:36.923074898,1746539316,908806447,mA1/imu,0.04735638334125528,0.9988776040387004,0.0007718176463716381,0.0005562411907950627,0.0,0.0,0.0,0.0,0.0,0.0,0.0,0.0,0.0,3.647085218231098e-05,0.00035842397873951524,-0.00017423682413167813,0.0,0.0,0.0,0.0,0.0,0.0,0.0,0.0,0.0,0.010632265254676223,-0.01502457988358992,9.808962784730577,0.0,0.0,0.0,0.0,0.0,0.0,0.0,0.0,0.0
2025/05/06 15:48:36.979606561,1746539316,963017161,mA1/imu,0.04735198704624401,0.9988778188123381,0.0007714250623634902,0.0005452621858811857,0.0,0.0,0.0,0.0,0.0,0.0,0.0,0.0,0.0,3.69837096119625e-05,0.0004876735585843258,-0.00017672421447961637,0.0,0.0,0.0,0.0,0.0,0.0,0.0,0.0,0.0,0.010762994262245158,-0.0156339279813095,9.811436837966738,0.0,0.0,0.0,0.0,0.0,0.0,0.0,0.0,0.0
2025/05/06 15:48:37.8317258,1746539317,6544006,mA1/imu,0.047347527205933625,0.998878037873303,0.0007711504088974446,0.0005314592276474576,0.0,0.0,0.0,0.0,0.0,0.0,0.0,0.0,0.0,3.581288593628289e-05,0.0005891958063089442,-0.00017917323156375108,0.0,0.0,0.0,0.0,0.0,0.0,0.0,0.0,0.0,0.01077931163051434,-0.015625175152221237,9.811050629782223,0.0,0.0,0.0,0.0,0.0,0.0,0.0,0.0,0.0
2025/05/06 15:48:37.73649061,1746539317,63778854,mA1/imu,0.04734300513387118,0.9988782608345014,0.0007707262737721587,0.000515633733414563,0.0,0.0,0.0,0.0,0.0,0.0,0.0,0.0,0.0,4.5545997880463514e-05,0.0006551761806877525,-0.00018158533798240894,0.0,0.0,0.0,0.0,0.0,0.0,0.0,0.0,0.0,0.01095805940311518,-0.014345246693969731,9.809152900715338,0.0,0.0,0.0,0.0,0.0,0.0,0.0,0.0,0.0
2025/05/06 15:48:37.116871532,1746539317,113449937,mA1/imu,0.0473384226523335,0.998878486847274,0.0007705365721374489,0.0004985257070744712,0.0,0.0,0.0,0.0,0.0,0.0,0.0,0.0,0.0,3.7360951028985945e-05,0.0007102910939643573,-0.00018384713585839122,0.0,0.0,0.0,0.0,0.0,0.0,0.0,0.0,0.0,0.008839002071155183,-0.014759965353742953,9.80873150310261,0.0,0.0,0.0,0.0,0.0,0.0,0.0,0.0,0.0
2025/05/06 15:48:37.155212776,1746539317,154332606,mA1/imu,0.047332442925936136,0.9988787785393528,0.0007706400397213525,0.0004813982993916796,0.0,0.0,0.0,0.0,0.0,0.0,0.0,0.0,0.0,2.206093431296576e-05,0.0007073976856307323,-0.0002515703600886616,0.0,0.0,0.0,0.0,0.0,0.0,0.0,0.0,0.0,0.00745560898438845,-0.015384396278995441,9.811211782944321,0.0,0.0,0.0,0.0,0.0,0.0,0.0,0.0,0.0
2025/05/06 15:48:37.287158506,1746539317,209206560,mA1/imu,0.047326144947433764,0.9988790855112066,0.0007711235327821274,0.00046249454831339624,0.0,0.0,0.0,0.0,0.0,0.0,0.0,0.0,0.0,1.1770509958650016e-05,0.0007828429658866425,-0.0002516858749738424,0.0,0.0,0.0,0.0,0.0,0.0,0.0,0.0,0.0,0.0075569009675570805,-0.015516073188091537,9.810811114804867,0.0,0.0,0.0,0.0,0.0,0.0,0.0,0.0,0.0
2025/05/06 15:48:37.390743528,1746539317,254397128,mA1/imu,0.04731984220481091,0.9988793925977769,0.0007718797931590094,0.000442468973961153,0.0,0.0,0.0,0.0,0.0,0.0,0.0,0.0,0.0,4.069912782265287e-06,0.00080789691161499,-0.00025184569228295725,0.0,0.0,0.0,0.0,0.0,0.0,0.0,0.0,0.0,0.007888429360989968,-0.015004966116870272,9.808865964353279,0.0,0.0,0.0,0.0,0.0,0.0,0.0,0.0,0.0
2025/05/06 15:48:37.431071057,1746539317,315848969,mA1/imu,0.047313534271555754,0.9988796993435483,0.0007728140635635679,0.0004224600576425122,0.0,0.0,0.0,0.0,0.0,0.0,0.0,0.0,0.0,-1.4306312323037023e-06,0.0007993282505848471,-0.00025200080581131546,0.0,0.0,0.0,0.0,0.0,0.0,0.0,0.0,0.0,0.006101269728358832,-0.01488445147123918,9.808488112478614,0.0,0.0,0.0,0.0,0.0,0.0,0.0,0.0,0.0
2025/05/06 15:48:37.443556068,1746539317,360245838,mA1/imu,0.0473051122513422,0.9988801054167542,0.00077445423993304,0.00040196782463719103,0.0,0.0,0.0,0.0,0.0,0.0,0.0,0.0,0.0,-4.0166584263047687e-05,0.0008431725583881192,-0.0003712649994827894,0.0,0.0,0.0,0.0,0.0,0.0,0.0,0.0,0.0,0.004373934605345046,-0.01525503424712691,9.811001213961422,0.0,0.0,0.0,0.0,0.0,0.0,0.0,0.0,0.0
2025/05/06 15:48:37.479669145,1746539317,413640147,mA1/imu,0.047295887897760805,0.998880548945423,0.0007766262842628981,0.0003804971320271693,0.0,0.0,0.0,0.0,0.0,0.0,0.0,0.0,0.0,-5.058735009996965e-05,0.0008831378788431505,-0.0003669415808393446,0.0,0.0,0.0,0.0,0.0,0.0,0.0,0.0,0.0,0.0020841629981326847,-0.015468405585722477,9.810641530882872,0.0,0.0,0.0,0.0,0.0,0.0,0.0,0.0,0.0
2025/05/06 15:48:37.515913178,1746539317,455060935,mA1/imu,0.04728544417935968,0.9988810491099211,0.0007792650107115789,0.0003595050309807732,0.0,0.0,0.0,0.0,0.0,0.0,0.0,0.0,0.0,-6.928240709242531e-05,0.0008551795938222067,-0.00042745463306596317,0.0,0.0,0.0,0.0,0.0,0.0,0.0,0.0,0.0,0.0009893771784612393,-0.014879089220869423,9.80879436452457,0.0,0.0,0.0,0.0,0.0,0.0,0.0,0.0,0.0
2025/05/06 15:48:37.542064757,1746539317,508866204,mA1/imu,0.04727484643831376,0.9988815562087434,0.0007820720845125452,0.0003375255360641466,0.0,0.0,0.0,0.0,0.0,0.0,0.0,0.0,0.0,-7.03137326306642e-05,0.0009034807036369014,-0.00042111060479384476,0.0,0.0,0.0,0.0,0.0,0.0,0.0,0.0,0.0,-0.0006376542953143629,-0.014987525860553644,9.808481773378748,0.0,0.0,0.0,0.0,0.0,0.0,0.0,0.0,0.0
2025/05/06 15:48:37.616562965,1746539317,565191227,mA1/imu,0.047262280674581374,0.9988821559377724,0.0007854137035016753,0.00031384687200914323,0.0,0.0,0.0,0.0,0.0,0.0,0.0,0.0,0.0,-9.714874966171276e-05,0.0009895236868932547,-0.0005347733498605313,0.0,0.0,0.0,0.0,0.0,0.0,0.0,0.0,0.0,-0.002054811270568613,-0.015286761899839345,9.81108970340499,0.0,0.0,0.0,0.0,0.0,0.0,0.0,0.0,0.0
2025/05/06 15:48:37.680779823,1746539317,608428393,mA1/imu,0.04724905507351479,0.9988827864420909,0.0007889739387252129,0.00028855583175858634,0.0,0.0,0.0,0.0,0.0,0.0,0.0,0.0,0.0,-9.278774932891377e-05,0.0010267116719812903,-0.000524925753052699,0.0,0.0,0.0,0.0,0.0,0.0,0.0,0.0,0.0,-0.0017183050221218849,-0.01546457809031409,9.81078030078481,0.0,0.0,0.0,0.0,0.0,0.0,0.0,0.0,0.0
2025/05/06 15:48:37.738445759,1746539317,669048133,mA1/imu,0.04723606563840713,0.9988834050763079,0.0007922981526089201,0.0002634953549528863,0.0,0.0,0.0,0.0,0.0,0.0,0.0,0.0,0.0,-8.086818303715551e-05,0.0009864016873330275,-0.0005156973470383125,0.0,0.0,0.0,0.0,0.0,0.0,0.0,0.0,0.0,-0.0009480997903855374,-0.01497856880484396,9.809004091558075,0.0,0.0,0.0,0.0,0.0,0.0,0.0,0.0,0.0
2025/05/06 15:48:37.758777789,1746539317,709990658,mA1/imu,0.04722329781494102,0.9988840122957926,0.0007951929465294599,0.00024039866477515467,0.0,0.0,0.0,0.0,0.0,0.0,0.0,0.0,0.0,-6.504957906107716e-05,0.0008805880555000657,-0.0005071519398220155,0.0,0.0,0.0,0.0,0.0,0.0,0.0,0.0,0.0,-0.0004352527279463739,-0.014996894331287869,9.808720951036989,0.0,0.0,0.0,0.0,0.0,0.0,0.0,0.0,0.0
2025/05/06 15:48:37.833263036,1746539317,758566517,mA1/imu,0.04721073543934878,0.9988846087665446,0.0007974957759032385,0.00022097300859335347,0.0,0.0,0.0,0.0,0.0,0.0,0.0,0.0,0.0,-4.7975192464427365e-05,0.000707603565362685,-0.0004993278900323617,0.0,0.0,0.0,0.0,0.0,0.0,0.0,0.0,0.0,6.034025801423875e-05,-0.015597240560188628,9.811369253736364,0.0,0.0,0.0,0.0,0.0,0.0,0.0,0.0,0.0
2025/05/06 15:48:37.864296863,1746539317,804238143,mA1/imu,0.047198367696302264,0.998885195055566,0.0007990831948952636,0.00020652277360659767,0.0,0.0,0.0,0.0,0.0,0.0,0.0,0.0,0.0,-2.8961897561446102e-05,0.0004908671118055269,-0.0004918438994007251,0.0,0.0,0.0,0.0,0.0,0.0,0.0,0.0,0.0,0.00022132885028460295,-0.01560157423056917,9.811067123148037,0.0,0.0,0.0,0.0,0.0,0.0,0.0,0.0,0.0
2025/05/06 15:48:37.892641102,1746539317,858978430,mA1/imu,0.0471861873556573,0.9988857716111101,0.0007998657500270753,0.00019801640283577458,0.0,0.0,0.0,0.0,0.0,0.0,0.0,0.0,0.0,-6.856267623606624e-06,0.00023895636512726945,-0.00048459792949835,0.0,0.0,0.0,0.0,0.0,0.0,0.0,0.0,0.0,0.000568677115617726,-0.015051437832445802,9.80926137808609,0.0,0.0,0.0,0.0,0.0,0.0,0.0,0.0,0.0
2025/05/06 15:48:37.977875916,1746539317,910461733,mA1/imu,0.04717418867911016,0.9988863387755347,0.0007998115005359189,0.00019603989124544527,0.0,0.0,0.0,0.0,0.0,0.0,0.0,0.0,0.0,1.4993523536497639e-05,-2.826587362132355e-05,-0.0004776380598177792,0.0,0.0,0.0,0.0,0.0,0.0,0.0,0.0,0.0,0.0006535525310011159,-0.01506521898179392,9.808941542297443,0.0,0.0,0.0,0.0,0.0,0.0,0.0,0.0,0.0
2025/05/06 15:48:38.6413637,1746539317,955566827,mA1/imu,0.0471623647852157,0.9988868968807473,0.0007989401418929876,0.0002007049262582628,0.0,0.0,0.0,0.0,0.0,0.0,0.0,0.0,0.0,3.3773753188177636e-05,-0.0002920936344852842,-0.0004710110346528538,0.0,0.0,0.0,0.0,0.0,0.0,0.0,0.0,0.0,0.0006113982228562426,-0.01564396602139593,9.811534118844124,0.0,0.0,0.0,0.0,0.0,0.0,0.0,0.0,0.0
2025/05/06 15:48:38.47754316,1746539318,7020760,mA1/imu,0.047150709486743714,0.9988874461544035,0.0007973005045142793,0.0002117119172483165,0.0,0.0,0.0,0.0,0.0,0.0,0.0,0.0,0.0,5.0830819410979464e-05,-0.0005401525035686773,-0.00046452528235029844,0.0,0.0,0.0,0.0,0.0,0.0,0.0,0.0,0.0,0.0007485837632891464,-0.01566277854141621,9.811184594416666,0.0,0.0,0.0,0.0,0.0,0.0,0.0,0.0,0.0
2025/05/06 15:48:38.78759618,1746539318,67233537,mA1/imu,0.047139219256028556,0.9988879866237584,0.0007949706160391215,0.00022849154424080178,0.0,0.0,0.0,0.0,0.0,0.0,0.0,0.0,0.0,6.72427093180827e-05,-0.0007589172544941975,-0.00045812457413586013,0.0,0.0,0.0,0.0,0.0,0.0,0.0,0.0,0.0,0.0006359700714368378,-0.015102897411976887,9.809299571234082,0.0,0.0,0.0,0.0,0.0,0.0,0.0,0.0,0.0
2025/05/06 15:48:38.112663033,1746539318,110676194,mA1/imu,0.047127889256125266,0.9988885183623555,0.0007920719021765121,0.00025012041530587015,0.0,0.0,0.0,0.0,0.0,0.0,0.0,0.0,0.0,8.042856609038264e-05,-0.0009365706377925896,-0.0004519343876907892,0.0,0.0,0.0,0.0,0.0,0.0,0.0,0.0,0.0,0.0006656234470796291,-0.015112795269493405,9.808928741261312,0.0,0.0,0.0,0.0,0.0,0.0,0.0,0.0,0.0
2025/05/06 15:48:38.177222856,1746539318,165270828,mA1/imu,0.047116713080749564,0.9988890415792081,0.0007887635648431374,0.00027534247099497136,0.0,0.0,0.0,0.0,0.0,0.0,0.0,0.0,0.0,8.753804675645613e-05,-0.001057101695281049,-0.00044602832177105116,0.0,0.0,0.0,0.0,0.0,0.0,0.0,0.0,0.0,0.00035394164132485865,-0.015688262092814924,9.811447878961562,0.0,0.0,0.0,0.0,0.0,0.0,0.0,0.0,0.0
2025/05/06 15:48:38.233924577,1746539318,204557705,mA1/imu,0.0471056839954469,0.9988895566312299,0.0007852071670224582,0.0003027178402977701,0.0,0.0,0.0,0.0,0.0,0.0,0.0,0.0,0.0,9.095022875372465e-05,-0.0011208004386274067,-0.00044027908127514,0.0,0.0,0.0,0.0,0.0,0.0,0.0,0.0,0.0,0.0003885056463184145,-0.015678522110377315,9.811053727808138,0.0,0.0,0.0,0.0,0.0,0.0,0.0,0.0,0.0
2025/05/06 15:48:38.277711586,1746539318,262326041,mA1/imu,0.04709477926144987,0.9988900647515884,0.0007815736864591135,0.00033083146066958865,0.0,0.0,0.0,0.0,0.0,0.0,0.0,0.0,0.0,9.135922957447605e-05,-0.0011287817743947381,-0.00043604149463649633,0.0,0.0,0.0,0.0,0.0,0.0,0.0,0.0,0.0,0.0004534165512293537,-0.015264673231432655,9.809097005038483,0.0,0.0,0.0,0.0,0.0,0.0,0.0,0.0,0.0
2025/05/06 15:48:38.318048056,1746539318,312625542,mA1/imu,0.04708396948938734,0.9988905676119728,0.0007780493961873515,0.0003583184207460018,0.0,0.0,0.0,0.0,0.0,0.0,0.0,0.0,0.0,8.778803525564791e-05,-0.0010808573244136313,-0.00043202901897938334,0.0,0.0,0.0,0.0,0.0,0.0,0.0,0.0,0.0,0.0005907975154316597,-0.015085565883636628,9.808691466576587,0.0,0.0,0.0,0.0,0.0,0.0,0.0,0.0,0.0
2025/05/06 15:48:38.361644279,1746539318,356529185,mA1/imu,0.047079133066703055,0.9988907920804101,0.0007747494792776561,0.0003748198273118271,0.0,0.0,0.0,0.0,0.0,0.0,0.0,0.0,0.0,9.753730480882918e-05,-0.00048647608209761946,-8.785955305516373e-05,0.0,0.0,0.0,0.0,0.0,0.0,0.0,0.0,0.0,0.0017713325435150034,-0.01473261015732727,9.811167317309993,0.0,0.0,0.0,0.0,0.0,0.0,0.0,0.0,0.0
2025/05/06 15:48:38.414585081,1746539318,410898199,mA1/imu,0.04707731250325818,0.9988908761093327,0.0007718002991238744,0.0003854832016253062,0.0,0.0,0.0,0.0,0.0,0.0,0.0,0.0,0.0,9.656946751080423e-05,-0.0003917677981717697,-6.361783477178109e-05,0.0,0.0,0.0,0.0,0.0,0.0,0.0,0.0,0.0,0.0018286719595246286,-0.014825874871061549,9.81075107204227,0.0,0.0,0.0,0.0,0.0,0.0,0.0,0.0,0.0
2025/05/06 15:48:38.468356915,1746539318,460291331,mA1/imu,0.047076088101616675,0.9988909328476283,0.0007690244871587945,0.0003934528967439257,0.0,0.0,0.0,0.0,0.0,0.0,0.0,0.0,0.0,9.41607722799977e-05,-0.0002759537607827121,-3.9842482773697866e-05,0.0,0.0,0.0,0.0,0.0,0.0,0.0,0.0,0.0,0.0018560126642534567,-0.014310175175365402,9.808842036139223,0.0,0.0,0.0,0.0,0.0,0.0,0.0,0.0,0.0
2025/05/06 15:48:38.512721061,1746539318,508594955,mA1/imu,0.047075448730047494,0.9988909630360512,0.0007664383827133305,0.00039832647450174395,0.0,0.0,0.0,0.0,0.0,0.0,0.0,0.0,0.0,9.347197330195092e-05,-0.00014712946876662577,-1.6482556436195114e-05,0.0,0.0,0.0,0.0,0.0,0.0,0.0,0.0,0.0,0.0019154684108507163,-0.013967633386376433,9.808475011245703,0.0,0.0,0.0,0.0,0.0,0.0,0.0,0.0,0.0
2025/05/06 15:48:38.586081459,1746539318,560605193,mA1/imu,0.04707538043035758,0.9988909672851504,0.0007642699678600161,0.00039990610138912545,0.0,0.0,0.0,0.0,0.0,0.0,0.0,0.0,0.0,7.773073864234418e-05,-1.41381427596928e-05,6.192284730805687e-06,0.0,0.0,0.0,0.0,0.0,0.0,0.0,0.0,0.0,0.002104904422975268,-0.014845005904391298,9.811001158043334,0.0,0.0,0.0,0.0,0.0,0.0,0.0,0.0,0.0
2025/05/06 15:48:38.671730198,1746539318,610937063,mA1/imu,0.047075868390690154,0.9988909461921546,0.000762647694513555,0.00039824502338649584,0.0,0.0,0.0,0.0,0.0,0.0,0.0,0.0,0.0,6.018204980071784e-05,0.00011356991651492969,2.8421584213070554e-05,0.0,0.0,0.0,0.0,0.0,0.0,0.0,0.0,0.0,0.0022459290082013266,-0.014941019764739275,9.810648761120838,0.0,0.0,0.0,0.0,0.0,0.0,0.0,0.0,0.0
2025/05/06 15:48:38.776294341,1746539318,666139491,mA1/imu,0.04707690260506173,0.9988909000793703,0.0007616054909027224,0.0003936201408664528,0.0,0.0,0.0,0.0,0.0,0.0,0.0,0.0,0.0,4.2717257957392586e-05,0.0002265446088636572,5.0218997202470825e-05,0.0,0.0,0.0,0.0,0.0,0.0,0.0,0.0,0.0,0.002505849133180439,-0.014408013369348834,9.808839251536085,0.0,0.0,0.0,0.0,0.0,0.0,0.0,0.0,0.0
2025/05/06 15:48:38.787788013,1746539318,708243138,mA1/imu,0.04707847247555932,0.9988908291844033,0.0007611699694366431,0.00038655004950893,0.0,0.0,0.0,0.0,0.0,0.0,0.0,0.0,0.0,2.3540417004393596e-05,0.0003068885587970529,7.148962865335202e-05,0.0,0.0,0.0,0.0,0.0,0.0,0.0,0.0,0.0,0.00445487925630242,-0.01443025840783066,9.808516854986596,0.0,0.0,0.0,0.0,0.0,0.0,0.0,0.0,0.0
2025/05/06 15:48:38.816614578,1746539318,754770910,mA1/imu,0.047079219516338686,0.9988907963313931,0.0007611326478668218,0.00038048818648209155,0.0,0.0,0.0,0.0,0.0,0.0,0.0,0.0,0.0,2.34090755922614e-06,0.00020312515732989677,9.09502436212375e-06,0.0,0.0,0.0,0.0,0.0,0.0,0.0,0.0,0.0,0.0055926734253635806,-0.0159956060172051,9.811100017209089,0.0,0.0,0.0,0.0,0.0,0.0,0.0,0.0,0.0
2025/05/06 15:48:38.842510502,1746539318,823259233,mA1/imu,0.04707934312336244,0.9988907922244362,0.0007611449550726813,0.00037592375310028825,0.0,0.0,0.0,0.0,0.0,0.0,0.0,0.0,0.0,-1.1675671679867632e-05,0.00015863899724379677,2.362964551482166e-06,0.0,0.0,0.0,0.0,0.0,0.0,0.0,0.0,0.0,0.007450171905412388,-0.014780719577044753,9.81078676664629,0.0,0.0,0.0,0.0,0.0,0.0,0.0,0.0,0.0
2025/05/06 15:48:38.858558657,1746539318,857517972,mA1/imu,0.04708141133706437,0.9988906949920825,0.0007616234471572263,0.0003742919571591289,0.0,0.0,0.0,0.0,0.0,0.0,0.0,0.0,0.0,-2.1830889031419696e-05,-1.1487123146404399e-05,0.00011516538274580952,0.0,0.0,0.0,0.0,0.0,0.0,0.0,0.0,0.0,0.009848499630990517,-0.015190663913015285,9.809122415365227,0.0,0.0,0.0,0.0,0.0,0.0,0.0,0.0,0.0
2025/05/06 15:48:38.941788270,1746539318,907296191,mA1/imu,0.047084153736451334,0.9988905641648451,0.000762097329191707,0.00037748777544403654,0.0,0.0,0.0,0.0,0.0,0.0,0.0,0.0,0.0,-4.218324545180099e-05,-0.00020221311448914632,0.0001061256321621801,0.0,0.0,0.0,0.0,0.0,0.0,0.0,0.0,0.0,0.009740824564534591,-0.014502214932654115,9.808798955643447,0.0,0.0,0.0,0.0,0.0,0.0,0.0,0.0,0.0
2025/05/06 15:48:38.972276314,1746539318,956714739,mA1/imu,0.04708746293419507,0.998890404561357,0.000763389004011495,0.0003843785864506674,0.0,0.0,0.0,0.0,0.0,0.0,0.0,0.0,0.0,-7.309360965491451e-05,-0.0002901169775886687,0.00017537175152838308,0.0,0.0,0.0,0.0,0.0,0.0,0.0,0.0,0.0,0.0054544317779932116,-0.013500380493956427,9.811867806164582,0.0,0.0,0.0,0.0,0.0,0.0,0.0,0.0,0.0
2025/05/06 15:48:39.67004624,1746539319,9523309,mA1/imu,0.04709234498609404,0.9988901691721305,0.0007650398585036657,0.0003945744517754117,0.0,0.0,0.0,0.0,0.0,0.0,0.0,0.0,0.0,-9.796365017508689e-05,-0.000499278965228545,0.00019108337414229572,0.0,0.0,0.0,0.0,0.0,0.0,0.0,0.0,0.0,0.010971137946900359,-0.01632784852859214,9.811050348434833,0.0,0.0,0.0,0.0,0.0,0.0,0.0,0.0,0.0
2025/05/06 15:48:39.182782655,1746539319,64894841,mA1/imu,0.047095121354855767,0.9988900293586841,0.0007673988034619769,0.00041217891137726665,0.0,0.0,0.0,0.0,0.0,0.0,0.0,0.0,0.0,-0.0001395036683040446,-0.0007847378895090431,7.472659102065225e-05,0.0,0.0,0.0,0.0,0.0,0.0,0.0,0.0,0.0,0.008065678424124577,-0.015527348325156875,9.809325178730987,0.0,0.0,0.0,0.0,0.0,0.0,0.0,0.0,0.0
2025/05/06 15:48:39.202467046,1746539319,105249236,mA1/imu,0.04709685846970256,0.9988899366573062,0.0007702494045173136,0.0004325308107535215,0.0,0.0,0.0,0.0,0.0,0.0,0.0,0.0,0.0,-0.00015906207797153647,-0.0008165800049615171,6.522047077545421e-05,0.0,0.0,0.0,0.0,0.0,0.0,0.0,0.0,0.0,0.007967641847134652,-0.01562913904600703,9.808991892719341,0.0,0.0,0.0,0.0,0.0,0.0,0.0,0.0,0.0
2025/05/06 15:48:39.225024562,1746539319,158978537,mA1/imu,0.047098362117147165,0.998889854232187,0.0007734780605656423,0.00045291232303390245,0.0,0.0,0.0,0.0,0.0,0.0,0.0,0.0,0.0,-0.00017134499632696817,-0.0007961321297292389,5.599053731436074e-05,0.0,0.0,0.0,0.0,0.0,0.0,0.0,0.0,0.0,0.007642327256649425,-0.01617616096743142,9.811484338421923,0.0,0.0,0.0,0.0,0.0,0.0,0.0,0.0,0.0
2025/05/06 15:48:39.253589913,1746539319,211775198,mA1/imu,0.047099637668729426,0.9988897825255435,0.0007769341191618541,0.0004720920689271127,0.0,0.0,0.0,0.0,0.0,0.0,0.0,0.0,0.0,-0.00017546691872080762,-0.0007294529984569829,4.699143255639598e-05,0.0,0.0,0.0,0.0,0.0,0.0,0.0,0.0,0.0,0.007572541543922507,-0.016180815363225454,9.811134959430863,0.0,0.0,0.0,0.0,0.0,0.0,0.0,0.0,0.0
2025/05/06 15:48:39.288385797,1746539319,258142048,mA1/imu,0.047101637131027725,0.9988896776971299,0.0007802350498806244,0.0004886747055411227,0.0,0.0,0.0,0.0,0.0,0.0,0.0,0.0,0.0,-0.00015327146649000425,-0.0005883832548313583,0.000119123884125156,0.0,0.0,0.0,0.0,0.0,0.0,0.0,0.0,0.0,0.008022887446141273,-0.015192533307609536,9.809144551009442,0.0,0.0,0.0,0.0,0.0,0.0,0.0,0.0,0.0
2025/05/06 15:48:39.384215899,1746539319,315111194,mA1/imu,0.047105179455609075,0.9988895014061027,0.0007832808869604918,0.0005025138552928258,0.0,0.0,0.0,0.0,0.0,0.0,0.0,0.0,0.0,-0.00014353502762179407,-0.0005197745228381089,0.00015044657265729256,0.0,0.0,0.0,0.0,0.0,0.0,0.0,0.0,0.0,0.008974113266624843,-0.016552150002292716,9.808918838595241,0.0,0.0,0.0,0.0,0.0,0.0,0.0,0.0,0.0
2025/05/06 15:48:39.451807225,1746539319,361671799,mA1/imu,0.04710709463540025,0.9988894015569246,0.0007862071130378184,0.000516692012581168,0.0,0.0,0.0,0.0,0.0,0.0,0.0,0.0,0.0,-0.0001437207945115713,-0.0005463657433543405,4.177157464188798e-05,0.0,0.0,0.0,0.0,0.0,0.0,0.0,0.0,0.0,0.007344438713547298,-0.015971958720597576,9.811335340365206,0.0,0.0,0.0,0.0,0.0,0.0,0.0,0.0,0.0
2025/05/06 15:48:39.549406910,1746539319,405222109,mA1/imu,0.04710801451066907,0.9988893503457275,0.00078894523312005,0.0005275416308309356,0.0,0.0,0.0,0.0,0.0,0.0,0.0,0.0,0.0,-0.00012008957167834217,-0.000346258325660409,3.312389778960537e-05,0.0,0.0,0.0,0.0,0.0,0.0,0.0,0.0,0.0,0.007335052471541852,-0.016047608463624623,9.810930275557515,0.0,0.0,0.0,0.0,0.0,0.0,0.0,0.0,0.0
2025/05/06 15:48:39.627501921,1746539319,458892488,mA1/imu,0.04710862238798385,0.9988893172803455,0.0007913282491925891,0.000532277665758192,0.0,0.0,0.0,0.0,0.0,0.0,0.0,0.0,0.0,-9.527116575767429e-05,-5.44084874239671e-05,1.5671019056509933e-05,0.0,0.0,0.0,0.0,0.0,0.0,0.0,0.0,0.0,0.005712667436605593,-0.015771391961230258,9.808874207683454,0.0,0.0,0.0,0.0,0.0,0.0,0.0,0.0,0.0
2025/05/06 15:48:39.668606249,1746539319,517247533,mA1/imu,0.047108908250574316,0.998889303323219,0.0007932819241049582,0.0005302581281390494,0.0,0.0,0.0,0.0,0.0,0.0,0.0,0.0,0.0,-5.865613744063414e-05,0.00016659742275168787,9.660083283564495e-06,0.0,0.0,0.0,0.0,0.0,0.0,0.0,0.0,0.0,0.007777955341540724,-0.015241138910035357,9.808635708622708,0.0,0.0,0.0,0.0,0.0,0.0,0.0,0.0,0.0
2025/05/06 15:48:39.731452544,1746539319,565448998,mA1/imu,0.047109073032868744,0.9988892983117257,0.0007944946759558354,0.0005231964275245397,0.0,0.0,0.0,0.0,0.0,0.0,0.0,0.0,0.0,-1.8846654969889165e-05,0.0003605075951270091,4.970753098186596e-06,0.0,0.0,0.0,0.0,0.0,0.0,0.0,0.0,0.0,0.007916957788438822,-0.015805102408462324,9.811030166729976,0.0,0.0,0.0,0.0,0.0,0.0,0.0,0.0,0.0
2025/05/06 15:48:39.763686367,1746539319,608191881,mA1/imu,0.04710911617934668,0.9988893019636854,0.0007948499966901277,0.0005116725367404392,0.0,0.0,0.0,0.0,0.0,0.0,0.0,0.0,0.0,2.7879873493886273e-05,0.0005169090110606866,3.6425041488893415e-08,0.0,0.0,0.0,0.0,0.0,0.0,0.0,0.0,0.0,0.009062385896789779,-0.01394211446716933,9.810643921239897,0.0,0.0,0.0,0.0,0.0,0.0,0.0,0.0,0.0
2025/05/06 15:48:39.802139422,1746539319,663769378,mA1/imu,0.0471098013623475,0.9988892780988821,0.0007940439776682567,0.0004961943733139284,0.0,0.0,0.0,0.0,0.0,0.0,0.0,0.0,0.0,8.751124043571406e-05,0.0006621340840319554,3.28596538155466e-05,0.0,0.0,0.0,0.0,0.0,0.0,0.0,0.0,0.0,0.00942300402695289,-0.012474251948712494,9.8088098317642,0.0,0.0,0.0,0.0,0.0,0.0,0.0,0.0,0.0
2025/05/06 15:48:39.838776853,1746539319,714417621,mA1/imu,0.04711051965180884,0.9988892546820756,0.000791694493955305,0.0004785798282355757,0.0,0.0,0.0,0.0,0.0,0.0,0.0,0.0,0.0,0.00015461368877483668,0.0007227463678817408,2.663448854210423e-05,0.0,0.0,0.0,0.0,0.0,0.0,0.0,0.0,0.0,0.008579754121204791,-0.011378422010148038,9.808451091070209,0.0,0.0,0.0,0.0,0.0,0.0,0.0,0.0,0.0
2025/05/06 15:48:39.928527306,1746539319,762095753,mA1/imu,0.047111059596041505,0.9988892412966943,0.0007876848760135555,0.00045960634076362797,0.0,0.0,0.0,0.0,0.0,0.0,0.0,0.0,0.0,0.0002227002864087304,0.0007629301252532376,1.9124464906973726e-05,0.0,0.0,0.0,0.0,0.0,0.0,0.0,0.0,0.0,0.008888919040266523,-0.012206656581473792,9.810947792554332,0.0,0.0,0.0,0.0,0.0,0.0,0.0,0.0,0.0
2025/05/06 15:48:40.22815609,1746539319,805950029,mA1/imu,0.04711141336520351,0.9988892377106527,0.0007821287748595833,0.0004402171548362507,0.0,0.0,0.0,0.0,0.0,0.0,0.0,0.0,0.0,0.00028037550785626423,0.000758920333872671,1.167859314203522e-05,0.0,0.0,0.0,0.0,0.0,0.0,0.0,0.0,0.0,0.008971907985876215,-0.012341209683391367,9.810611529829158,0.0,0.0,0.0,0.0,0.0,0.0,0.0,0.0,0.0
2025/05/06 15:48:40.54919045,1746539319,859629805,mA1/imu,0.04711158349374937,0.9988892430658287,0.0007752820982023713,0.0004215753260795798,0.0,0.0,0.0,0.0,0.0,0.0,0.0,0.0,0.0,0.0003251423299541338,0.0007081796890463342,4.308867498881901e-06,0.0,0.0,0.0,0.0,0.0,0.0,0.0,0.0,0.0,0.0092370418621122,-0.011999717537405889,9.808876588095233,0.0,0.0,0.0,0.0,0.0,0.0,0.0,0.0,0.0
2025/05/06 15:48:40.102838409,1746539319,906355490,mA1/imu,0.04711157256297875,0.9988892565742931,0.000767465552202791,0.0004047563776023314,0.0,0.0,0.0,0.0,0.0,0.0,0.0,0.0,0.0,0.0003549789188021239,0.0006181638895828742,-2.981750493516696e-06,0.0,0.0,0.0,0.0,0.0,0.0,0.0,0.0,0.0,0.009279408528946827,-0.012073178817283125,9.808574583739754,0.0,0.0,0.0,0.0,0.0,0.0,0.0,0.0,0.0
2025/05/06 15:48:40.178143717,1746539319,957363546,mA1/imu,0.04711199227558745,0.9988892494036867,0.0007589882416536956,0.0003892896264963557,0.0,0.0,0.0,0.0,0.0,0.0,0.0,0.0,0.0,0.00037483245028465035,0.0006026650413919536,4.30598748820423e-05,0.0,0.0,0.0,0.0,0.0,0.0,0.0,0.0,0.0,0.00607174026582899,-0.010995927328661144,9.811221274703076,0.0,0.0,0.0,0.0,0.0,0.0,0.0,0.0,0.0
2025/05/06 15:48:40.219623458,1746539320,10749181,mA1/imu,0.04711351989584836,0.9988891896614528,0.0007500528276662786,0.0003747549403763403,0.0,0.0,0.0,0.0,0.0,0.0,0.0,0.0,0.0,0.0003875688380228006,0.0005281863693848599,7.076508935241601e-05,0.0,0.0,0.0,0.0,0.0,0.0,0.0,0.0,0.0,0.007185359316942095,-0.01087110454570395,9.810879021679579,0.0,0.0,0.0,0.0,0.0,0.0,0.0,0.0,0.0
2025/05/06 15:48:40.367478097,1746539320,63841094,mA1/imu,0.04711562542599283,0.9988891015695041,0.0007409345201902007,0.0003627980474959348,0.0,0.0,0.0,0.0,0.0,0.0,0.0,0.0,0.0,0.00038318824511698505,0.0004114520145456265,9.361572579436854e-05,0.0,0.0,0.0,0.0,0.0,0.0,0.0,0.0,0.0,0.00739629389145032,-0.01055808394911893,9.80919218265958,0.0,0.0,0.0,0.0,0.0,0.0,0.0,0.0,0.0
2025/05/06 15:48:40.406210863,1746539320,114277220,mA1/imu,0.04711827798457507,0.9988889876612231,0.0007301276101500672,0.0003537266996041052,0.0,0.0,0.0,0.0,0.0,0.0,0.0,0.0,0.0,0.0004200012401604677,0.0003031228361514444,0.0001140476084751333,0.0,0.0,0.0,0.0,0.0,0.0,0.0,0.0,0.0,0.005950308970532643,-0.005725794915143077,9.808740244966307,0.0,0.0,0.0,0.0,0.0,0.0,0.0,0.0,0.0
2025/05/06 15:48:40.412263297,1746539320,157187957,mA1/imu,0.04712045663753621,0.998888893839187,0.0007210310796525122,0.0003470521250876927,0.0,0.0,0.0,0.0,0.0,0.0,0.0,0.0,0.0,0.00034579355907035956,0.00021867548529146716,4.89741547888056e-05,0.0,0.0,0.0,0.0,0.0,0.0,0.0,0.0,0.0,0.005039782795821136,-0.009151850763772874,9.811829132192921,0.0,0.0,0.0,0.0,0.0,0.0,0.0,0.0,0.0
2025/05/06 15:48:40.471878971,1746539320,209164184,mA1/imu,0.04712133552896642,0.9988888584992623,0.0007147422962698322,0.0003424141600457349,0.0,0.0,0.0,0.0,0.0,0.0,0.0,0.0,0.0,-0.0007194606880875783,0.0001510106451802293,3.185034355636635e-05,0.0,0.0,0.0,0.0,0.0,0.0,0.0,0.0,0.0,0.004752337686119203,0.5510891583945791,9.811475006932756,0.0,0.0,0.0,0.0,0.0,0.0,0.0,0.0,0.0
2025/05/06 15:48:40.549034460,1746539320,257735346,mA1/imu,0.047122008967170885,0.9988888329626208,0.0007072988730827134,0.00033967893027293946,0.0,0.0,0.0,0.0,0.0,0.0,0.0,0.0,0.0,0.0004430334671061731,6.3818012710332e-05,2.3580451729045115e-05,0.0,0.0,0.0,0.0,0.0,0.0,0.0,0.0,0.0,0.005191977859139035,-0.5000835474887754,9.809894673989783,0.0,0.0,0.0,0.0,0.0,0.0,0.0,0.0,0.0
2025/05/06 15:48:42.24880134,1746539320,859952204,mA1/imu,0.04709870632798482,0.9988898970860556,0.0007373831720970159,0.00037633455430214415,0.0,0.0,0.0,0.0,0.0,0.0,0.0,0.0,0.0,-0.0008749868921742679,0.00041651975315681167,7.53586478868226e-06,0.0,0.0,0.0,0.0,0.0,0.0,0.0,0.0,0.0,0.005625094923886009,0.5791012652711515,9.811025274329625,0.0,0.0,0.0,0.0,0.0,0.0,0.0,0.0,0.0
2025/05/06 15:48:42.24946170,1746539320,911918324,mA1/imu,0.04709874912054698,0.998889896285221,0.0007405701588588871,0.0003667239021846717,0.0,0.0,0.0,0.0,0.0,0.0,0.0,0.0,0.0,0.001459988138081439,0.000360679683371719,-1.5621649901630889e-06,0.0,0.0,0.0,0.0,0.0,0.0,0.0,0.0,0.0,0.005589962138324088,-0.5232538960293527,9.80860645295947,0.0,0.0,0.0,0.0,0.0,0.0,0.0,0.0,0.0
2025/05/06 15:48:42.24984283,1746539320,963100528,mA1/imu,0.04709856071076899,0.9988899074277974,0.0007416705700339368,0.0003582493906440098,0.0,0.0,0.0,0.0,0.0,0.0,0.0,0.0,0.0,0.0008899188469645508,0.0003109614547188011,-1.0887402571406133e-05,0.0,0.0,0.0,0.0,0.0,0.0,0.0,0.0,0.0,0.005352872660043787,0.06468679049667926,9.80920340242615,0.0,0.0,0.0,0.0,0.0,0.0,0.0,0.0,0.0
2025/05/06 15:48:42.25020777,1746539321,8144225,mA1/imu,0.04709813907116828,0.9988899189024426,0.0007556637621900764,0.0003523966272794115,0.0,0.0,0.0,0.0,0.0,0.0,0.0,0.0,0.0,-0.00038584664438346577,0.0002147663481319233,-2.012329785780175e-05,0.0,0.0,0.0,0.0,0.0,0.0,0.0,0.0,0.0,0.006182817201260375,-0.029035066597577885,9.807939788815709,0.0,0.0,0.0,0.0,0.0,0.0,0.0,0.0,0.0
2025/05/06 15:48:42.25056992,1746539321,63552246,mA1/imu,0.047097503052470395,0.9988899518378918,0.0007536112063017957,0.00034841593927810145,0.0,0.0,0.0,0.0,0.0,0.0,0.0,0.0,0.0,-0.0004555577541938062,0.00011742338101933501,-2.889531010273763e-05,0.0,0.0,0.0,0.0,0.0,0.0,0.0,0.0,0.0,0.006279428424122341,-0.0386378042629334,9.809384202683912,0.0,0.0,0.0,0.0,0.0,0.0,0.0,0.0,0.0
2025/05/06 15:48:42.25093228,1746539321,106227229,mA1/imu,0.04709665646301318,0.9988900040003662,0.0007381169751202272,0.00034647003401092367,0.0,0.0,0.0,0.0,0.0,0.0,0.0,0.0,0.0,0.0003768688692295569,1.637719953422595e-05,-3.7561817858257296e-05,0.0,0.0,0.0,0.0,0.0,0.0,0.0,0.0,0.0,0.00606578112174812,0.6442546009231671,9.811469834335915,0.0,0.0,0.0,0.0,0.0,0.0,0.0,0.0,0.0
2025/05/06 15:48:42.47273628,1746539321,164542404,mA1/imu,0.04709558682083166,0.9988900405356356,0.0007556926433795941,0.00034863927862016235,0.0,0.0,0.0,0.0,0.0,0.0,0.0,0.0,0.0,-0.0003819308495636933,-0.00010806496295570784,-4.5984390567849884e-05,0.0,0.0,0.0,0.0,0.0,0.0,0.0,0.0,0.0,0.006251744215779264,-0.0396236042503464,9.809256197495888,0.0,0.0,0.0,0.0,0.0,0.0,0.0,0.0,0.0
2025/05/06 15:48:42.47327442,1746539321,205927688,mA1/imu,0.04709432233345324,0.9988901092206511,0.000742004889259882,0.0003520424020407092,0.0,0.0,0.0,0.0,0.0,0.0,0.0,0.0,0.0,-0.0007321557501534962,-0.00019091019302864821,-5.423852974013026e-05,0.0,0.0,0.0,0.0,0.0,0.0,0.0,0.0,0.0,0.0058472838815062855,-0.06483932770634768,9.810163688970395,0.0,0.0,0.0,0.0,0.0,0.0,0.0,0.0,0.0
2025/05/06 15:48:42.47365559,1746539321,260405436,mA1/imu,0.04709264385091962,0.9988901944792695,0.0007302907149169422,0.0003590874121065779,0.0,0.0,0.0,0.0,0.0,0.0,0.0,0.0,0.0,0.0025271687625440164,-0.00037278565263201477,-8.08931603405852e-05,0.0,0.0,0.0,0.0,0.0,0.0,0.0,0.0,0.0,0.007804996996749752,-0.4705111817835643,9.8098824118283,0.0,0.0,0.0,0.0,0.0,0.0,0.0,0.0,0.0
2025/05/06 15:48:42.47402438,1746539321,313778155,mA1/imu,0.04709005674315167,0.9988903055981537,0.0007391272961576503,0.0003709835494766054,0.0,0.0,0.0,0.0,0.0,0.0,0.0,0.0,0.0,-0.0004398734630545887,-0.0005264664040413038,-0.0001189183020857852,0.0,0.0,0.0,0.0,0.0,0.0,0.0,0.0,0.0,0.008719017710886914,-0.05098032527891197,9.810322807815247,0.0,0.0,0.0,0.0,0.0,0.0,0.0,0.0,0.0
2025/05/06 15:48:42.47438952,1746539321,361464008,mA1/imu,0.047086546173422256,0.9988904784269174,0.0007216836477316942,0.0003852923759481283,0.0,0.0,0.0,0.0,0.0,0.0,0.0,0.0,0.0,-0.000838415250882295,-0.0006404010348268868,-0.00015610459474778654,0.0,0.0,0.0,0.0,0.0,0.0,0.0,0.0,0.0,0.00845749167876433,0.5491384339974835,9.810736645555213,0.0,0.0,0.0,0.0,0.0,0.0,0.0,0.0,0.0
2025/05/06 15:48:42.47475094,1746539321,411918677,mA1/imu,0.047082113950799094,0.998890679482802,0.0007229117711366324,0.000402972556715382,0.0,0.0,0.0,0.0,0.0,0.0,0.0,0.0,0.0,0.0013703462371211603,-0.0007460606428880646,-0.00019244949227053098,0.0,0.0,0.0,0.0,0.0,0.0,0.0,0.0,0.0,0.007829609634148861,-0.5570130041557617,9.808745621729397,0.0,0.0,0.0,0.0,0.0,0.0,0.0,0.0,0.0
2025/05/06 15:48:42.47510925,1746539321,454959699,mA1/imu,0.04707678454970055,0.998890923037404,0.0007226533590270815,0.0004219029110574951,0.0,0.0,0.0,0.0,0.0,0.0,0.0,0.0,0.0,-0.0012881218194482646,-0.0007741122569166335,-0.00022803451690267128,0.0,0.0,0.0,0.0,0.0,0.0,0.0,0.0,0.0,0.008369893640158433,-0.11326313590726675,9.81108912508432,0.0,0.0,0.0,0.0,0.0,0.0,0.0,0.0,0.0
2025/05/06 15:48:42.120623354,1746539321,507125372,mA1/imu,0.04707059525580042,0.9988912250864755,0.0006968739957573576,0.0004403114107867712,0.0,0.0,0.0,0.0,0.0,0.0,0.0,0.0,0.0,-0.0002923579063110691,-0.0007627820865766087,-0.00026280834687311574,0.0,0.0,0.0,0.0,0.0,0.0,0.0,0.0,0.0,0.007708911544635993,0.5889736416921061,9.811124740981525,0.0,0.0,0.0,0.0,0.0,0.0,0.0,0.0,0.0
2025/05/06 15:48:42.158285515,1746539321,564193366,mA1/imu,0.047063533335454884,0.9988915465269603,0.0007007659556960069,0.0004593844089202355,0.0,0.0,0.0,0.0,0.0,0.0,0.0,0.0,0.0,0.0021763320151467,-0.0007423214010221156,-0.00029662293016655085,0.0,0.0,0.0,0.0,0.0,0.0,0.0,0.0,0.0,0.006849468061208695,-0.4951775891819731,9.808076620478902,0.0,0.0,0.0,0.0,0.0,0.0,0.0,0.0,0.0
2025/05/06 15:48:42.233031867,1746539321,604731437,mA1/imu,0.04705563293615321,0.9988919123288946,0.0006986485042979457,0.0004762175650352433,0.0,0.0,0.0,0.0,0.0,0.0,0.0,0.0,0.0,0.0006542383987872429,-0.0006519939836534949,-0.0003303640026155952,0.0,0.0,0.0,0.0,0.0,0.0,0.0,0.0,0.0,0.00826255490428932,-0.6004421745424683,9.810093321421943,0.0,0.0,0.0,0.0,0.0,0.0,0.0,0.0,0.0
2025/05/06 15:48:42.268255737,1746539321,660574077,mA1/imu,0.04705242349881156,0.9988920657800899,0.0006915874655278895,0.00048173774034306093,0.0,0.0,0.0,0.0,0.0,0.0,0.0,0.0,0.0,-0.0010105321510496042,-2.0126068596316365e-05,-3.21412244006302e-05,0.0,0.0,0.0,0.0,0.0,0.0,0.0,0.0,0.0,0.010006921108186906,0.5438896229100242,9.809943976533091,0.0,0.0,0.0,0.0,0.0,0.0,0.0,0.0,0.0
2025/05/06 15:48:42.343105095,1746539321,710038802,mA1/imu,0.04705147874526353,0.998892115083272,0.0006850352841468079,0.00048114344080999854,0.0,0.0,0.0,0.0,0.0,0.0,0.0,0.0,0.0,-0.0011559387733051912,5.183293748763213e-05,-4.204094729683154e-05,0.0,0.0,0.0,0.0,0.0,0.0,0.0,0.0,0.0,0.009257871048211455,0.5392130598138608,9.809967183141454,0.0,0.0,0.0,0.0,0.0,0.0,0.0,0.0,0.0
2025/05/06 15:48:42.351278469,1746539321,756534706,mA1/imu,0.04705029154010844,0.998892173274621,0.0006829539850932689,0.00047938559577295195,0.0,0.0,0.0,0.0,0.0,0.0,0.0,0.0,0.0,7.565209924739822e-05,8.828623325347654e-05,-5.123409782983553e-05,0.0,0.0,0.0,0.0,0.0,0.0,0.0,0.0,0.0,0.009602945958515371,-0.006584569273279996,9.811026282549527,0.0,0.0,0.0,0.0,0.0,0.0,0.0,0.0,0.0
2025/05/06 15:48:42.351336613,1746539321,808380246,mA1/imu,0.04704887420065887,0.9988922421595688,0.0006819146734893055,0.0004764265503359029,0.0,0.0,0.0,0.0,0.0,0.0,0.0,0.0,0.0,2.734909341070603e-05,0.00013424940329972973,-6.03258228837827e-05,0.0,0.0,0.0,0.0,0.0,0.0,0.0,0.0,0.0,0.009571515944280354,-0.006702963885190809,9.810611029658258,0.0,0.0,0.0,0.0,0.0,0.0,0.0,0.0,0.0
2025/05/06 15:48:42.378060908,1746539321,865476089,mA1/imu,0.04704723090941466,0.9988923212446142,0.0006821913868290442,0.0004724798561973144,0.0,0.0,0.0,0.0,0.0,0.0,0.0,0.0,0.0,-2.4597639173594137e-05,0.00017312155062769807,-6.925432319615828e-05,0.0,0.0,0.0,0.0,0.0,0.0,0.0,0.0,0.0,0.009565338634924082,-0.006416489878631162,9.808778404857168,0.0,0.0,0.0,0.0,0.0,0.0,0.0,0.0,0.0
2025/05/06 15:48:42.378151432,1746539321,907021386,mA1/imu,0.04704536534028584,0.9988924102213546,0.0006838174662374461,0.0004677561815960078,0.0,0.0,0.0,0.0,0.0,0.0,0.0,0.0,0.0,-7.648173712058456e-05,0.00020298366357496286,-7.805437742032013e-05,0.0,0.0,0.0,0.0,0.0,0.0,0.0,0.0,0.0,0.009538206840953647,-0.006526547128845314,9.808351075388169,0.0,0.0,0.0,0.0,0.0,0.0,0.0,0.0,0.0
2025/05/06 15:48:42.378191408,1746539321,959088402,mA1/imu,0.04704329866220284,0.9988925094001542,0.0006848004616734978,0.00046234572495675025,0.0,0.0,0.0,0.0,0.0,0.0,0.0,0.0,0.0,5.121296542944049e-05,0.00022839827686728666,-8.53795822266385e-05,0.0,0.0,0.0,0.0,0.0,0.0,0.0,0.0,0.0,0.009300607560522447,0.005843566237343686,9.810454024906655,0.0,0.0,0.0,0.0,0.0,0.0,0.0,0.0,0.0
2025/05/06 15:48:42.378229182,1746539322,9138486,mA1/imu,0.04704105466179146,0.998892611185306,0.0006941711604088049,0.0004567516909491578,0.0,0.0,0.0,0.0,0.0,0.0,0.0,0.0,0.0,-0.0007787866004896788,0.00024765613175201296,-9.229327862165565e-05,0.0,0.0,0.0,0.0,0.0,0.0,0.0,0.0,0.0,0.009221920113698732,-0.09020435955337613,9.810311470987887,0.0,0.0,0.0,0.0,0.0,0.0,0.0,0.0,0.0
2025/05/06 15:48:42.378266788,1746539322,60398163,mA1/imu,0.04703864138652983,0.9988927258252647,0.0006966939672617212,0.0004506965697008647,0.0,0.0,0.0,0.0,0.0,0.0,0.0,0.0,0.0,-3.64903449552376e-05,0.0002436025365844568,-9.914595367458485e-05,0.0,0.0,0.0,0.0,0.0,0.0,0.0,0.0,0.0,0.009502044112197837,-0.6263690837214477,9.809235393453843,0.0,0.0,0.0,0.0,0.0,0.0,0.0,0.0,0.0
2025/05/06 15:48:42.387262523,1746539322,105532647,mA1/imu,0.04703606108376972,0.9988928508772887,0.0006954266999442773,0.00044475349545386667,0.0,0.0,0.0,0.0,0.0,0.0,0.0,0.0,0.0,-1.710056321145279e-06,0.00022313921636010067,-0.00010583729348612185,0.0,0.0,0.0,0.0,0.0,0.0,0.0,0.0,0.0,0.009839768954787022,0.07081915661339636,9.809765095101218,0.0,0.0,0.0,0.0,0.0,0.0,0.0,0.0,0.0
2025/05/06 15:48:42.438692759,1746539322,164344184,mA1/imu,0.047033315114434385,0.9988929763340388,0.0007038930106881138,0.00044003920402419254,0.0,0.0,0.0,0.0,0.0,0.0,0.0,0.0,0.0,-0.0006944041948879539,0.00018832848241636554,-0.00011215375401333825,0.0,0.0,0.0,0.0,0.0,0.0,0.0,0.0,0.0,0.009420760640110135,0.30585813093790254,9.810739228853398,0.0,0.0,0.0,0.0,0.0,0.0,0.0,0.0,0.0
2025/05/06 15:48:42.712661658,1746539322,212778288,mA1/imu,0.047030409473801695,0.9988931070899187,0.0007147763930703586,0.0004362197640881317,0.0,0.0,0.0,0.0,0.0,0.0,0.0,0.0,0.0,-0.0022828191278875015,0.00016949056858681162,-0.00011870907022368633,0.0,0.0,0.0,0.0,0.0,0.0,0.0,0.0,0.0,0.009354059540300575,0.4855928746801794,9.810567489282468,0.0,0.0,0.0,0.0,0.0,0.0,0.0,0.0,0.0
2025/05/06 15:48:42.712741838,1746539322,257460918,mA1/imu,0.04702735173662936,0.998893254217549,0.0007122143058237917,0.00043314904699665377,0.0,0.0,0.0,0.0,0.0,0.0,0.0,0.0,0.0,-0.00019162812086598308,0.00010667332457299663,-0.00012497975080901148,0.0,0.0,0.0,0.0,0.0,0.0,0.0,0.0,0.0,0.009210923554808913,-0.0009002106698535097,9.808618665339544,0.0,0.0,0.0,0.0,0.0,0.0,0.0,0.0,0.0
2025/05/06 15:48:42.867081963,1746539322,305697998,mA1/imu,0.047024120420550125,0.9988934017183475,0.0007196629472240672,0.00043149445408905204,0.0,0.0,0.0,0.0,0.0,0.0,0.0,0.0,0.0,0.0011469239084839968,5.274532913207325e-05,-0.00013323784498976018,0.0,0.0,0.0,0.0,0.0,0.0,0.0,0.0,0.0,0.010302683377176325,-0.5373731989989274,9.80923232135319,0.0,0.0,0.0,0.0,0.0,0.0,0.0,0.0,0.0
2025/05/06 15:48:42.867156989,1746539322,359436640,mA1/imu,0.04702031660018908,0.998893576425867,0.0007254727972239367,0.00043184624479350805,0.0,0.0,0.0,0.0,0.0,0.0,0.0,0.0,0.0,-0.00011755678746326897,-5.7454419981388685e-05,-0.0001679242026040616,0.0,0.0,0.0,0.0,0.0,0.0,0.0,0.0,0.0,0.011487781627713108,0.00245068054569607,9.809400514591388,0.0,0.0,0.0,0.0,0.0,0.0,0.0,0.0,0.0
2025/05/06 15:48:42.867195676,1746539322,408154567,mA1/imu,0.04701551504955177,0.9988937976800313,0.000729810901968783,0.0004355192731217503,0.0,0.0,0.0,0.0,0.0,0.0,0.0,0.0,0.0,0.00027842718601689046,-0.00018987481641546936,-0.00020842712420152107,0.0,0.0,0.0,0.0,0.0,0.0,0.0,0.0,0.0,0.011163455881120835,-0.3000752656714919,9.809224149772943,0.0,0.0,0.0,0.0,0.0,0.0,0.0,0.0,0.0
2025/05/06 15:48:42.867232465,1746539322,462862283,mA1/imu,0.047009714663871174,0.9988940641139721,0.0007349532607173621,0.0004418696612958565,0.0,0.0,0.0,0.0,0.0,0.0,0.0,0.0,0.0,-0.0005069199264838738,-0.00028145626806395317,-0.0002482761589805763,0.0,0.0,0.0,0.0,0.0,0.0,0.0,0.0,0.0,0.011291325915438348,-0.031157923094275182,9.810524994959614,0.0,0.0,0.0,0.0,0.0,0.0,0.0,0.0,0.0
2025/05/06 15:48:42.867269180,1746539322,513037060,mA1/imu,0.04700293237871941,0.9988943780028213,0.0007369175904419681,0.000450438256952754,0.0,0.0,0.0,0.0,0.0,0.0,0.0,0.0,0.0,3.8328697817529505e-05,-0.0003712991262188144,-0.00028738087587712636,0.0,0.0,0.0,0.0,0.0,0.0,0.0,0.0,0.0,0.01105828300328545,0.0033992643232547207,9.811776830602758,0.0,0.0,0.0,0.0,0.0,0.0,0.0,0.0,0.0
2025/05/06 15:48:42.879429216,1746539322,562543642,mA1/imu,0.04699518746686157,0.9988947344780533,0.0007412529600076678,0.00046079390543840934,0.0,0.0,0.0,0.0,0.0,0.0,0.0,0.0,0.0,-0.0010146282724718722,-0.0004244125462434676,-0.00032559248302048546,0.0,0.0,0.0,0.0,0.0,0.0,0.0,0.0,0.0,0.011018645684768322,0.35791104380243677,9.811892063766692,0.0,0.0,0.0,0.0,0.0,0.0,0.0,0.0,0.0
2025/05/06 15:48:42.951472975,1746539322,609588954,mA1/imu,0.04698650410062002,0.9988951407212922,0.0007373511072461292,0.0004717935320419438,0.0,0.0,0.0,0.0,0.0,0.0,0.0,0.0,0.0,-0.0013274095981493485,-0.00044446115643597935,-0.0003630141152818222,0.0,0.0,0.0,0.0,0.0,0.0,0.0,0.0,0.0,0.011722527688279544,0.5361374523279181,9.810017275252205,0.0,0.0,0.0,0.0,0.0,0.0,0.0,0.0,0.0
2025/05/06 15:48:43.52678594,1746539322,662313071,mA1/imu,0.04698283574979816,0.998895314058556,0.0007337094015909524,0.0004757807060268447,0.0,0.0,0.0,0.0,0.0,0.0,0.0,0.0,0.0,0.0003829813452307631,-3.780428742122756e-05,-5.650719312517694e-05,0.0,0.0,0.0,0.0,0.0,0.0,0.0,0.0,0.0,0.013385532463874642,0.018032238478168885,9.809669109212065,0.0,0.0,0.0,0.0,0.0,0.0,0.0,0.0,0.0
2025/05/06 15:48:43.92819912,1746539322,710609010,mA1/imu,0.046981276294497464,0.9988953902325857,0.0007284331700239589,0.00047794868704842717,0.0,0.0,0.0,0.0,0.0,0.0,0.0,0.0,0.0,0.0020991419316040796,-0.0001467925798188355,-6.648944057333604e-05,0.0,0.0,0.0,0.0,0.0,0.0,0.0,0.0,0.0,0.013391783556290573,-0.5000124474767872,9.809663468729623,0.0,0.0,0.0,0.0,0.0,0.0,0.0,0.0,0.0
2025/05/06 15:48:43.505477698,1746539322,763767663,mA1/imu,0.0469794616407908,0.9988954734134811,0.0007284972186922993,0.0004823585818996844,0.0,0.0,0.0,0.0,0.0,0.0,0.0,0.0,0.0,0.0007429149926307155,-0.00021193830647724948,-7.671100787462672e-05,0.0,0.0,0.0,0.0,0.0,0.0,0.0,0.0,0.0,0.012843824907806719,0.033522627702626866,9.81102319396984,0.0,0.0,0.0,0.0,0.0,0.0,0.0,0.0,0.0
2025/05/06 15:48:43.507338274,1746539322,810739991,mA1/imu,0.046977402546541085,0.9988955678984324,0.0007277414855004161,0.0004883392049004454,0.0,0.0,0.0,0.0,0.0,0.0,0.0,0.0,0.0,-0.00076911584993629,-0.00025868857327557304,-8.658146418783763e-05,0.0,0.0,0.0,0.0,0.0,0.0,0.0,0.0,0.0,0.01275018513059532,-0.07308484966924106,9.811619087158807,0.0,0.0,0.0,0.0,0.0,0.0,0.0,0.0,0.0
2025/05/06 15:48:43.507402370,1746539322,858458307,mA1/imu,0.04697510819760652,0.99889567906874,0.0007186268999702528,0.0004950989825367244,0.0,0.0,0.0,0.0,0.0,0.0,0.0,0.0,0.0,-0.0008249994391965321,-0.0002950832737617725,-9.61848666331879e-05,0.0,0.0,0.0,0.0,0.0,0.0,0.0,0.0,0.0,0.013163327690863678,-0.08283217199473172,9.810699653581374,0.0,0.0,0.0,0.0,0.0,0.0,0.0,0.0,0.0
2025/05/06 15:48:43.507441697,1746539322,909071670,mA1/imu,0.046972580262172346,0.9988958039563789,0.0007050997162346077,0.0005023706233601491,0.0,0.0,0.0,0.0,0.0,0.0,0.0,0.0,0.0,0.00033961978926784074,-0.0003194227192493392,-0.00010546711978938433,0.0,0.0,0.0,0.0,0.0,0.0,0.0,0.0,0.0,0.012481029238306669,-0.0021097424433332117,9.809333181908235,0.0,0.0,0.0,0.0,0.0,0.0,0.0,0.0,0.0
2025/05/06 15:48:43.507479630,1746539322,963694060,mA1/imu,0.04696981604713528,0.9988959346081775,0.0006986018673244048,0.0005100580209853402,0.0,0.0,0.0,0.0,0.0,0.0,0.0,0.0,0.0,0.00013707882626193558,-0.0003173655776023441,-0.00011473019164896789,0.0,0.0,0.0,0.0,0.0,0.0,0.0,0.0,0.0,0.012308089308967356,-0.016656375181944235,9.811478737004183,0.0,0.0,0.0,0.0,0.0,0.0,0.0,0.0,0.0
2025/05/06 15:48:43.507517207,1746539323,5811292,mA1/imu,0.04696682116096298,0.998896080025037,0.0006865909006701404,0.0005173138161707032,0.0,0.0,0.0,0.0,0.0,0.0,0.0,0.0,0.0,0.000817049209769946,-0.00031267849861243876,-0.00012450555212830812,0.0,0.0,0.0,0.0,0.0,0.0,0.0,0.0,0.0,0.013252615655235679,0.031572336521590666,9.811126937300081,0.0,0.0,0.0,0.0,0.0,0.0,0.0,0.0,0.0
2025/05/06 15:48:43.875759153,1746539323,57433727,mA1/imu,0.046964183910492306,0.9988962099008709,0.0006732450507677558,0.0005234657564567673,0.0,0.0,0.0,0.0,0.0,0.0,0.0,0.0,0.0,0.0005601738569180799,-0.0002505158021091925,-0.00010516266047313065,0.0,0.0,0.0,0.0,0.0,0.0,0.0,0.0,0.0,0.012580310795274439,0.6470789169869594,9.81111283504751,0.0,0.0,0.0,0.0,0.0,0.0,0.0,0.0,0.0
2025/05/06 15:48:43.875869058,1746539323,109159577,mA1/imu,0.046961386250607154,0.9988963352880382,0.0006776692384220712,0.0005294468354164366,0.0,0.0,0.0,0.0,0.0,0.0,0.0,0.0,0.0,-0.0008139899589753561,-0.00021844082289430202,-0.00011655870073385753,0.0,0.0,0.0,0.0,0.0,0.0,0.0,0.0,0.0,0.01306516454007114,0.5527023869364694,9.809731440836833,0.0,0.0,0.0,0.0,0.0,0.0,0.0,0.0,0.0
2025/05/06 15:48:43.876367220,1746539323,162046324,mA1/imu,0.046958317809708966,0.9988964822273352,0.0006698358914358672,0.0005343240739513455,0.0,0.0,0.0,0.0,0.0,0.0,0.0,0.0,0.0,4.3552273768006595e-05,-0.00019162663484983904,-0.00012757181245787305,0.0,0.0,0.0,0.0,0.0,0.0,0.0,0.0,0.0,0.012715641874740793,-0.014911313352584134,9.810746459109978,0.0,0.0,0.0,0.0,0.0,0.0,0.0,0.0,0.0
2025/05/06 15:48:43.877651385,1746539323,215619024,mA1/imu,0.046954979130594515,0.9988966444725743,0.0006590161951900521,0.0005378605129869284,0.0,0.0,0.0,0.0,0.0,0.0,0.0,0.0,0.0,0.0008909567502457157,-0.0001394636773431687,-0.00013831963606776584,0.0,0.0,0.0,0.0,0.0,0.0,0.0,0.0,0.0,0.012628473107386289,0.045826442478801924,9.810634933363025,0.0,0.0,0.0,0.0,0.0,0.0,0.0,0.0,0.0
2025/05/06 15:48:43.877705902,1746539323,257910632,mA1/imu,0.046951372187994056,0.9988968143616633,0.0006565906290102954,0.0005401819423372752,0.0,0.0,0.0,0.0,0.0,0.0,0.0,0.0,0.0,9.027167243260705e-05,-6.837541146801654e-05,-0.00014879008892387593,0.0,0.0,0.0,0.0,0.0,0.0,0.0,0.0,0.0,0.0121086471672277,0.6264041739787807,9.810338355158018,0.0,0.0,0.0,0.0,0.0,0.0,0.0,0.0,0.0
2025/05/06 15:48:44.86814838,1746539323,310438142,mA1/imu,0.04694749943681966,0.9988969949662706,0.0006582166188487311,0.0005408279457017801,0.0,0.0,0.0,0.0,0.0,0.0,0.0,0.0,0.0,-0.0006144944523300297,1.2137463971673582e-05,-0.00015922064970369244,0.0,0.0,0.0,0.0,0.0,0.0,0.0,0.0,0.0,0.012280744381247185,0.5500534469483391,9.809543387801083,0.0,0.0,0.0,0.0,0.0,0.0,0.0,0.0,0.0
2025/05/06 15:48:44.86881538,1746539323,359183294,mA1/imu,0.04694378758034438,0.9988971703750059,0.0006589404818581178,0.0005381652712478048,0.0,0.0,0.0,0.0,0.0,0.0,0.0,0.0,0.0,0.0013828809113142215,0.00020512210989803552,-0.00013456768670668635,0.0,0.0,0.0,0.0,0.0,0.0,0.0,0.0,0.0,0.009783800859452668,-0.5322193396409073,9.808815976792884,0.0,0.0,0.0,0.0,0.0,0.0,0.0,0.0,0.0
2025/05/06 15:48:44.86920526,1746539323,412427958,mA1/imu,0.04694034104811186,0.9988973357818702,0.0006589917745000281,0.0005316766023146376,0.0,0.0,0.0,0.0,0.0,0.0,0.0,0.0,0.0,0.0009752186662030946,0.00027674496553680897,-0.00014150560020141577,0.0,0.0,0.0,0.0,0.0,0.0,0.0,0.0,0.0,0.01231091242813877,-0.5570261492778904,9.807798735314313,0.0,0.0,0.0,0.0,0.0,0.0,0.0,0.0,0.0
2025/05/06 15:48:44.86958247,1746539323,457273043,mA1/imu,0.04693666248166448,0.9988975102485086,0.0006626170442150831,0.0005240926117733743,0.0,0.0,0.0,0.0,0.0,0.0,0.0,0.0,0.0,-0.0005921010757360557,0.00032388951953911323,-0.00015062280802308182,0.0,0.0,0.0,0.0,0.0,0.0,0.0,0.0,0.0,0.012435860607687763,0.5959777097923138,9.810328534127137,0.0,0.0,0.0,0.0,0.0,0.0,0.0,0.0,0.0
2025/05/06 15:48:44.86996226,1746539323,511339389,mA1/imu,0.04693275652841012,0.998897692152796,0.000671401382389989,0.0005159424837953068,0.0,0.0,0.0,0.0,0.0,0.0,0.0,0.0,0.0,-0.0016669580388087148,0.00036549084731375193,-0.00015972577531753272,0.0,0.0,0.0,0.0,0.0,0.0,0.0,0.0,0.0,0.012061133867697712,0.5261138658357585,9.809475189955835,0.0,0.0,0.0,0.0,0.0,0.0,0.0,0.0,0.0
2025/05/06 15:48:44.232561675,1746539323,565311103,mA1/imu,0.04692862930231888,0.9988978870582487,0.0006764927120073376,0.0005072868839923508,0.0,0.0,0.0,0.0,0.0,0.0,0.0,0.0,0.0,5.928757033004597e-05,0.00035536901479280605,-0.00016850614680762678,0.0,0.0,0.0,0.0,0.0,0.0,0.0,0.0,0.0,0.01272174499304469,-0.6151951611764807,9.809641611103377,0.0,0.0,0.0,0.0,0.0,0.0,0.0,0.0,0.0
2025/05/06 15:48:44.232647734,1746539323,618370567,mA1/imu,0.046924279219489856,0.9988980927898561,0.0006808460457009547,0.0004986874585135688,0.0,0.0,0.0,0.0,0.0,0.0,0.0,0.0,0.0,0.00016603521566572175,0.0003410085257000204,-0.0001773693237380472,0.0,0.0,0.0,0.0,0.0,0.0,0.0,0.0,0.0,0.012567586229215917,-0.5002699500987766,9.809594687915316,0.0,0.0,0.0,0.0,0.0,0.0,0.0,0.0,0.0
2025/05/06 15:48:44.232686246,1746539323,661976232,mA1/imu,0.04691953928563685,0.9988983175392111,0.0006835589631431531,0.0004907114232826964,0.0,0.0,0.0,0.0,0.0,0.0,0.0,0.0,0.0,-0.0014267647518240662,0.0003052092119590951,-0.00020188599277084178,0.0,0.0,0.0,0.0,0.0,0.0,0.0,0.0,0.0,0.013770374440485338,0.5442838146531035,9.810362530363076,0.0,0.0,0.0,0.0,0.0,0.0,0.0,0.0,0.0
2025/05/06 15:48:44.232723846,1746539323,712320482,mA1/imu,0.0469139630212814,0.9988985811931772,0.0006854809223344751,0.0004844376127423473,0.0,0.0,0.0,0.0,0.0,0.0,0.0,0.0,0.0,6.934628804991181e-05,0.00022335161446053234,-0.00023718466047154232,0.0,0.0,0.0,0.0,0.0,0.0,0.0,0.0,0.0,0.013211243152154259,0.018168216666972624,9.811091032553854,0.0,0.0,0.0,0.0,0.0,0.0,0.0,0.0,0.0
2025/05/06 15:48:44.232761344,1746539323,758712331,mA1/imu,0.04690751487575087,0.9988988842305921,0.0006880106848985142,0.00048038771500140393,0.0,0.0,0.0,0.0,0.0,0.0,0.0,0.0,0.0,0.0012023381567245312,0.00012601694628319927,-0.0002718307554963302,0.0,0.0,0.0,0.0,0.0,0.0,0.0,0.0,0.0,0.012715497059579552,-0.17874146721962703,9.810043489719336,0.0,0.0,0.0,0.0,0.0,0.0,0.0,0.0,0.0
2025/05/06 15:48:44.232798418,1746539323,810867218,mA1/imu,0.04690020115399172,0.9988992181203771,0.0007025269232065386,0.0004791932145921206,0.0,0.0,0.0,0.0,0.0,0.0,0.0,0.0,0.0,-0.0004419092973052813,3.138125468959031e-05,-0.00030622842270818456,0.0,0.0,0.0,0.0,0.0,0.0,0.0,0.0,0.0,0.013367215289421702,-0.09508090634771721,9.809191935228963,0.0,0.0,0.0,0.0,0.0,0.0,0.0,0.0,0.0
2025/05/06 15:48:44.232835608,1746539323,856394972,mA1/imu,0.046892043670561476,0.9988995961557355,0.000708981054361003,0.00047998559474567366,0.0,0.0,0.0,0.0,0.0,0.0,0.0,0.0,0.0,-0.00035625195037891427,-5.9822577305636114e-05,-0.0003398507671898909,0.0,0.0,0.0,0.0,0.0,0.0,0.0,0.0,0.0,0.013584505872628968,-0.6454700019370699,9.810324161354107,0.0,0.0,0.0,0.0,0.0,0.0,0.0,0.0,0.0
2025/05/06 15:48:44.232873293,1746539323,913360083,mA1/imu,0.04688306257129017,0.9989000173671906,0.000707570696366948,0.00048279547659488926,0.0,0.0,0.0,0.0,0.0,0.0,0.0,0.0,0.0,-0.0005355391078662703,-0.00014669217097758425,-0.00037324589552141014,0.0,0.0,0.0,0.0,0.0,0.0,0.0,0.0,0.0,0.013496047166913966,-0.028732556926433544,9.811544670661647,0.0,0.0,0.0,0.0,0.0,0.0,0.0,0.0,0.0
2025/05/06 15:48:44.344271110,1746539323,961914026,mA1/imu,0.04687324676921797,0.9989004775718654,0.000704865216961488,0.000487656679335878,0.0,0.0,0.0,0.0,0.0,0.0,0.0,0.0,0.0,-0.0002098873253895555,-0.0002285210162945729,-0.0004065738596165826,0.0,0.0,0.0,0.0,0.0,0.0,0.0,0.0,0.0,0.01304996241309661,-0.009065483254198675,9.811038489231931,0.0,0.0,0.0,0.0,0.0,0.0,0.0,0.0,0.0
2025/05/06 15:48:44.344339922,1746539324,11776459,mA1/imu,0.04686260903272962,0.9989009712848865,0.0007075309748462217,0.0004948137788107824,0.0,0.0,0.0,0.0,0.0,0.0,0.0,0.0,0.0,0.0001461338148458166,-0.00030568954346873144,-0.00043911730162142764,0.0,0.0,0.0,0.0,0.0,0.0,0.0,0.0,0.0,0.012726539601452543,0.013424050763972899,9.811516039585987,0.0,0.0,0.0,0.0,0.0,0.0,0.0,0.0,0.0
2025/05/06 15:48:44.344383868,1746539324,57140979,mA1/imu,0.0468511650499705,0.9989015038105115,0.0007078051534031214,0.0005030212957951552,0.0,0.0,0.0,0.0,0.0,0.0,0.0,0.0,0.0,-0.0003442639488833882,-0.00033500138983208987,-0.0004713943406271603,0.0,0.0,0.0,0.0,0.0,0.0,0.0,0.0,0.0,0.012475791985712817,0.5161334018723205,9.811583146078394,0.0,0.0,0.0,0.0,0.0,0.0,0.0,0.0,0.0
2025/05/06 15:48:44.344420851,1746539324,106288839,mA1/imu,0.04683892250022482,0.998902074486855,0.0007067682191135389,0.0005112764028686309,0.0,0.0,0.0,0.0,0.0,0.0,0.0,0.0,0.0,-0.0010834928687085445,-0.00032394247346940466,-0.0005031003139602439,0.0,0.0,0.0,0.0,0.0,0.0,0.0,0.0,0.0,0.01252633610720484,0.5503818251750645,9.811421555785483,0.0,0.0,0.0,0.0,0.0,0.0,0.0,0.0,0.0
2025/05/06 15:48:44.344456916,1746539324,162490628,mA1/imu,0.046825906517304366,0.9989026871062273,0.0006975571304420437,0.000519215601762049,0.0,0.0,0.0,0.0,0.0,0.0,0.0,0.0,0.0,0.0009210500176461621,-0.0003213984526969996,-0.000534004470875763,0.0,0.0,0.0,0.0,0.0,0.0,0.0,0.0,0.0,0.011793423862206885,0.060720039408402815,9.811284659978185,0.0,0.0,0.0,0.0,0.0,0.0,0.0,0.0,0.0
2025/05/06 15:48:44.344492754,1746539324,212006788,mA1/imu,0.04681212624771222,0.9989033325311182,0.0006927140553587708,0.0005265373988303422,0.0,0.0,0.0,0.0,0.0,0.0,0.0,0.0,0.0,0.0013950576329636363,-0.0002851029497902949,-0.0005635768467250809,0.0,0.0,0.0,0.0,0.0,0.0,0.0,0.0,0.0,0.011262199404624832,0.08702328384399219,9.810108117351506,0.0,0.0,0.0,0.0,0.0,0.0,0.0,0.0,0.0
2025/05/06 15:48:44.344528644,1746539324,256555951,mA1/imu,0.04679912735881951,0.9989039351977707,0.0006990034527140497,0.0005303951678115156,0.0,0.0,0.0,0.0,0.0,0.0,0.0,0.0,0.0,0.001769453154330923,-8.63769719823687e-05,-0.000500114881540477,0.0,0.0,0.0,0.0,0.0,0.0,0.0,0.0,0.0,0.009810443377262725,-0.5150699857946205,9.807896632453303,0.0,0.0,0.0,0.0,0.0,0.0,0.0,0.0,0.0
2025/05/06 15:48:44.386611320,1746539324,313923717,mA1/imu,0.04678658422565558,0.9989045184210009,0.0007050645289759572,0.0005305644295597086,0.0,0.0,0.0,0.0,0.0,0.0,0.0,0.0,0.0,-0.000474793946772463,4.67153944265406e-05,-0.0005034038350166456,0.0,0.0,0.0,0.0,0.0,0.0,0.0,0.0,0.0,0.010434542003788017,-0.6736717604500946,9.809858295058438,0.0,0.0,0.0,0.0,0.0,0.0,0.0,0.0,0.0
2025/05/06 15:48:44.411392644,1746539324,359529239,mA1/imu,0.04677397097236858,0.9989051227082811,0.0006885179826233351,0.000526696893170038,0.0,0.0,0.0,0.0,0.0,0.0,0.0,0.0,0.0,-0.001582145895534115,0.00018703585135267073,-0.0005067556426585292,0.0,0.0,0.0,0.0,0.0,0.0,0.0,0.0,0.0,0.010876425383210115,0.5028426888733482,9.809558640112689,0.0,0.0,0.0,0.0,0.0,0.0,0.0,0.0,0.0
2025/05/06 15:48:44.460427000,1746539324,409494352,mA1/imu,0.04676127332429066,0.9989057289425176,0.0006762312549513501,0.0005203020261852855,0.0,0.0,0.0,0.0,0.0,0.0,0.0,0.0,0.0,-7.897279577748185e-05,0.0002844964452937587,-0.0005094177449188421,0.0,0.0,0.0,0.0,0.0,0.0,0.0,0.0,0.0,0.009898583492423351,0.6084929250906047,9.810389660924205,0.0,0.0,0.0,0.0,0.0,0.0,0.0,0.0,0.0
2025/05/06 15:48:44.498244425,1746539324,462271594,mA1/imu,0.046748558697621075,0.9989063301207325,0.0006736820591113243,0.0005119149426593178,0.0,0.0,0.0,0.0,0.0,0.0,0.0,0.0,0.0,-2.4655991691572834e-05,0.0003660846731349368,-0.0005086994215468864,0.0,0.0,0.0,0.0,0.0,0.0,0.0,0.0,0.0,0.01016301656844691,0.48410514728931514,9.8107589511641,0.0,0.0,0.0,0.0,0.0,0.0,0.0,0.0,0.0
2025/05/06 15:48:44.542253562,1746539324,511946091,mA1/imu,0.04673586217690851,0.9989069332058299,0.0006683614808656094,0.0005012712195401295,0.0,0.0,0.0,0.0,0.0,0.0,0.0,0.0,0.0,0.00026582874368061396,0.00044054288571352063,-0.0005080131283389567,0.0,0.0,0.0,0.0,0.0,0.0,0.0,0.0,0.0,0.010313886838571273,0.0016140804264771179,9.809131766532504,0.0,0.0,0.0,0.0,0.0,0.0,0.0,0.0,0.0
2025/05/06 15:48:44.574148122,1746539324,563112047,mA1/imu,0.046723178160736296,0.9989075359613163,0.0006631686786848814,0.0004893153945285472,0.0,0.0,0.0,0.0,0.0,0.0,0.0,0.0,0.0,0.00020543482674339951,0.000483143376868481,-0.000507424245587896,0.0,0.0,0.0,0.0,0.0,0.0,0.0,0.0,0.0,0.010455223594219624,-0.0009484550503555539,9.808071032623346,0.0,0.0,0.0,0.0,0.0,0.0,0.0,0.0,0.0
2025/05/06 15:48:44.607125480,1746539324,604354623,mA1/imu,0.04671050302900941,0.9989081321809374,0.0006669051739912634,0.00047708181324301137,0.0,0.0,0.0,0.0,0.0,0.0,0.0,0.0,0.0,-0.000858391680055213,0.0005036205301324742,-0.0005069871000309758,0.0,0.0,0.0,0.0,0.0,0.0,0.0,0.0,0.0,0.010282920849792546,-0.06994196643111888,9.808406554979255,0.0,0.0,0.0,0.0,0.0,0.0,0.0,0.0,0.0
2025/05/06 15:48:44.660612871,1746539324,658104575,mA1/imu,0.046697861386892414,0.998908737479743,0.0006562861465785726,0.0004617542748447584,0.0,0.0,0.0,0.0,0.0,0.0,0.0,0.0,0.0,-0.0004774652389467727,0.0006950276051143164,-0.0005065367720361408,0.0,0.0,0.0,0.0,0.0,0.0,0.0,0.0,0.0,0.009305594306532989,-0.04426693726319912,9.8092697157828,0.0,0.0,0.0,0.0,0.0,0.0,0.0,0.0,0.0
2025/05/06 15:48:44.710349586,1746539324,708184472,mA1/imu,0.04668491918119145,0.9989093569520061,0.0006459511672730175,0.0004445917956517181,0.0,0.0,0.0,0.0,0.0,0.0,0.0,0.0,0.0,-0.0005766174659151947,0.000651649696441258,-0.000525878933119844,0.0,0.0,0.0,0.0,0.0,0.0,0.0,0.0,0.0,0.010948681879112104,0.582763783300402,9.810015042305299,0.0,0.0,0.0,0.0,0.0,0.0,0.0,0.0,0.0
2025/05/06 15:48:44.772019320,1746539324,770317637,mA1/imu,0.04667285457090754,0.9989099357506376,0.0006338641456323995,0.000427926517994417,0.0,0.0,0.0,0.0,0.0,0.0,0.0,0.0,0.0,0.0007283991571164278,0.0006444944181965336,-0.00046328636505011284,0.0,0.0,0.0,0.0,0.0,0.0,0.0,0.0,0.0,0.009716392299575754,0.6754342595939089,9.81021874999609,0.0,0.0,0.0,0.0,0.0,0.0,0.0,0.0,0.0
2025/05/06 15:48:44.811042347,1746539324,809359525,mA1/imu,0.046661381310148214,0.9989104736626128,0.0006403871856681743,0.00041352825293998734,0.0,0.0,0.0,0.0,0.0,0.0,0.0,0.0,0.0,0.001013870450331558,0.0005276736804871986,-0.00045586519611652646,0.0,0.0,0.0,0.0,0.0,0.0,0.0,0.0,0.0,0.010825345802468172,0.06361301934694398,9.810097391242568,0.0,0.0,0.0,0.0,0.0,0.0,0.0,0.0,0.0
2025/05/06 15:48:44.864680196,1746539324,862721575,mA1/imu,0.04665009885826135,0.9989110026393537,0.0006444118527915102,0.0004022634955638418,0.0,0.0,0.0,0.0,0.0,0.0,0.0,0.0,0.0,0.0002653961483033057,0.0004007055620035368,-0.0004484827151948355,0.0,0.0,0.0,0.0,0.0,0.0,0.0,0.0,0.0,0.010528055222430114,0.01593948910725946,9.809301342499113,0.0,0.0,0.0,0.0,0.0,0.0,0.0,0.0,0.0
2025/05/06 15:48:44.909471129,1746539324,907157830,mA1/imu,0.04663899979548236,0.9989115262828109,0.0006411331966950426,0.00039408837396645347,0.0,0.0,0.0,0.0,0.0,0.0,0.0,0.0,0.0,-0.00015831803858804577,0.00025847880303854135,-0.00044147661655188295,0.0,0.0,0.0,0.0,0.0,0.0,0.0,0.0,0.0,0.010691054017041311,-0.012548749319381224,9.810106339035947,0.0,0.0,0.0,0.0,0.0,0.0,0.0,0.0,0.0
2025/05/06 15:48:44.963358482,1746539324,958107555,mA1/imu,0.046628077439991936,0.9989120397203546,0.0006380345580804154,0.00039013827476952625,0.0,0.0,0.0,0.0,0.0,0.0,0.0,0.0,0.0,0.0001387616089628875,8.428304698954648e-05,-0.0004345591805806018,0.0,0.0,0.0,0.0,0.0,0.0,0.0,0.0,0.0,0.01047229756095879,0.011111545924531922,9.809876688071117,0.0,0.0,0.0,0.0,0.0,0.0,0.0,0.0,0.0
2025/05/06 15:48:45.11762153,1746539325,9324555,mA1/imu,0.04661733305588943,0.9989125401454552,0.0006393062252054553,0.00039075115001990714,0.0,0.0,0.0,0.0,0.0,0.0,0.0,0.0,0.0,-0.00023750644010771314,-0.00010205886970099254,-0.000426811123426815,0.0,0.0,0.0,0.0,0.0,0.0,0.0,0.0,0.0,0.012494453953759345,-0.012184172604228324,9.81214219367466,0.0,0.0,0.0,0.0,0.0,0.0,0.0,0.0,0.0
2025/05/06 15:48:45.65849015,1746539325,62304674,mA1/imu,0.04660684860648258,0.9989130250631613,0.0006421366404287866,0.0003970927743062682,0.0,0.0,0.0,0.0,0.0,0.0,0.0,0.0,0.0,-0.00039469346163964746,-0.0003424766544799753,-0.00041548136938746277,0.0,0.0,0.0,0.0,0.0,0.0,0.0,0.0,0.0,0.012491001189457215,-0.02039046087135915,9.812948340074408,0.0,0.0,0.0,0.0,0.0,0.0,0.0,0.0,0.0
2025/05/06 15:48:45.124189410,1746539325,106103507,mA1/imu,0.0465966581009405,0.9989135040915689,0.0006293491169059383,0.00040830995117027653,0.0,0.0,0.0,0.0,0.0,0.0,0.0,0.0,0.0,0.0007704222715199991,-0.00053931908523599,-0.00040380832017189515,0.0,0.0,0.0,0.0,0.0,0.0,0.0,0.0,0.0,0.011528737657303795,0.06427684917297645,9.809037997210122,0.0,0.0,0.0,0.0,0.0,0.0,0.0,0.0,0.0
2025/05/06 15:48:45.161332082,1746539325,156418336,mA1/imu,0.04658674171707135,0.9989139472289844,0.0006483749771282177,0.00042560249734984704,0.0,0.0,0.0,0.0,0.0,0.0,0.0,0.0,0.0,0.0012763844231400375,-0.00074436776659332,-0.0003927312417732455,0.0,0.0,0.0,0.0,0.0,0.0,0.0,0.0,0.0,0.011355075610616532,-0.5257991057669473,9.808903315094796,0.0,0.0,0.0,0.0,0.0,0.0,0.0,0.0,0.0
2025/05/06 15:48:45.207986914,1746539325,206578322,mA1/imu,0.04657708300249578,0.9989143859181139,0.0006529009360287238,0.0004457187269530966,0.0,0.0,0.0,0.0,0.0,0.0,0.0,0.0,0.0,-0.0008709527237088236,-0.0008538963702653271,-0.0003854443937581371,0.0,0.0,0.0,0.0,0.0,0.0,0.0,0.0,0.0,0.015004242410169729,-0.5348660241885483,9.810999713518125,0.0,0.0,0.0,0.0,0.0,0.0,0.0,0.0,0.0
2025/05/06 15:48:45.273223694,1746539325,259184145,mA1/imu,0.04657287162224694,0.9989145730865833,0.0006558669446998813,0.00046167375673693685,0.0,0.0,0.0,0.0,0.0,0.0,0.0,0.0,0.0,-0.0013718792298772864,-0.0005447919659629734,-7.145510814713118e-05,0.0,0.0,0.0,0.0,0.0,0.0,0.0,0.0,0.0,0.01788705311967739,-0.08045852636050733,9.811625840592535,0.0,0.0,0.0,0.0,0.0,0.0,0.0,0.0,0.0
2025/05/06 15:48:45.316699974,1746539325,310180088,mA1/imu,0.046571075196133106,0.9989146520048832,0.0006507888950228735,0.0004789977593251055,0.0,0.0,0.0,0.0,0.0,0.0,0.0,0.0,0.0,-0.0007061050697140575,-0.0007934667349470375,-7.500798727323423e-05,0.0,0.0,0.0,0.0,0.0,0.0,0.0,0.0,0.0,0.018647926915403824,0.37457570367187676,9.811841304856335,0.0,0.0,0.0,0.0,0.0,0.0,0.0,0.0,0.0
2025/05/06 15:48:45.359860237,1746539325,354902826,mA1/imu,0.04657436912434806,0.9989144907709393,0.0006499814969179393,0.0004957747043873718,0.0,0.0,0.0,0.0,0.0,0.0,0.0,0.0,0.0,0.0004989817671368057,-0.0006649026871642951,0.00021815017375369418,0.0,0.0,0.0,0.0,0.0,0.0,0.0,0.0,0.0,0.02031287843992028,0.050142706590397323,9.811355279474725,0.0,0.0,0.0,0.0,0.0,0.0,0.0,0.0,0.0
2025/05/06 15:48:45.408195200,1746539325,405889466,mA1/imu,0.04657969348445779,0.9989142296160387,0.0006531755740894495,0.000517094923282406,0.0,0.0,0.0,0.0,0.0,0.0,0.0,0.0,0.0,0.0013830022296200282,-0.000961620969910491,0.00020913484632408856,0.0,0.0,0.0,0.0,0.0,0.0,0.0,0.0,0.0,0.019906296300014562,-0.5204664529283414,9.808599865907674,0.0,0.0,0.0,0.0,0.0,0.0,0.0,0.0,0.0
2025/05/06 15:48:45.465857249,1746539325,463629221,mA1/imu,0.04658479037129264,0.9989139750941656,0.000656910231527876,0.0005441843281892304,0.0,0.0,0.0,0.0,0.0,0.0,0.0,0.0,0.0,0.0009559723101389235,-0.0011599116000610612,0.0001999298497879001,0.0,0.0,0.0,0.0,0.0,0.0,0.0,0.0,0.0,0.01946265349894623,-0.5546182298125949,9.808819122225527,0.0,0.0,0.0,0.0,0.0,0.0,0.0,0.0,0.0
2025/05/06 15:48:45.509582128,1746539325,506657547,mA1/imu,0.04658967497814785,0.9989137302350415,0.0006562582783576203,0.0005753767614288971,0.0,0.0,0.0,0.0,0.0,0.0,0.0,0.0,0.0,0.0002070818001728757,-0.0012982797390395544,0.00019143247206404278,0.0,0.0,0.0,0.0,0.0,0.0,0.0,0.0,0.0,0.019133133839940954,-0.47546903787357747,9.808751505023572,0.0,0.0,0.0,0.0,0.0,0.0,0.0,0.0,0.0
2025/05/06 15:48:45.562653667,1746539325,562050965,mA1/imu,0.04659405485465494,0.998913507980488,0.0006528714117559317,0.00060941384708755,0.0,0.0,0.0,0.0,0.0,0.0,0.0,0.0,0.0,-0.0006777519086678783,-0.0014085544781675659,0.0001592863549319986,0.0,0.0,0.0,0.0,0.0,0.0,0.0,0.0,0.0,0.021306814576193885,-0.04463941116262385,9.809297375290086,0.0,0.0,0.0,0.0,0.0,0.0,0.0,0.0,0.0
2025/05/06 15:48:45.611345257,1746539325,607808349,mA1/imu,0.04659742857713955,0.9989133317194552,0.000647036534027296,0.0006455283569476469,0.0,0.0,0.0,0.0,0.0,0.0,0.0,0.0,0.0,-0.0002919515484385819,-0.001457212745585532,0.00011729941922063991,0.0,0.0,0.0,0.0,0.0,0.0,0.0,0.0,0.0,0.02012996984385783,-0.018204640231684555,9.809434786127115,0.0,0.0,0.0,0.0,0.0,0.0,0.0,0.0,0.0
2025/05/06 15:48:45.663651132,1746539325,659836519,mA1/imu,0.04659976783745124,0.9989132078986867,0.0006333026498754279,0.00068091908814756,0.0,0.0,0.0,0.0,0.0,0.0,0.0,0.0,0.0,0.0012982875291369788,-0.0014055981936814282,7.591642864565088e-05,0.0,0.0,0.0,0.0,0.0,0.0,0.0,0.0,0.0,0.01912788677558916,0.08700395499586948,9.809483921570546,0.0,0.0,0.0,0.0,0.0,0.0,0.0,0.0,0.0
2025/05/06 15:48:45.722062179,1746539325,710918756,mA1/imu,0.046601080560245575,0.9989131257225395,0.000630099643049491,0.0007138096968940293,0.0,0.0,0.0,0.0,0.0,0.0,0.0,0.0,0.0,0.0011971853230430317,-0.0012487825113606337,3.655788241342837e-05,0.0,0.0,0.0,0.0,0.0,0.0,0.0,0.0,0.0,0.016814532149052853,0.07484656286973959,9.808922774658226,0.0,0.0,0.0,0.0,0.0,0.0,0.0,0.0,0.0
2025/05/06 15:48:45.773120129,1746539325,758341273,mA1/imu,0.04660292403953989,0.9989130187663002,0.0006353139681676272,0.0007380964189619977,0.0,0.0,0.0,0.0,0.0,0.0,0.0,0.0,0.0,-2.9482901431191495e-05,-0.0007986309005152765,8.787677185452211e-05,0.0,0.0,0.0,0.0,0.0,0.0,0.0,0.0,0.0,0.015530797752666097,-0.053712945149695275,9.808445135622412,0.0,0.0,0.0,0.0,0.0,0.0,0.0,0.0,0.0
2025/05/06 15:48:45.809760755,1746539325,805538438,mA1/imu,0.04660497593310981,0.9989129154352737,0.0006312932705556181,0.0007517071785591805,0.0,0.0,0.0,0.0,0.0,0.0,0.0,0.0,0.0,2.937257434575389e-05,-0.0003749415694687664,7.97918135867718e-05,0.0,0.0,0.0,0.0,0.0,0.0,0.0,0.0,0.0,0.013183095990640959,-0.633070215436861,9.808112599292679,0.0,0.0,0.0,0.0,0.0,0.0,0.0,0.0,0.0
2025/05/06 15:48:45.866441569,1746539325,855462972,mA1/imu,0.04660695735221497,0.9989128314300288,0.0006160943218703721,0.0007530993281432893,0.0,0.0,0.0,0.0,0.0,0.0,0.0,0.0,0.0,0.0007095408320343769,0.00011257315248931747,7.819073950481135e-05,0.0,0.0,0.0,0.0,0.0,0.0,0.0,0.0,0.0,0.013295057583192606,-0.33355502622025957,9.808337564972032,0.0,0.0,0.0,0.0,0.0,0.0,0.0,0.0,0.0
2025/05/06 15:48:45.913505104,1746539325,905291421,mA1/imu,0.04660888335673177,0.9989127542025122,0.0006081119300155913,0.0007427541118174856,0.0,0.0,0.0,0.0,0.0,0.0,0.0,0.0,0.0,0.000587374379122742,0.0005916137778735644,7.636125442559022e-05,0.0,0.0,0.0,0.0,0.0,0.0,0.0,0.0,0.0,0.013092341155778921,0.030725408792492623,9.809471910177637,0.0,0.0,0.0,0.0,0.0,0.0,0.0,0.0,0.0
2025/05/06 15:48:45.966009551,1746539325,962607015,mA1/imu,0.046610493140846226,0.9989126945765905,0.0006103399336626485,0.0007197416672293403,0.0,0.0,0.0,0.0,0.0,0.0,0.0,0.0,0.0,-0.0010698104673128946,0.0011755800502165033,4.63635206759123e-05,0.0,0.0,0.0,0.0,0.0,0.0,0.0,0.0,0.0,0.00761845653071196,0.5432306050078471,9.810611440092728,0.0,0.0,0.0,0.0,0.0,0.0,0.0,0.0,0.0
2025/05/06 15:48:46.12276022,1746539326,11586424,mA1/imu,0.04661136994888204,0.9989126826503737,0.0006064056422127794,0.0006818386313296402,0.0,0.0,0.0,0.0,0.0,0.0,0.0,0.0,0.0,0.0004426409707054594,0.0017072992731665688,3.725922006063389e-05,0.0,0.0,0.0,0.0,0.0,0.0,0.0,0.0,0.0,0.007804912389931574,-0.602857835376553,9.808888081059452,0.0,0.0,0.0,0.0,0.0,0.0,0.0,0.0,0.0
2025/05/06 15:48:46.61486436,1746539326,54140120,mA1/imu,0.04661363107289168,0.9989126116235689,0.0006057576339185596,0.0006299168755423143,0.0,0.0,0.0,0.0,0.0,0.0,0.0,0.0,0.0,-0.0012635110225971045,0.002288159403422804,0.00012373433721347157,0.0,0.0,0.0,0.0,0.0,0.0,0.0,0.0,0.0,0.00925900782490316,-0.09452507743397169,9.8118130696403,0.0,0.0,0.0,0.0,0.0,0.0,0.0,0.0,0.0
2025/05/06 15:48:46.109871768,1746539326,106027837,mA1/imu,0.04661712586318851,0.998912492239577,0.0005955588482210327,0.0005672156829745517,0.0,0.0,0.0,0.0,0.0,0.0,0.0,0.0,0.0,0.0006955231257335797,0.0026142488040023794,0.00015258996599250738,0.0,0.0,0.0,0.0,0.0,0.0,0.0,0.0,0.0,0.007797945718492837,-0.5822806392961719,9.809391115455053,0.0,0.0,0.0,0.0,0.0,0.0,0.0,0.0,0.0
2025/05/06 15:48:46.167292225,1746539326,161386848,mA1/imu,0.046621322275605157,0.998912335507598,0.0005914585027150197,0.0004984544812891658,0.0,0.0,0.0,0.0,0.0,0.0,0.0,0.0,0.0,0.0011231440240006346,0.0027986120014446753,0.00018072216229583028,0.0,0.0,0.0,0.0,0.0,0.0,0.0,0.0,0.0,0.009182734378635381,-0.21418241938063073,9.809810301949138,0.0,0.0,0.0,0.0,0.0,0.0,0.0,0.0,0.0
2025/05/06 15:48:46.213809459,1746539326,211996852,mA1/imu,0.04662620347290338,0.9989121386428136,0.00059428255064474,0.00042807708865240585,0.0,0.0,0.0,0.0,0.0,0.0,0.0,0.0,0.0,-0.000854899797892787,0.0028133174781071373,0.00020799856021923722,0.0,0.0,0.0,0.0,0.0,0.0,0.0,0.0,0.0,0.009843220128354974,0.5715864407911306,9.811272036154696,0.0,0.0,0.0,0.0,0.0,0.0,0.0,0.0,0.0
2025/05/06 15:48:46.259292393,1746539326,256916702,mA1/imu,0.04662494610527928,0.9989122215706423,0.0005927082639970416,0.0003697220545189337,0.0,0.0,0.0,0.0,0.0,0.0,0.0,0.0,0.0,-0.0006181456919817288,0.0017120195028285544,-0.0004529573318897212,0.0,0.0,0.0,0.0,0.0,0.0,0.0,0.0,0.0,0.05529300603910391,0.5886413149675073,9.813389697402503,0.0,0.0,0.0,0.0,0.0,0.0,0.0,0.0,0.0
2025/05/06 15:48:46.310764260,1746539326,309904163,mA1/imu,0.04660773067754549,0.998913036475306,0.000593910010682598,0.00033506965319738123,0.0,0.0,0.0,0.0,0.0,0.0,0.0,0.0,0.0,-0.00029815383500433066,0.001364600161262701,-0.000693073539075755,0.0,0.0,0.0,0.0,0.0,0.0,0.0,0.0,0.0,0.003481800492588516,0.6231503153257725,9.811452619484221,0.0,0.0,0.0,0.0,0.0,0.0,0.0,0.0,0.0
2025/05/06 15:48:46.364832418,1746539326,363221329,mA1/imu,0.046591650642110606,0.998913792020787,0.000602926241045395,0.0003011329327152545,0.0,0.0,0.0,0.0,0.0,0.0,0.0,0.0,0.0,0.00012846054564996187,0.0013560622769139363,-0.0006168643753522946,0.0,0.0,0.0,0.0,0.0,0.0,0.0,0.0,0.0,0.0028112170553928504,-0.01722877823540551,9.810441928483273,0.0,0.0,0.0,0.0,0.0,0.0,0.0,0.0,0.0
2025/05/06 15:48:46.408147337,1746539326,407344183,mA1/imu,0.04657625141143977,0.9989145139323888,0.0006120230810144299,0.0002684910170997858,0.0,0.0,0.0,0.0,0.0,0.0,0.0,0.0,0.0,0.0006480257177214308,0.0013173269113758892,-0.0006343429030499909,0.0,0.0,0.0,0.0,0.0,0.0,0.0,0.0,0.0,-0.005005084319397465,-0.5636829741290309,9.812509263923006,0.0,0.0,0.0,0.0,0.0,0.0,0.0,0.0,0.0
2025/05/06 15:48:46.461622088,1746539326,461296964,mA1/imu,0.046560068440661025,0.99891527096312,0.0006217060008357064,0.00023440376736560102,0.0,0.0,0.0,0.0,0.0,0.0,0.0,0.0,0.0,-3.9593522111908875e-05,0.0013696631662530794,-0.0006398447690151931,0.0,0.0,0.0,0.0,0.0,0.0,0.0,0.0,0.0,-0.0016902169899755595,-0.37683220381567145,9.812030121505227,0.0,0.0,0.0,0.0,0.0,0.0,0.0,0.0,0.0
2025/05/06 15:48:46.513503335,1746539326,512333893,mA1/imu,0.04654446042299145,0.9989160021783495,0.0006269094364622732,0.00020194185916978645,0.0,0.0,0.0,0.0,0.0,0.0,0.0,0.0,0.0,-0.0001946924990510915,0.0012606700747662914,-0.0006136496636024917,0.0,0.0,0.0,0.0,0.0,0.0,0.0,0.0,0.0,-0.0017317316494894538,0.016572040723080602,9.810378763398955,0.0,0.0,0.0,0.0,0.0,0.0,0.0,0.0,0.0
2025/05/06 15:48:46.560581698,1746539326,555638718,mA1/imu,0.04652950214174933,0.9989166999093271,0.0006340478847160329,0.0001733666060483463,0.0,0.0,0.0,0.0,0.0,0.0,0.0,0.0,0.0,-0.00024800794057122357,0.0010750421885305497,-0.0005878884656748352,0.0,0.0,0.0,0.0,0.0,0.0,0.0,0.0,0.0,-0.0010714480008450489,0.01125648112490979,9.809648614917496,0.0,0.0,0.0,0.0,0.0,0.0,0.0,0.0,0.0
2025/05/06 15:48:46.613025834,1746539326,606548250,mA1/imu,0.046515179298011425,0.9989173639764207,0.000644478296534981,0.00015062867663683338,0.0,0.0,0.0,0.0,0.0,0.0,0.0,0.0,0.0,-0.001237205962715653,0.0008334919232257246,-0.0005628850545218485,0.0,0.0,0.0,0.0,0.0,0.0,0.0,0.0,0.0,-0.001142574218918928,0.37985712076516,9.80968407952027,0.0,0.0,0.0,0.0,0.0,0.0,0.0,0.0,0.0
2025/05/06 15:48:46.667757985,1746539326,660018078,mA1/imu,0.04650148140964368,0.9989180013215898,0.0006485984796399206,0.00013484213407256317,0.0,0.0,0.0,0.0,0.0,0.0,0.0,0.0,0.0,-0.0002956672393880615,0.0005129706322525997,-0.0005382622567217192,0.0,0.0,0.0,0.0,0.0,0.0,0.0,0.0,0.0,-0.00039487396763121,-0.06771062173088671,9.810692228753311,0.0,0.0,0.0,0.0,0.0,0.0,0.0,0.0,0.0
2025/05/06 15:48:46.714989991,1746539326,712841335,mA1/imu,0.04648839272657739,0.9989186138509415,0.0006451008209452802,0.00012684141216719739,0.0,0.0,0.0,0.0,0.0,0.0,0.0,0.0,0.0,0.0006917480002440806,0.0001601563166672948,-0.000515380403039591,0.0,0.0,0.0,0.0,0.0,0.0,0.0,0.0,0.0,0.0024191542279249564,0.06654544633954383,9.810548256447378,0.0,0.0,0.0,0.0,0.0,0.0,0.0,0.0,0.0
2025/05/06 15:48:46.756881685,1746539326,756053213,mA1/imu,0.04647580240762446,0.998919193884248,0.0006534547667614535,0.00012991181374020412,0.0,0.0,0.0,0.0,0.0,0.0,0.0,0.0,0.0,0.0008841120923263095,-0.0002928845645560279,-0.0004965867971380193,0.0,0.0,0.0,0.0,0.0,0.0,0.0,0.0,0.0,0.0015532611687621507,0.08097469132375446,9.808545269428752,0.0,0.0,0.0,0.0,0.0,0.0,0.0,0.0,0.0
2025/05/06 15:48:46.814572782,1746539326,813224052,mA1/imu,0.046463634612265554,0.9989197537760731,0.0006599600361105161,0.00014362213677160493,0.0,0.0,0.0,0.0,0.0,0.0,0.0,0.0,0.0,-0.0006913311799493728,-0.0007129926927918864,-0.0004839957310306714,0.0,0.0,0.0,0.0,0.0,0.0,0.0,0.0,0.0,0.0037658031528414555,-0.22768052139054132,9.808141100678046,0.0,0.0,0.0,0.0,0.0,0.0,0.0,0.0,0.0
2025/05/06 15:48:46.863001751,1746539326,857225315,mA1/imu,0.046451528832679626,0.9989203157612387,0.0006556678170087048,0.00016831009257499597,0.0,0.0,0.0,0.0,0.0,0.0,0.0,0.0,0.0,0.00041042668894702354,-0.0011783794771558379,-0.0004896929637457866,0.0,0.0,0.0,0.0,0.0,0.0,0.0,0.0,0.0,0.004611164790360596,-0.5888374197419934,9.808121009839203,0.0,0.0,0.0,0.0,0.0,0.0,0.0,0.0,0.0
2025/05/06 15:48:46.909601249,1746539326,909190984,mA1/imu,0.04643910671763094,0.998920888274024,0.0006532205891641043,0.0002040587306417658,0.0,0.0,0.0,0.0,0.0,0.0,0.0,0.0,0.0,0.0003550880062501505,-0.0015962851376552791,-0.0005039999772572567,0.0,0.0,0.0,0.0,0.0,0.0,0.0,0.0,0.0,0.004985500001762021,0.03173260159130629,9.808803496354292,0.0,0.0,0.0,0.0,0.0,0.0,0.0,0.0,0.0
2025/05/06 15:48:46.964286692,1746539326,961080957,mA1/imu,0.046428360898051614,0.998921378427385,0.0006526416406022266,0.00024715165787285583,0.0,0.0,0.0,0.0,0.0,0.0,0.0,0.0,0.0,-0.0005940332509704416,-0.001751376697342964,-0.0003427331034079968,0.0,0.0,0.0,0.0,0.0,0.0,0.0,0.0,0.0,0.003938313019953542,0.505635225591917,9.81014597359383,0.0,0.0,0.0,0.0,0.0,0.0,0.0,0.0,0.0
2025/05/06 15:48:47.12324414,1746539327,11597534,mA1/imu,0.04641995850032713,0.9989217561875628,0.0006520720331487591,0.0002954150418504767,0.0,0.0,0.0,0.0,0.0,0.0,0.0,0.0,0.0,-0.0019115748388739875,-0.0020450316297219604,-0.0003445504130434222,0.0,0.0,0.0,0.0,0.0,0.0,0.0,0.0,0.0,0.0077800510805459445,0.5034152348796951,9.80966211910253,0.0,0.0,0.0,0.0,0.0,0.0,0.0,0.0,0.0
2025/05/06 15:48:47.57250731,1746539327,55441091,mA1/imu,0.046410915029775186,0.9989221675021629,0.0006378900131136101,0.0003511911319084094,0.0,0.0,0.0,0.0,0.0,0.0,0.0,0.0,0.0,0.00013532258213972196,-0.0023492756545502287,-0.0003765264134713623,0.0,0.0,0.0,0.0,0.0,0.0,0.0,0.0,0.0,0.008944342212916866,0.009769431969509702,9.808115155727407,0.0,0.0,0.0,0.0,0.0,0.0,0.0,0.0,0.0
2025/05/06 15:48:47.111588053,1746539327,108201680,mA1/imu,0.046401070240716775,0.9989226062629804,0.0006304481438092069,0.0004122043535117694,0.0,0.0,0.0,0.0,0.0,0.0,0.0,0.0,0.0,0.0009323537750246341,-0.0025144295532219746,-0.0004100802804751107,0.0,0.0,0.0,0.0,0.0,0.0,0.0,0.0,0.0,0.010745926566845544,0.05596945147261301,9.808962722845559,0.0,0.0,0.0,0.0,0.0,0.0,0.0,0.0,0.0
2025/05/06 15:48:47.166752291,1746539327,165030920,mA1/imu,0.04640534232742391,0.9989223920986883,0.0006269019178779812,0.0004536091870956064,0.0,0.0,0.0,0.0,0.0,0.0,0.0,0.0,0.0,-0.0007984509900787464,-0.0013668263013694865,0.0004126818784077336,0.0,0.0,0.0,0.0,0.0,0.0,0.0,0.0,0.0,0.014557802945883845,0.2825302482751623,9.809937499984354,0.0,0.0,0.0,0.0,0.0,0.0,0.0,0.0,0.0
2025/05/06 15:48:47.212153028,1746539327,205278708,mA1/imu,0.046415631056882505,0.9989219094426812,0.0006072976887697969,0.0004890996791153441,0.0,0.0,0.0,0.0,0.0,0.0,0.0,0.0,0.0,0.001615847957782275,-0.001506665100681818,0.00040958798993196544,0.0,0.0,0.0,0.0,0.0,0.0,0.0,0.0,0.0,0.013850638374762806,-0.5336832718273359,9.808624395498034,0.0,0.0,0.0,0.0,0.0,0.0,0.0,0.0,0.0
2025/05/06 15:48:47.261619279,1746539327,261151177,mA1/imu,0.04642574171236052,0.9989214252983937,0.0005986406491190513,0.000527461521046164,0.0,0.0,0.0,0.0,0.0,0.0,0.0,0.0,0.0,0.0007831269401172239,-0.0015866470774861434,0.0003988825867954107,0.0,0.0,0.0,0.0,0.0,0.0,0.0,0.0,0.0,0.014751816852921873,-0.06608420401562387,9.809840190509926,0.0,0.0,0.0,0.0,0.0,0.0,0.0,0.0,0.0
2025/05/06 15:48:47.321671806,1746539327,318292344,mA1/imu,0.04643551892507259,0.998920958701075,0.0005828262663002299,0.0005667128262628952,0.0,0.0,0.0,0.0,0.0,0.0,0.0,0.0,0.0,0.0008094674643184837,-0.0016127634202260095,0.0003827592440861733,0.0,0.0,0.0,0.0,0.0,0.0,0.0,0.0,0.0,0.017333464617182045,0.2444833774148617,9.811543937726977,0.0,0.0,0.0,0.0,0.0,0.0,0.0,0.0,0.0
2025/05/06 15:48:47.368987109,1746539327,367619470,mA1/imu,0.04644831324825029,0.9989203458802022,0.0005786039098332754,0.0006016647614290295,0.0,0.0,0.0,0.0,0.0,0.0,0.0,0.0,0.0,-0.0006470048101551115,-0.0013720296658891106,0.0005334001247402741,0.0,0.0,0.0,0.0,0.0,0.0,0.0,0.0,0.0,0.018252112861899268,0.2363400020246517,9.811322667872586,0.0,0.0,0.0,0.0,0.0,0.0,0.0,0.0,0.0
2025/05/06 15:48:47.415474741,1746539327,411325479,mA1/imu,0.04646149876749644,0.9989197215690743,0.0005622318360476006,0.0006347345928429847,0.0,0.0,0.0,0.0,0.0,0.0,0.0,0.0,0.0,0.001418328261897396,-0.0013375673523046976,0.0005211191717052908,0.0,0.0,0.0,0.0,0.0,0.0,0.0,0.0,0.0,0.018777979893153558,-0.5420931482350914,9.810500689755147,0.0,0.0,0.0,0.0,0.0,0.0,0.0,0.0,0.0
2025/05/06 15:48:47.459443822,1746539327,456627281,mA1/imu,0.04647423106344515,0.9989191112314723,0.0005574556424397041,0.0006665634209022807,0.0,0.0,0.0,0.0,0.0,0.0,0.0,0.0,0.0,0.0015407321132002987,-0.001246188226942132,0.000501015571290898,0.0,0.0,0.0,0.0,0.0,0.0,0.0,0.0,0.0,0.017950561876090808,-0.5303929346800037,9.809938141226135,0.0,0.0,0.0,0.0,0.0,0.0,0.0,0.0,0.0
2025/05/06 15:48:47.513608548,1746539327,512425886,mA1/imu,0.046486456592320445,0.9989185289199133,0.0005469859021704556,0.0006947952140587755,0.0,0.0,0.0,0.0,0.0,0.0,0.0,0.0,0.0,-0.00017960336606409114,-0.0010856304209777348,0.00047893056424066073,0.0,0.0,0.0,0.0,0.0,0.0,0.0,0.0,0.0,0.020307903763025693,0.522808266966341,9.812786274656618,0.0,0.0,0.0,0.0,0.0,0.0,0.0,0.0,0.0
2025/05/06 15:48:47.562324615,1746539327,557370690,mA1/imu,0.046503226402174684,0.9989177423739445,0.0005362580113284493,0.0007115701477477397,0.0,0.0,0.0,0.0,0.0,0.0,0.0,0.0,0.0,0.0012093002540544814,-0.00050008239093826,0.0007536944985922731,0.0,0.0,0.0,0.0,0.0,0.0,0.0,0.0,0.0,0.021432901701101473,-0.5303862260481201,9.810610539466579,0.0,0.0,0.0,0.0,0.0,0.0,0.0,0.0,0.0
2025/05/06 15:48:47.637668918,1746539327,608226974,mA1/imu,0.04652176203546239,0.9989168721747589,0.0005349147070508856,0.0007225011892573345,0.0,0.0,0.0,0.0,0.0,0.0,0.0,0.0,0.0,-1.9283174947880972e-05,-0.0003938020309200321,0.0007341738612854601,0.0,0.0,0.0,0.0,0.0,0.0,0.0,0.0,0.0,0.021938094537999463,0.4638164893126965,9.81227673721426,0.0,0.0,0.0,0.0,0.0,0.0,0.0,0.0,0.0
2025/05/06 15:48:47.662582497,1746539327,660731076,mA1/imu,0.04653981574534061,0.9989160252549535,0.0005356648700751123,0.0007301386044752566,0.0,0.0,0.0,0.0,0.0,0.0,0.0,0.0,0.0,0.00029041039614353237,-0.00024365168868229178,0.0007151538805819448,0.0,0.0,0.0,0.0,0.0,0.0,0.0,0.0,0.0,0.0215706470795546,-0.27862335726135684,9.811005875079257,0.0,0.0,0.0,0.0,0.0,0.0,0.0,0.0,0.0
2025/05/06 15:48:47.718844079,1746539327,711536506,mA1/imu,0.04655738974876904,0.9989152028809746,0.0005367247629907022,0.0007340569263912072,0.0,0.0,0.0,0.0,0.0,0.0,0.0,0.0,0.0,-0.00011109641720104171,-0.00010688884026228053,0.0006960463326035372,0.0,0.0,0.0,0.0,0.0,0.0,0.0,0.0,0.0,0.022979808514505207,0.009476058442528976,9.811217740599883,0.0,0.0,0.0,0.0,0.0,0.0,0.0,0.0,0.0
2025/05/06 15:48:47.767971407,1746539327,762990725,mA1/imu,0.04657259566089817,0.9989144905448255,0.0005392968618542984,0.0007369341035823898,0.0,0.0,0.0,0.0,0.0,0.0,0.0,0.0,0.0,-0.00016980289665440506,-8.092859640665455e-05,0.0005618971836354291,0.0,0.0,0.0,0.0,0.0,0.0,0.0,0.0,0.0,0.020446375733183652,0.015278173913568012,9.810470187885237,0.0,0.0,0.0,0.0,0.0,0.0,0.0,0.0,0.0
2025/05/06 15:48:47.811961632,1746539327,808421322,mA1/imu,0.04658578738023212,0.9989138711409159,0.0005480385522529126,0.0007362813178330306,0.0,0.0,0.0,0.0,0.0,0.0,0.0,0.0,0.0,8.361753252007426e-05,0.0001229970183543699,0.0005038082969077253,0.0,0.0,0.0,0.0,0.0,0.0,0.0,0.0,0.0,0.020265105455332864,-0.5898878343275287,9.808524176866417,0.0,0.0,0.0,0.0,0.0,0.0,0.0,0.0,0.0
2025/05/06 15:48:47.860554741,1746539327,859342916,mA1/imu,0.04660280958107146,0.9989130836146547,0.0005553691408301689,0.0007218640659023676,0.0,0.0,0.0,0.0,0.0,0.0,0.0,0.0,0.0,-0.0011638006971390461,0.0008240051184674077,0.0007637382614332344,0.0,0.0,0.0,0.0,0.0,0.0,0.0,0.0,0.0,0.023201201232146487,-0.048840136445389044,9.809992158142151,0.0,0.0,0.0,0.0,0.0,0.0,0.0,0.0,0.0
2025/05/06 15:48:47.912184551,1746539327,911653265,mA1/imu,0.04662123439013391,0.9989122344035364,0.0005635954034097086,0.0007005876787916038,0.0,0.0,0.0,0.0,0.0,0.0,0.0,0.0,0.0,0.00019955647897348556,0.0008855543676382823,0.0007214760179083812,0.0,0.0,0.0,0.0,0.0,0.0,0.0,0.0,0.0,0.022412276816981762,-0.5783379435006303,9.80923618325879,0.0,0.0,0.0,0.0,0.0,0.0,0.0,0.0,0.0
2025/05/06 15:48:47.958246076,1746539327,955213124,mA1/imu,0.04664392977093374,0.9989111909206174,0.0005705716408493376,0.000671503596860825,0.0,0.0,0.0,0.0,0.0,0.0,0.0,0.0,0.0,0.0002193449190869572,0.001468911506499479,0.0011311426394547703,0.0,0.0,0.0,0.0,0.0,0.0,0.0,0.0,0.0,0.021451709240300897,-0.025749856686665837,9.809154163385319,0.0,0.0,0.0,0.0,0.0,0.0,0.0,0.0,0.0
2025/05/06 15:48:48.11393875,1746539328,10349512,mA1/imu,0.04667288373271309,0.9989098573834392,0.0005766713690792812,0.0006373353921410752,0.0,0.0,0.0,0.0,0.0,0.0,0.0,0.0,0.0,-0.000440164152065584,0.0012740524408380654,0.0011585305807989253,0.0,0.0,0.0,0.0,0.0,0.0,0.0,0.0,0.0,0.028808526632055576,0.6329990657231477,9.810141180956059,0.0,0.0,0.0,0.0,0.0,0.0,0.0,0.0,0.0
2025/05/06 15:48:48.64346976,1746539328,62972980,mA1/imu,0.04670171746784174,0.9989085173220473,0.000591939054768784,0.0006109133969073528,0.0,0.0,0.0,0.0,0.0,0.0,0.0,0.0,0.0,-0.0007437341693625602,0.0009501719402460247,0.0011536944185510367,0.0,0.0,0.0,0.0,0.0,0.0,0.0,0.0,0.0,0.028482753135244333,0.14677836130639954,9.8085509943442,0.0,0.0,0.0,0.0,0.0,0.0,0.0,0.0,0.0
2025/05/06 15:48:48.113351357,1746539328,109384399,mA1/imu,0.046730434942810574,0.9989071766469041,0.0006058745856518777,0.0005931351893045698,0.0,0.0,0.0,0.0,0.0,0.0,0.0,0.0,0.0,-0.0008822385593829547,0.0005861393809858415,0.001147784278842808,0.0,0.0,0.0,0.0,0.0,0.0,0.0,0.0,0.0,0.02788750710462732,-0.03180514583763851,9.808780318586278,0.0,0.0,0.0,0.0,0.0,0.0,0.0,0.0,0.0
2025/05/06 15:48:48.161245637,1746539328,157019155,mA1/imu,0.04675728601365712,0.9989059212807038,0.0006128873818212471,0.0005839555144700639,0.0,0.0,0.0,0.0,0.0,0.0,0.0,0.0,0.0,-1.4149821269361355e-05,0.00024490953221999737,0.0010476762463297205,0.0,0.0,0.0,0.0,0.0,0.0,0.0,0.0,0.0,0.026383519473657777,-0.5912999748207336,9.808735799487055,0.0,0.0,0.0,0.0,0.0,0.0,0.0,0.0,0.0
2025/05/06 15:48:48.217630282,1746539328,213516070,mA1/imu,0.046782876216633615,0.9989047197951477,0.0006191176651963706,0.0005830584818498288,0.0,0.0,0.0,0.0,0.0,0.0,0.0,0.0,0.0,0.0008190092017640211,-7.959704553884138e-05,0.0010108219832442467,0.0,0.0,0.0,0.0,0.0,0.0,0.0,0.0,0.0,0.025046835226915636,-0.5345880795960901,9.80884667108691,0.0,0.0,0.0,0.0,0.0,0.0,0.0,0.0,0.0
2025/05/06 15:48:48.264711045,1746539328,259050601,mA1/imu,0.0468086816844698,0.9989034982560003,0.0006345510041297832,0.0005880781493659528,0.0,0.0,0.0,0.0,0.0,0.0,0.0,0.0,0.0,-0.0015649508040578945,-0.00026279135738675724,0.0010384000618364258,0.0,0.0,0.0,0.0,0.0,0.0,0.0,0.0,0.0,0.025303501717172217,0.24769454230693883,9.80972548105346,0.0,0.0,0.0,0.0,0.0,0.0,0.0,0.0,0.0
2025/05/06 15:48:48.314271112,1746539328,312728079,mA1/imu,0.04683412163521856,0.9989022952220401,0.0006410961612123409,0.0005988710294787364,0.0,0.0,0.0,0.0,0.0,0.0,0.0,0.0,0.0,-0.0014427644618428895,-0.0005167557505050875,0.0010043705518269655,0.0,0.0,0.0,0.0,0.0,0.0,0.0,0.0,0.0,0.025252327378330164,0.45712009162313605,9.810533488695887,0.0,0.0,0.0,0.0,0.0,0.0,0.0,0.0,0.0
2025/05/06 15:48:48.364424669,1746539328,358796664,mA1/imu,0.0468586311169351,0.998901140183575,0.0006341410219578711,0.0006153819669491404,0.0,0.0,0.0,0.0,0.0,0.0,0.0,0.0,0.0,0.00021223438001880443,-0.0007542301870464262,0.0009650999137540473,0.0,0.0,0.0,0.0,0.0,0.0,0.0,0.0,0.0,0.024035299689311188,0.039630141419523916,9.809198186735275,0.0,0.0,0.0,0.0,0.0,0.0,0.0,0.0,0.0
2025/05/06 15:48:48.410319303,1746539328,407716780,mA1/imu,0.0468821567237124,0.9989000192171267,0.0006392809766703017,0.0006374235560536263,0.0,0.0,0.0,0.0,0.0,0.0,0.0,0.0,0.0,0.0010587116575615228,-0.0009412930579193525,0.0009269772799702747,0.0,0.0,0.0,0.0,0.0,0.0,0.0,0.0,0.0,0.023745892622795584,0.09173581209823138,9.810101619993898,0.0,0.0,0.0,0.0,0.0,0.0,0.0,0.0,0.0
2025/05/06 15:48:48.469416888,1746539328,461205366,mA1/imu,0.04692168311920693,0.9988981576575502,0.0006499062766956024,0.0006355339836492115,0.0,0.0,0.0,0.0,0.0,0.0,0.0,0.0,0.0,-0.00029999297323031086,0.0004320742927139128,0.0018544364184119096,0.0,0.0,0.0,0.0,0.0,0.0,0.0,0.0,0.0,0.026094703745488314,-0.004703556595401734,9.809899611340963,0.0,0.0,0.0,0.0,0.0,0.0,0.0,0.0,0.0
2025/05/06 15:48:48.525202700,1746539328,511885865,mA1/imu,0.0469677792903726,0.9988959945774389,0.0006523640180359288,0.0006278111722335439,0.0,0.0,0.0,0.0,0.0,0.0,0.0,0.0,0.0,-0.00015713179003345836,0.00022343002310707774,0.0018405306663918976,0.0,0.0,0.0,0.0,0.0,0.0,0.0,0.0,0.0,0.025478640246436448,-0.629452788874094,9.809732455860388,0.0,0.0,0.0,0.0,0.0,0.0,0.0,0.0,0.0
2025/05/06 15:48:48.591183935,1746539328,563778940,mA1/imu,0.04701353889592065,0.9988938483955606,0.0006451516914516547,0.0006249618258974326,0.0,0.0,0.0,0.0,0.0,0.0,0.0,0.0,0.0,-0.00026935019547596356,1.9524204269245065e-05,0.0018267772942345054,0.0,0.0,0.0,0.0,0.0,0.0,0.0,0.0,0.0,0.025477117128905536,-0.01717214740842997,9.810275614600993,0.0,0.0,0.0,0.0,0.0,0.0,0.0,0.0,0.0
2025/05/06 15:48:48.622512543,1746539328,606532958,mA1/imu,0.047058956487181905,0.9988917150444248,0.000634884422359221,0.0006270181141721868,0.0,0.0,0.0,0.0,0.0,0.0,0.0,0.0,0.0,0.0003498522204222074,-0.0001770402473097702,0.0018130459403477332,0.0,0.0,0.0,0.0,0.0,0.0,0.0,0.0,0.0,0.024784135642478278,0.02034164204998007,9.812112231808063,0.0,0.0,0.0,0.0,0.0,0.0,0.0,0.0,0.0
2025/05/06 15:48:48.666278787,1746539328,654351234,mA1/imu,0.047104105874753194,0.9988895857767581,0.000630060817836402,0.0006337663941440655,0.0,0.0,0.0,0.0,0.0,0.0,0.0,0.0,0.0,-0.0004543346433402439,-0.00033955715347927566,0.001805355518398265,0.0,0.0,0.0,0.0,0.0,0.0,0.0,0.0,0.0,0.023972639207355862,0.5905425808513198,9.812757123051945,0.0,0.0,0.0,0.0,0.0,0.0,0.0,0.0,0.0
2025/05/06 15:48:48.718365743,1746539328,713685412,mA1/imu,0.04714912968112707,0.9988874617619723,0.0006198170823867605,0.0006435307460696907,0.0,0.0,0.0,0.0,0.0,0.0,0.0,0.0,0.0,-0.0005674232767314321,-0.0004296553300679985,0.0018021694289225524,0.0,0.0,0.0,0.0,0.0,0.0,0.0,0.0,0.0,0.02044297011073192,0.41409256492932256,9.810124087002917,0.0,0.0,0.0,0.0,0.0,0.0,0.0,0.0,0.0
2025/05/06 15:48:48.762505337,1746539328,760994897,mA1/imu,0.04718911352366852,0.9988855697724651,0.000606858309739361,0.0006616556354218788,0.0,0.0,0.0,0.0,0.0,0.0,0.0,0.0,0.0,0.0007393778568301152,-0.0008464935464791033,0.0015080632511947484,0.0,0.0,0.0,0.0,0.0,0.0,0.0,0.0,0.0,0.018030657002709755,0.24053865258397442,9.810331841480924,0.0,0.0,0.0,0.0,0.0,0.0,0.0,0.0,0.0
2025/05/06 15:48:48.806072256,1746539328,805022799,mA1/imu,0.04722647215020574,0.9988837958841554,0.0005994881299729729,0.000680633740641433,0.0,0.0,0.0,0.0,0.0,0.0,0.0,0.0,0.0,0.0007939577684506542,-0.0007082378529848411,0.001490015056937931,0.0,0.0,0.0,0.0,0.0,0.0,0.0,0.0,0.0,0.01654908062993008,0.042084638516905463,9.811412535539056,0.0,0.0,0.0,0.0,0.0,0.0,0.0,0.0,0.0
2025/05/06 15:48:48.870140113,1746539328,864794777,mA1/imu,0.04726227975424471,0.9988821005429424,0.0005893482070970099,0.0006919508953081768,0.0,0.0,0.0,0.0,0.0,0.0,0.0,0.0,0.0,0.0025129668112803642,-0.000336449107685129,0.001406918106192473,0.0,0.0,0.0,0.0,0.0,0.0,0.0,0.0,0.0,0.013634268549363364,-0.46333600013696125,9.810681846095891,0.0,0.0,0.0,0.0,0.0,0.0,0.0,0.0,0.0
2025/05/06 15:48:48.914966690,1746539328,913411084,mA1/imu,0.04729712659612548,0.9988804441972969,0.000596949358443627,0.0006954620220451881,0.0,0.0,0.0,0.0,0.0,0.0,0.0,0.0,0.0,-0.000531732413401981,-1.2042755956377656e-05,0.0013883479135806125,0.0,0.0,0.0,0.0,0.0,0.0,0.0,0.0,0.0,0.014715367228043966,-0.6726345154955281,9.811075392982485,0.0,0.0,0.0,0.0,0.0,0.0,0.0,0.0,0.0
2025/05/06 15:48:48.962995092,1746539328,957738514,mA1/imu,0.04733169988646074,0.9988788170324842,0.0005859761603695041,0.0006897112312926941,0.0,0.0,0.0,0.0,0.0,0.0,0.0,0.0,0.0,-0.000801727469273054,0.0003606070379189437,0.0013815222047675892,0.0,0.0,0.0,0.0,0.0,0.0,0.0,0.0,0.0,0.013651610979618423,-0.06242015159516859,9.810817482041903,0.0,0.0,0.0,0.0,0.0,0.0,0.0,0.0,0.0
2025/05/06 15:48:49.13404273,1746539329,11500850,mA1/imu,0.04736611644762942,0.9988772001508978,0.0005780703237396711,0.000675178549342119,0.0,0.0,0.0,0.0,0.0,0.0,0.0,0.0,0.0,-0.00018928258110377305,0.0007154295866840494,0.001377467154127838,0.0,0.0,0.0,0.0,0.0,0.0,0.0,0.0,0.0,0.011042348319601328,-0.014489695045416306,9.808594321598235,0.0,0.0,0.0,0.0,0.0,0.0,0.0,0.0,0.0
2025/05/06 15:48:49.60651958,1746539329,58138855,mA1/imu,0.04739883323232694,0.9988756683603953,0.0005680668511380844,0.0006535027468673962,0.0,0.0,0.0,0.0,0.0,0.0,0.0,0.0,0.0,0.0011867304716705908,0.0009730097482236653,0.0012795211735108537,0.0,0.0,0.0,0.0,0.0,0.0,0.0,0.0,0.0,0.008784729214967243,0.08395269502678201,9.809251537346181,0.0,0.0,0.0,0.0,0.0,0.0,0.0,0.0,0.0
2025/05/06 15:48:49.111937236,1746539329,111341043,mA1/imu,0.04743060860136376,0.9988741786889039,0.000569234086065657,0.0006232887187841126,0.0,0.0,0.0,0.0,0.0,0.0,0.0,0.0,0.0,0.0011544548164775504,0.001361847875020853,0.0012721822689019445,0.0,0.0,0.0,0.0,0.0,0.0,0.0,0.0,0.0,0.006586072522003498,0.08331711683181542,9.810443456987988,0.0,0.0,0.0,0.0,0.0,0.0,0.0,0.0,0.0
2025/05/06 15:48:49.158614282,1746539329,156187524,mA1/imu,0.04746099579098577,0.9988727568173614,0.0005770414634801546,0.0005801635646812504,0.0,0.0,0.0,0.0,0.0,0.0,0.0,0.0,0.0,-7.429995081413779e-05,0.0019314745741162624,0.0011958213811358123,0.0,0.0,0.0,0.0,0.0,0.0,0.0,0.0,0.0,0.0051768895754097394,0.006458613570801033,9.809380066728815,0.0,0.0,0.0,0.0,0.0,0.0,0.0,0.0,0.0
2025/05/06 15:48:49.212806209,1746539329,211873605,mA1/imu,0.047490731597094854,0.998871368685041,0.0005847425007183963,0.000526602177539257,0.0,0.0,0.0,0.0,0.0,0.0,0.0,0.0,0.0,-0.0003013534850945547,0.002275321808710268,0.0011895413347959597,0.0,0.0,0.0,0.0,0.0,0.0,0.0,0.0,0.0,0.00527808081682858,-0.6351556135854504,9.809730930353787,0.0,0.0,0.0,0.0,0.0,0.0,0.0,0.0,0.0
2025/05/06 15:48:49.264682923,1746539329,256522865,mA1/imu,0.04752030077495869,0.9988699919929015,0.0005852932068503793,0.0004664142154127762,0.0,0.0,0.0,0.0,0.0,0.0,0.0,0.0,0.0,-0.0004982151256503811,0.0024745046483575584,0.0011826712794176832,0.0,0.0,0.0,0.0,0.0,0.0,0.0,0.0,0.0,0.006693163292122249,-0.02422424158314189,9.809944394206632,0.0,0.0,0.0,0.0,0.0,0.0,0.0,0.0,0.0
2025/05/06 15:48:49.313395130,1746539329,310600353,mA1/imu,0.047549715206014295,0.9988686201834606,0.0005843946025633472,0.00040333554873807446,0.0,0.0,0.0,0.0,0.0,0.0,0.0,0.0,0.0,5.7298403793385724e-05,0.002537943521097579,0.0011785521796225454,0.0,0.0,0.0,0.0,0.0,0.0,0.0,0.0,0.0,0.00509830433925966,0.02153630770814722,9.807719283264836,0.0,0.0,0.0,0.0,0.0,0.0,0.0,0.0,0.0
2025/05/06 15:48:49.364388931,1746539329,363142998,mA1/imu,0.0475780654938127,0.9988672894871632,0.0005924449580541613,0.00033865233791513657,0.0,0.0,0.0,0.0,0.0,0.0,0.0,0.0,0.0,-0.0006568269377375878,0.002618199862790869,0.0011151031495912908,0.0,0.0,0.0,0.0,0.0,0.0,0.0,0.0,0.0,0.004206280002572722,0.33403958633623504,9.809286991571838,0.0,0.0,0.0,0.0,0.0,0.0,0.0,0.0,0.0
2025/05/06 15:48:49.412761490,1746539329,412323110,mA1/imu,0.04760566425835355,0.9988659911087607,0.0005974291255118737,0.00027498231575548963,0.0,0.0,0.0,0.0,0.0,0.0,0.0,0.0,0.0,0.0002873621395965817,0.002481424209280802,0.0011031255682833012,0.0,0.0,0.0,0.0,0.0,0.0,0.0,0.0,0.0,0.00335401167692687,0.03997439075433394,9.809066744307296,0.0,0.0,0.0,0.0,0.0,0.0,0.0,0.0,0.0
2025/05/06 15:48:49.468275041,1746539329,462316103,mA1/imu,0.04763315533406687,0.9988646894428342,0.0006065613924985467,0.00021628792838087674,0.0,0.0,0.0,0.0,0.0,0.0,0.0,0.0,0.0,-0.001237481936003502,0.002258959201809961,0.0011014835697462726,0.0,0.0,0.0,0.0,0.0,0.0,0.0,0.0,0.0,0.003976168413429249,0.28035630768481135,9.809079256129586,0.0,0.0,0.0,0.0,0.0,0.0,0.0,0.0,0.0
2025/05/06 15:48:49.514409151,1746539329,512914854,mA1/imu,0.04766058709663401,0.9988633891758866,0.0006090374092366834,0.0001651517480765771,0.0,0.0,0.0,0.0,0.0,0.0,0.0,0.0,0.0,-0.0014372859324549348,0.0019147895855044766,0.0010985785307872067,0.0,0.0,0.0,0.0,0.0,0.0,0.0,0.0,0.0,0.003091771860413837,0.5555475996318526,9.809490527600877,0.0,0.0,0.0,0.0,0.0,0.0,0.0,0.0,0.0
