time,header_stamp_secs,header_stamp_nsecs,header_frame_id,orientation_x,orientation_y,orientation_z,orientation_w,orientation_covariance_0,orientation_covariance_1,orientation_covariance_2,orientation_covariance_3,orientation_covariance_4,orientation_covariance_5,orientation_covariance_6,orientation_covariance_7,orientation_covariance_8,angular_velocity_x,angular_velocity_y,angular_velocity_z,angular_velocity_covariance_0,angular_velocity_covariance_1,angular_velocity_covariance_2,angular_velocity_covariance_3,angular_velocity_covariance_4,angular_velocity_covariance_5,angular_velocity_covariance_6,angular_velocity_covariance_7,angular_velocity_covariance_8,linear_acceleration_x,linear_acceleration_y,linear_acceleration_z,linear_acceleration_covariance_0,linear_acceleration_covariance_1,linear_acceleration_covariance_2,linear_acceleration_covariance_3,linear_acceleration_covariance_4,linear_acceleration_covariance_5,linear_acceleration_covariance_6,linear_acceleration_covariance_7,linear_acceleration_covariance_8
2025/05/07 10:42:04.202087218,1746607324,198131375,mti/imu_base_body,0.9516421038464782,0.30687183230937265,0.01043083892118979,-0.009908699265658566,0.017453292519943295,0.0,0.0,0.0,0.017453292519943295,0.0,0.0,0.0,0.15707963267948966,0.0100701367482543,-0.010360555723309517,-0.009317255578935146,0.0004363323129985824,0.0,0.0,0.0,0.0004363323129985824,0.0,0.0,0.0,0.0004363323129985824,-0.22651289403438568,0.07539045065641403,9.81420612335205,0.0004,0.0,0.0,0.0,0.0004,0.0,0.0,0.0,0.0004
2025/05/07 10:42:04.248233118,1746607324,247958883,mti/imu_base_body,0.9516238160756957,0.3069299499376029,0.010391676379021489,-0.009906138039859564,0.017453292519943295,0.0,0.0,0.0,0.017453292519943295,0.0,0.0,0.0,0.15707963267948966,0.01442728191614151,0.00048099487321451306,-0.004494639579206705,0.0004363323129985824,0.0,0.0,0.0,0.0004363323129985824,0.0,0.0,0.0,0.0004363323129985824,-0.22724422812461853,0.07358632981777191,9.834120750427246,0.0004,0.0,0.0,0.0,0.0004,0.0,0.0,0.0,0.0004
2025/05/07 10:42:04.299201722,1746607324,298046122,mti/imu_base_body,0.9516187230662183,0.3069467840908771,0.01034991129816726,-0.009917508871122653,0.017453292519943295,0.0,0.0,0.0,0.017453292519943295,0.0,0.0,0.0,0.15707963267948966,0.01382718700915575,-0.005675188265740871,0.0034736201632767916,0.0004363323129985824,0.0,0.0,0.0,0.0004363323129985824,0.0,0.0,0.0,0.0004363323129985824,-0.2332017719745636,0.07507942616939545,9.795366287231445,0.0004,0.0,0.0,0.0,0.0004,0.0,0.0,0.0,0.0004
2025/05/07 10:42:04.349100436,1746607324,347933154,mti/imu_base_body,0.9516201425929656,0.30694391463273357,0.010315881577465392,-0.009905557458148995,0.017453292519943295,0.0,0.0,0.0,0.017453292519943295,0.0,0.0,0.0,0.15707963267948966,0.007240670267492533,-0.006878652609884739,-0.0033433232456445694,0.0004363323129985824,0.0,0.0,0.0,0.0004363323129985824,0.0,0.0,0.0,0.0004363323129985824,-0.24897214770317078,0.07962644100189209,9.788420677185059,0.0004,0.0,0.0,0.0,0.0004,0.0,0.0,0.0,0.0004
2025/05/07 10:42:04.398317366,1746607324,398001134,mti/imu_base_body,0.9516036805183942,0.30699686810814575,0.010278157941109962,-0.009885224578795941,0.017453292519943295,0.0,0.0,0.0,0.017453292519943295,0.0,0.0,0.0,0.15707963267948966,0.012001377530395985,-0.0019593099132180214,-0.002202302450314164,0.0004363323129985824,0.0,0.0,0.0,0.0004363323129985824,0.0,0.0,0.0,0.0004363323129985824,-0.24143396317958832,0.08628062903881073,9.811089515686035,0.0004,0.0,0.0,0.0,0.0004,0.0,0.0,0.0,0.0004
2025/05/07 10:42:04.448905294,1746607324,448569428,mti/imu_base_body,0.9513645975904279,0.3077901864703743,0.009212586020416427,-0.009259148068349675,0.017453292519943295,0.0,0.0,0.0,0.017453292519943295,0.0,0.0,0.0,0.15707963267948966,0.009001036174595356,-0.002721593016758561,-0.002649943344295025,0.0004363323129985824,0.0,0.0,0.0,0.0004363323129985824,0.0,0.0,0.0,0.0004363323129985824,-0.22765082120895386,0.06779038161039352,9.779032707214355,0.0004,0.0,0.0,0.0,0.0004,0.0,0.0,0.0,0.0004
2025/05/07 10:42:04.498379166,1746607324,498068623,mti/imu_base_body,0.951347995837464,0.3078428806591789,0.009204208521818486,-0.009221398428986213,0.017453292519943295,0.0,0.0,0.0,0.017453292519943295,0.0,0.0,0.0,0.15707963267948966,0.007441703230142593,-0.003700185799971223,-0.006507723592221737,0.0004363323129985824,0.0,0.0,0.0,0.0004363323129985824,0.0,0.0,0.0,0.0004363323129985824,-0.23267315328121185,0.07326599955558777,9.788517951965332,0.0004,0.0,0.0,0.0,0.0004,0.0,0.0,0.0,0.0004
2025/05/07 10:42:04.548066523,1746607324,547792026,mti/imu_base_body,0.9513343539473196,0.3078865260575616,0.009160581834353965,-0.009215086125405853,0.017453292519943295,0.0,0.0,0.0,0.017453292519943295,0.0,0.0,0.0,0.15707963267948966,0.010880200192332268,-0.00709075341001153,-0.006491044070571661,0.0004363323129985824,0.0,0.0,0.0,0.0004363323129985824,0.0,0.0,0.0,0.0004363323129985824,-0.237409308552742,0.0899847149848938,9.77075481414795,0.0004,0.0,0.0,0.0,0.0004,0.0,0.0,0.0,0.0004
2025/05/07 10:42:04.598251592,1746607324,597898077,mti/imu_base_body,0.9513286343786103,0.3079078138399624,0.009101055850892626,-0.009153052497510543,0.017453292519943295,0.0,0.0,0.0,0.017453292519943295,0.0,0.0,0.0,0.15707963267948966,0.0007724955794401467,-0.006223906762897968,0.003686535404995084,0.0004363323129985824,0.0,0.0,0.0,0.0004363323129985824,0.0,0.0,0.0,0.0004363323129985824,-0.23263338208198547,0.06875072419643402,9.770641326904297,0.0004,0.0,0.0,0.0,0.0004,0.0,0.0,0.0,0.0004
2025/05/07 10:42:04.648496879,1746607324,648173734,mti/imu_base_body,0.9513235879309697,0.30792365838570845,0.009098333713604065,-0.009147238716883672,0.017453292519943295,0.0,0.0,0.0,0.017453292519943295,0.0,0.0,0.0,0.15707963267948966,0.009970384649932384,-0.0017414850881323218,0.000955321011133492,0.0004363323129985824,0.0,0.0,0.0,0.0004363323129985824,0.0,0.0,0.0,0.0004363323129985824,-0.24703091382980347,0.07876318693161011,9.794172286987305,0.0004,0.0,0.0,0.0,0.0004,0.0,0.0,0.0,0.0004
2025/05/07 10:42:04.698168597,1746607324,697880152,mti/imu_base_body,0.9513110670878137,0.30796487662677474,0.009023159363380589,-0.009136246253468403,0.017453292519943295,0.0,0.0,0.0,0.017453292519943295,0.0,0.0,0.0,0.15707963267948966,0.012046126648783684,-0.009454379789531231,-0.00585692934691906,0.0004363323129985824,0.0,0.0,0.0,0.0004363323129985824,0.0,0.0,0.0,0.0004363323129985824,-0.2334001064300537,0.08025282621383667,9.775565147399902,0.0004,0.0,0.0,0.0,0.0004,0.0,0.0,0.0,0.0004
2025/05/07 10:42:04.749462162,1746607324,749228584,mti/imu_base_body,0.951303232996108,0.30798968179531516,0.008989989670600952,-0.00914849083157541,0.017453292519943295,0.0,0.0,0.0,0.017453292519943295,0.0,0.0,0.0,0.15707963267948966,0.012138519436120987,-0.003607365535572171,0.0007931619766168296,0.0004363323129985824,0.0,0.0,0.0,0.0004363323129985824,0.0,0.0,0.0,0.0004363323129985824,-0.23310500383377075,0.06418424844741821,9.778312683105469,0.0004,0.0,0.0,0.0,0.0004,0.0,0.0,0.0,0.0004
2025/05/07 10:42:04.799422016,1746607324,799117888,mti/imu_base_body,0.9513078070188234,0.30797749086694814,0.00894456232035193,-0.009127772413526825,0.017453292519943295,0.0,0.0,0.0,0.017453292519943295,0.0,0.0,0.0,0.15707963267948966,0.007909209467470646,-0.005361136049032211,0.0081305718049407,0.0004363323129985824,0.0,0.0,0.0,0.0004363323129985824,0.0,0.0,0.0,0.0004363323129985824,-0.23521357774734497,0.0656500831246376,9.777116775512695,0.0004,0.0,0.0,0.0,0.0004,0.0,0.0,0.0,0.0004
2025/05/07 10:42:04.848213801,1746607324,847968472,mti/imu_base_body,0.9509764225932842,0.3090340400673606,0.00826310916569849,-0.008574775696199848,0.017453292519943295,0.0,0.0,0.0,0.017453292519943295,0.0,0.0,0.0,0.15707963267948966,0.008380254730582237,0.004839339293539524,-0.0081380819901824,0.0004363323129985824,0.0,0.0,0.0,0.0004363323129985824,0.0,0.0,0.0,0.0004363323129985824,-0.23265241086483002,0.06863751262426376,9.773988723754883,0.0004,0.0,0.0,0.0,0.0004,0.0,0.0,0.0,0.0004
2025/05/07 10:42:04.900977347,1746607324,900165804,mti/imu_base_body,0.9509596840306758,0.3090860394640764,0.00825408148216994,-0.008565611220125426,0.017453292519943295,0.0,0.0,0.0,0.017453292519943295,0.0,0.0,0.0,0.15707963267948966,0.014182085171341896,0.0018342180410400033,-0.003433923702687025,0.0004363323129985824,0.0,0.0,0.0,0.0004363323129985824,0.0,0.0,0.0,0.0004363323129985824,-0.23388352990150452,0.06863746047019958,9.807965278625488,0.0004,0.0,0.0,0.0,0.0004,0.0,0.0,0.0,0.0004
2025/05/07 10:42:04.948332751,1746607324,948065056,mti/imu_base_body,0.9509627465391977,0.309076066345638,0.008284284067890125,-0.008556316053942534,0.017453292519943295,0.0,0.0,0.0,0.017453292519943295,0.0,0.0,0.0,0.15707963267948966,0.003975357860326767,0.0059044198133051395,0.005212557036429644,0.0004363323129985824,0.0,0.0,0.0,0.0004363323129985824,0.0,0.0,0.0,0.0004363323129985824,-0.22801193594932556,0.07843344658613205,9.78298568725586,0.0004,0.0,0.0,0.0,0.0004,0.0,0.0,0.0,0.0004
2025/05/07 10:42:05.37878229,1746607324,998109190,mti/imu_base_body,0.9509487213156461,0.3091194418757378,0.008296797334341759,-0.008535996518436275,0.017453292519943295,0.0,0.0,0.0,0.017453292519943295,0.0,0.0,0.0,0.15707963267948966,0.0026783435605466366,0.006200951058417559,-6.108493835199624e-05,0.0004363323129985824,0.0,0.0,0.0,0.0004363323129985824,0.0,0.0,0.0,0.0004363323129985824,-0.2428044080734253,0.07376214861869812,9.761513710021973,0.0004,0.0,0.0,0.0,0.0004,0.0,0.0,0.0,0.0004
2025/05/07 10:42:05.56594553,1746607325,48350761,mti/imu_base_body,0.9509467412875843,0.3091256647523264,0.00828300903119801,-0.008544611597119136,0.017453292519943295,0.0,0.0,0.0,0.017453292519943295,0.0,0.0,0.0,0.15707963267948966,0.010145839303731918,-0.001957214903086424,0.0007603199337609112,0.0004363323129985824,0.0,0.0,0.0,0.0004363323129985824,0.0,0.0,0.0,0.0004363323129985824,-0.23000727593898773,0.08850732445716858,9.763787269592285,0.0004,0.0,0.0,0.0,0.0004,0.0,0.0,0.0,0.0004
2025/05/07 10:42:05.103669123,1746607325,102630094,mti/imu_base_body,0.9509338352409584,0.3091662717913855,0.008277002512191631,-0.008517547179209953,0.017453292519943295,0.0,0.0,0.0,0.017453292519943295,0.0,0.0,0.0,0.15707963267948966,0.011042469181120396,0.0006866890471428633,-0.00659011909738183,0.0004363323129985824,0.0,0.0,0.0,0.0004363323129985824,0.0,0.0,0.0,0.0004363323129985824,-0.2279878407716751,0.0881505087018013,9.808433532714844,0.0004,0.0,0.0,0.0,0.0004,0.0,0.0,0.0,0.0004
2025/05/07 10:42:05.148429776,1746607325,148098633,mti/imu_base_body,0.9509306323208621,0.3091755991211157,0.00830691153410225,-0.008507446309503541,0.017453292519943295,0.0,0.0,0.0,0.017453292519943295,0.0,0.0,0.0,0.15707963267948966,0.0012773548951372504,0.009181022644042969,0.0051385462284088135,0.0004363323129985824,0.0,0.0,0.0,0.0004363323129985824,0.0,0.0,0.0,0.0004363323129985824,-0.24384570121765137,0.08383724093437195,9.800039291381836,0.0004,0.0,0.0,0.0,0.0004,0.0,0.0,0.0,0.0004
2025/05/07 10:42:05.199634624,1746607325,199278409,mti/imu_base_body,0.9509248074039343,0.30919420725955354,0.008325570180774927,-0.008463908204360736,0.017453292519943295,0.0,0.0,0.0,0.017453292519943295,0.0,0.0,0.0,0.15707963267948966,0.0025414028204977512,0.008548418991267681,-0.0010296397376805544,0.0004363323129985824,0.0,0.0,0.0,0.0004363323129985824,0.0,0.0,0.0,0.0004363323129985824,-0.23442614078521729,0.08853254467248917,9.757065773010254,0.0004,0.0,0.0,0.0,0.0004,0.0,0.0,0.0,0.0004
2025/05/07 10:42:05.248726378,1746607325,247934491,mti/imu_base_body,0.9506256397938594,0.31010106280471417,0.008785986567937205,-0.008427944822445464,0.017453292519943295,0.0,0.0,0.0,0.017453292519943295,0.0,0.0,0.0,0.15707963267948966,0.012504734098911285,0.009716254658997059,-0.0004122335813008249,0.0004363323129985824,0.0,0.0,0.0,0.0004363323129985824,0.0,0.0,0.0,0.0004363323129985824,-0.22290369868278503,0.058783840388059616,9.817298889160156,0.0004,0.0,0.0,0.0,0.0004,0.0,0.0,0.0,0.0004
2025/05/07 10:42:05.299025655,1746607325,298416460,mti/imu_base_body,0.9506206052068368,0.3101165481445526,0.008810424239493315,-0.008400473070896447,0.017453292519943295,0.0,0.0,0.0,0.017453292519943295,0.0,0.0,0.0,0.15707963267948966,0.00012328580487519503,0.00477256765589118,0.003013623645529151,0.0004363323129985824,0.0,0.0,0.0,0.0004363323129985824,0.0,0.0,0.0,0.0004363323129985824,-0.2352421134710312,0.06951029598712921,9.805315017700195,0.0004,0.0,0.0,0.0,0.0004,0.0,0.0,0.0,0.0004
2025/05/07 10:42:05.349958165,1746607325,348803108,mti/imu_base_body,0.950597817711092,0.3101871060610194,0.008788582117600861,-0.00839696497321528,0.017453292519943295,0.0,0.0,0.0,0.017453292519943295,0.0,0.0,0.0,0.15707963267948966,0.016685519367456436,0.0011524612782523036,-0.008312318474054337,0.0004363323129985824,0.0,0.0,0.0,0.0004363323129985824,0.0,0.0,0.0,0.0004363323129985824,-0.24605274200439453,0.0686841607093811,9.756479263305664,0.0004,0.0,0.0,0.0,0.0004,0.0,0.0,0.0,0.0004
2025/05/07 10:42:05.398320479,1746607325,397920765,mti/imu_base_body,0.9505918945911835,0.3102052314842851,0.00877779394863453,-0.008409199172365824,0.017453292519943295,0.0,0.0,0.0,0.017453292519943295,0.0,0.0,0.0,0.15707963267948966,0.011086836457252502,0.004330103285610676,-0.0013137630885466933,0.0004363323129985824,0.0,0.0,0.0,0.0004363323129985824,0.0,0.0,0.0,0.0004363323129985824,-0.23899658024311066,0.07331392914056778,9.795125007629395,0.0004,0.0,0.0,0.0,0.0004,0.0,0.0,0.0,0.0004
2025/05/07 10:42:05.449583245,1746607325,448277952,mti/imu_base_body,0.950579098517941,0.3102430564419993,0.008816729513105583,-0.008419541022981576,0.017453292519943295,0.0,0.0,0.0,0.017453292519943295,0.0,0.0,0.0,0.15707963267948966,0.012523315846920013,0.010102997533977032,-0.0037956354208290577,0.0004363323129985824,0.0,0.0,0.0,0.0004363323129985824,0.0,0.0,0.0,0.0004363323129985824,-0.23089522123336792,0.06625203788280487,9.817913055419922,0.0004,0.0,0.0,0.0,0.0004,0.0,0.0,0.0,0.0004
2025/05/07 10:42:05.498716261,1746607325,498075193,mti/imu_base_body,0.9505672079964064,0.31027710109009343,0.008860878763109318,-0.008460995720952276,0.017453292519943295,0.0,0.0,0.0,0.017453292519943295,0.0,0.0,0.0,0.15707963267948966,0.010408924892544746,0.016612159088253975,-0.0038063961546868086,0.0004363323129985824,0.0,0.0,0.0,0.0004363323129985824,0.0,0.0,0.0,0.0004363323129985824,-0.2288333773612976,0.0643727108836174,9.800971031188965,0.0004,0.0,0.0,0.0,0.0004,0.0,0.0,0.0,0.0004
2025/05/07 10:42:05.558358103,1746607325,547854701,mti/imu_base_body,0.9505558745422042,0.31031181562751287,0.008884419495884406,-0.008436441517768121,0.017453292519943295,0.0,0.0,0.0,0.017453292519943295,0.0,0.0,0.0,0.15707963267948966,0.004164873622357845,0.004195794928818941,-0.0001899594208225608,0.0004363323129985824,0.0,0.0,0.0,0.0004363323129985824,0.0,0.0,0.0,0.0004363323129985824,-0.24215397238731384,0.07374349981546402,9.795841217041016,0.0004,0.0,0.0,0.0,0.0004,0.0,0.0,0.0,0.0004
2025/05/07 10:42:05.598617563,1746607325,598219139,mti/imu_base_body,0.9505455754049517,0.3103427924485893,0.00891951512125772,-0.00842036241989553,0.017453292519943295,0.0,0.0,0.0,0.017453292519943295,0.0,0.0,0.0,0.15707963267948966,0.005832185503095388,0.00898734387010336,0.0011544909793883562,0.0004363323129985824,0.0,0.0,0.0,0.0004363323129985824,0.0,0.0,0.0,0.0004363323129985824,-0.23890426754951477,0.06302441656589508,9.799429893493652,0.0004,0.0,0.0,0.0,0.0004,0.0,0.0,0.0,0.0004
2025/05/07 10:42:05.649240973,1746607325,648799690,mti/imu_base_body,0.950162275148799,0.3114861451638546,0.009802957323974886,-0.00848140806257594,0.017453292519943295,0.0,0.0,0.0,0.017453292519943295,0.0,0.0,0.0,0.15707963267948966,0.006855423096567392,0.008489330299198627,-0.0023107416927814484,0.0004363323129985824,0.0,0.0,0.0,0.0004363323129985824,0.0,0.0,0.0,0.0004363323129985824,-0.2393856644630432,0.08318784832954407,9.830765724182129,0.0004,0.0,0.0,0.0,0.0004,0.0,0.0,0.0,0.0004
2025/05/07 10:42:05.699468745,1746607325,698177410,mti/imu_base_body,0.9501498308437573,0.3115231445723452,0.009836000127518882,-0.008478351539563625,0.017453292519943295,0.0,0.0,0.0,0.017453292519943295,0.0,0.0,0.0,0.15707963267948966,0.007974586449563503,0.011404739692807198,-0.0016200001118704677,0.0004363323129985824,0.0,0.0,0.0,0.0004363323129985824,0.0,0.0,0.0,0.0004363323129985824,-0.23557287454605103,0.06646909564733505,9.818032264709473,0.0004,0.0,0.0,0.0,0.0004,0.0,0.0,0.0,0.0004
2025/05/07 10:42:05.749256820,1746607325,748105570,mti/imu_base_body,0.9501341331850315,0.3115707875153828,0.009843468327109618,-0.00847817522029707,0.017453292519943295,0.0,0.0,0.0,0.017453292519943295,0.0,0.0,0.0,0.15707963267948966,0.00990702211856842,0.005252808798104525,-0.007861441932618618,0.0004363323129985824,0.0,0.0,0.0,0.0004363323129985824,0.0,0.0,0.0,0.0004363323129985824,-0.23920246958732605,0.07978504151105881,9.812284469604492,0.0004,0.0,0.0,0.0,0.0004,0.0,0.0,0.0,0.0004
2025/05/07 10:42:05.799329364,1746607325,798133775,mti/imu_base_body,0.9501222495341037,0.3116040474418538,0.009923123822209692,-0.008494714339999144,0.017453292519943295,0.0,0.0,0.0,0.017453292519943295,0.0,0.0,0.0,0.15707963267948966,0.0037302523851394653,0.020693926140666008,-0.002370810601860285,0.0004363323129985824,0.0,0.0,0.0,0.0004363323129985824,0.0,0.0,0.0,0.0004363323129985824,-0.25002580881118774,0.07534272223711014,9.807351112365723,0.0004,0.0,0.0,0.0,0.0004,0.0,0.0,0.0,0.0004
2025/05/07 10:42:05.849781600,1746607325,848622147,mti/imu_base_body,0.9501151683353453,0.3116246651134525,0.0099535271353543,-0.008494838997461602,0.017453292519943295,0.0,0.0,0.0,0.017453292519943295,0.0,0.0,0.0,0.15707963267948966,0.012768818996846676,0.009021158330142498,0.0005476268706843257,0.0004363323129985824,0.0,0.0,0.0,0.0004363323129985824,0.0,0.0,0.0,0.0004363323129985824,-0.23845474421977997,0.06484004855155945,9.811440467834473,0.0004,0.0,0.0,0.0,0.0004,0.0,0.0,0.0,0.0004
2025/05/07 10:42:05.899776951,1746607325,898271153,mti/imu_base_body,0.9501004957147587,0.3116698562766029,0.009941504802151219,-0.00849206767283218,0.017453292519943295,0.0,0.0,0.0,0.017453292519943295,0.0,0.0,0.0,0.15707963267948966,0.008321133442223072,0.0003873248351737857,-0.005394637119024992,0.0004363323129985824,0.0,0.0,0.0,0.0004363323129985824,0.0,0.0,0.0,0.0004363323129985824,-0.23666206002235413,0.06790335476398468,9.828373908996582,0.0004,0.0,0.0,0.0,0.0004,0.0,0.0,0.0,0.0004
2025/05/07 10:42:05.948418525,1746607325,948060574,mti/imu_base_body,0.9500966822975605,0.31168069925025366,0.009960028693254316,-0.008499048797993429,0.017453292519943295,0.0,0.0,0.0,0.017453292519943295,0.0,0.0,0.0,0.15707963267948966,0.010726378299295902,0.0070579517632722855,-0.0009036208502948284,0.0004363323129985824,0.0,0.0,0.0,0.0004363323129985824,0.0,0.0,0.0,0.0004363323129985824,-0.23448416590690613,0.07207652181386948,9.80662727355957,0.0004,0.0,0.0,0.0,0.0004,0.0,0.0,0.0,0.0004
2025/05/07 10:42:05.999742833,1746607325,998405440,mti/imu_base_body,0.9500866875207277,0.31170947857314557,0.009978646376463372,-0.008538956613211409,0.017453292519943295,0.0,0.0,0.0,0.017453292519943295,0.0,0.0,0.0,0.15707963267948966,0.01694648712873459,0.01322679128497839,0.0037286216393113136,0.0004363323129985824,0.0,0.0,0.0,0.0004363323129985824,0.0,0.0,0.0,0.0004363323129985824,-0.23816372454166412,0.07709907740354538,9.814188957214355,0.0004,0.0,0.0,0.0,0.0004,0.0,0.0,0.0,0.0004
2025/05/07 10:42:06.50696735,1746607326,49942218,mti/imu_base_body,0.9498317367577207,0.31244278520497487,0.010912931996729162,-0.008949063437273214,0.017453292519943295,0.0,0.0,0.0,0.017453292519943295,0.0,0.0,0.0,0.15707963267948966,0.014752539806067944,0.005016674753278494,-0.005759090185165405,0.0004363323129985824,0.0,0.0,0.0,0.0004363323129985824,0.0,0.0,0.0,0.0004363323129985824,-0.22957497835159302,0.055401742458343506,9.81551742553711,0.0004,0.0,0.0,0.0,0.0004,0.0,0.0,0.0,0.0004
2025/05/07 10:42:06.108422556,1746607326,107687147,mti/imu_base_body,0.949817539058541,0.3124851739288172,0.010923442280367537,-0.008963089880232412,0.017453292519943295,0.0,0.0,0.0,0.017453292519943295,0.0,0.0,0.0,0.15707963267948966,0.018909331411123276,0.01015226636081934,-0.002431254368275404,0.0004363323129985824,0.0,0.0,0.0,0.0004363323129985824,0.0,0.0,0.0,0.0004363323129985824,-0.23672455549240112,0.06841976940631866,9.832921981811523,0.0004,0.0,0.0,0.0,0.0004,0.0,0.0,0.0,0.0004
2025/05/07 10:42:06.151912040,1746607326,151601882,mti/imu_base_body,0.9497997568253925,0.3125371859743399,0.010944731533006777,-0.0090078948337846,0.017453292519943295,0.0,0.0,0.0,0.017453292519943295,0.0,0.0,0.0,0.15707963267948966,0.007935265079140663,0.007148444186896086,-0.00784208346158266,0.0004363323129985824,0.0,0.0,0.0,0.0004363323129985824,0.0,0.0,0.0,0.0004363323129985824,-0.23041172325611115,0.06855710595846176,9.819348335266113,0.0004,0.0,0.0,0.0,0.0004,0.0,0.0,0.0,0.0004
2025/05/07 10:42:06.199631926,1746607326,198739205,mti/imu_base_body,0.9497968962310481,0.31254488405883746,0.01097321946486697,-0.009007764045045448,0.017453292519943295,0.0,0.0,0.0,0.017453292519943295,0.0,0.0,0.0,0.15707963267948966,0.009175410494208336,0.009903705678880215,0.008391955867409706,0.0004363323129985824,0.0,0.0,0.0,0.0004363323129985824,0.0,0.0,0.0,0.0004363323129985824,-0.2388407289981842,0.0568770170211792,9.853687286376953,0.0004,0.0,0.0,0.0,0.0004,0.0,0.0,0.0,0.0004
2025/05/07 10:42:06.248274837,1746607326,247967009,mti/imu_base_body,0.9497980357087656,0.3125402235367494,0.010990161374991893,-0.009028642662153329,0.017453292519943295,0.0,0.0,0.0,0.017453292519943295,0.0,0.0,0.0,0.15707963267948966,0.015005871653556824,0.00738530233502388,0.002069123787805438,0.0004363323129985824,0.0,0.0,0.0,0.0004363323129985824,0.0,0.0,0.0,0.0004363323129985824,-0.24781110882759094,0.08691127598285675,9.829696655273438,0.0004,0.0,0.0,0.0,0.0004,0.0,0.0,0.0,0.0004
2025/05/07 10:42:06.304774692,1746607326,302863636,mti/imu_base_body,0.9497812038753447,0.31258951946388136,0.011016847677227317,-0.00906014093142128,0.017453292519943295,0.0,0.0,0.0,0.017453292519943295,0.0,0.0,0.0,0.15707963267948966,0.015864651650190353,0.011169497855007648,-0.003142036497592926,0.0004363323129985824,0.0,0.0,0.0,0.0004363323129985824,0.0,0.0,0.0,0.0004363323129985824,-0.23665814101696014,0.07836626470088959,9.830513954162598,0.0004,0.0,0.0,0.0,0.0004,0.0,0.0,0.0,0.0004
2025/05/07 10:42:06.351834853,1746607326,348183550,mti/imu_base_body,0.949774720253904,0.312607434868962,0.011010907646341371,-0.009128655107386,0.017453292519943295,0.0,0.0,0.0,0.017453292519943295,0.0,0.0,0.0,0.15707963267948966,0.017316598445177078,0.005356010515242815,0.000963947328273207,0.0004363323129985824,0.0,0.0,0.0,0.0004363323129985824,0.0,0.0,0.0,0.0004363323129985824,-0.22916388511657715,0.07774963974952698,9.823553085327148,0.0004,0.0,0.0,0.0,0.0004,0.0,0.0,0.0,0.0004
2025/05/07 10:42:06.400324610,1746607326,398911388,mti/imu_base_body,0.9497725242220918,0.3126131331354804,0.011023156268839101,-0.009147199018660937,0.017453292519943295,0.0,0.0,0.0,0.017453292519943295,0.0,0.0,0.0,0.15707963267948966,0.019724663347005844,0.006967368070036173,0.0025125620886683464,0.0004363323129985824,0.0,0.0,0.0,0.0004363323129985824,0.0,0.0,0.0,0.0004363323129985824,-0.23783916234970093,0.06663713604211807,9.841923713684082,0.0004,0.0,0.0,0.0,0.0004,0.0,0.0,0.0,0.0004
2025/05/07 10:42:06.450569231,1746607326,447982540,mti/imu_base_body,0.9495252269557665,0.31333601647019715,0.011378873206212194,-0.00963874482209177,0.017453292519943295,0.0,0.0,0.0,0.017453292519943295,0.0,0.0,0.0,0.15707963267948966,0.015135743655264378,0.007989179342985153,0.00442501762881875,0.0004363323129985824,0.0,0.0,0.0,0.0004363323129985824,0.0,0.0,0.0,0.0004363323129985824,-0.32603955268859863,0.06420198082923889,9.799551010131836,0.0004,0.0,0.0,0.0,0.0004,0.0,0.0,0.0,0.0004
2025/05/07 10:42:06.512231430,1746607326,498842221,mti/imu_base_body,0.9495219973523521,0.3133456553668394,0.011374256477513663,-0.009648994575046817,0.017453292519943295,0.0,0.0,0.0,0.017453292519943295,0.0,0.0,0.0,0.15707963267948966,0.01543844398111105,0.007309154607355595,-0.002776853274554014,0.0004363323129985824,0.0,0.0,0.0,0.0004363323129985824,0.0,0.0,0.0,0.0004363323129985824,-0.2285926192998886,0.07550472766160965,9.81037712097168,0.0004,0.0,0.0,0.0,0.0004,0.0,0.0,0.0,0.0004
2025/05/07 10:42:06.549074167,1746607326,548005616,mti/imu_base_body,0.9495194994977916,0.3133511430643136,0.011402609090322743,-0.009683063548510562,0.017453292519943295,0.0,0.0,0.0,0.017453292519943295,0.0,0.0,0.0,0.15707963267948966,0.01008686050772667,0.006559646222740412,0.010932980105280876,0.0004363323129985824,0.0,0.0,0.0,0.0004363323129985824,0.0,0.0,0.0,0.0004363323129985824,-0.25174516439437866,0.08976297080516815,9.841968536376953,0.0004,0.0,0.0,0.0,0.0004,0.0,0.0,0.0,0.0004
2025/05/07 10:42:06.598423849,1746607326,597994730,mti/imu_base_body,0.9495133768608918,0.31337056017879805,0.01136179350427347,-0.00970303168183219,0.017453292519943295,0.0,0.0,0.0,0.017453292519943295,0.0,0.0,0.0,0.15707963267948966,0.01618006080389023,-0.00597138237208128,-0.003481138264760375,0.0004363323129985824,0.0,0.0,0.0,0.0004363323129985824,0.0,0.0,0.0,0.0004363323129985824,-0.19685141742229462,0.08849063515663147,9.88020133972168,0.0004,0.0,0.0,0.0,0.0004,0.0,0.0,0.0,0.0004
2025/05/07 10:42:06.649410009,1746607326,648381532,mti/imu_base_body,0.9495186964330542,0.31335362573987774,0.011382239922774044,-0.009705409526986255,0.017453292519943295,0.0,0.0,0.0,0.017453292519943295,0.0,0.0,0.0,0.15707963267948966,0.014679170213639736,0.015872307121753693,0.007271515671163797,0.0004363323129985824,0.0,0.0,0.0,0.0004363323129985824,0.0,0.0,0.0,0.0004363323129985824,-0.27235379815101624,0.07078852504491806,9.839699745178223,0.0004,0.0,0.0,0.0,0.0004,0.0,0.0,0.0,0.0004
2025/05/07 10:42:06.699441692,1746607326,698118040,mti/imu_base_body,0.949515442678788,0.3133623321652541,0.011367205412367631,-0.009760099157862748,0.017453292519943295,0.0,0.0,0.0,0.017453292519943295,0.0,0.0,0.0,0.15707963267948966,0.020635738968849182,-0.006395725067704916,0.0037256909999996424,0.0004363323129985824,0.0,0.0,0.0,0.0004363323129985824,0.0,0.0,0.0,0.0004363323129985824,-0.24625779688358307,0.06875410676002502,9.739693641662598,0.0004,0.0,0.0,0.0,0.0004,0.0,0.0,0.0,0.0004
2025/05/07 10:42:06.752659291,1746607326,748052450,mti/imu_base_body,0.9495068014978545,0.31338770924186155,0.011369499742042892,-0.009783255136605275,0.017453292519943295,0.0,0.0,0.0,0.017453292519943295,0.0,0.0,0.0,0.15707963267948966,0.01026693731546402,0.0118881119415164,-0.001676224172115326,0.0004363323129985824,0.0,0.0,0.0,0.0004363323129985824,0.0,0.0,0.0,0.0004363323129985824,-0.20681151747703552,0.054807886481285095,9.952338218688965,0.0004,0.0,0.0,0.0,0.0004,0.0,0.0,0.0,0.0004
2025/05/07 10:42:06.800670365,1746607326,799959706,mti/imu_base_body,0.9494999000511906,0.31340777103138984,0.011375160129801285,-0.00980380497237295,0.017453292519943295,0.0,0.0,0.0,0.017453292519943295,0.0,0.0,0.0,0.15707963267948966,0.010497929528355598,0.005050611682236195,0.00034942987258546054,0.0004363323129985824,0.0,0.0,0.0,0.0004363323129985824,0.0,0.0,0.0,0.0004363323129985824,-0.24531301856040955,0.05508611723780632,9.700081825256348,0.0004,0.0,0.0,0.0,0.0004,0.0,0.0,0.0,0.0004
2025/05/07 10:42:06.848774800,1746607326,848002167,mti/imu_base_body,0.9492757481067935,0.3140768045920825,0.011188066221999445,-0.010302526278845635,0.017453292519943295,0.0,0.0,0.0,0.017453292519943295,0.0,0.0,0.0,0.15707963267948966,0.01219219621270895,-0.002176782814785838,-0.006259090267121792,0.0004363323129985824,0.0,0.0,0.0,0.0004363323129985824,0.0,0.0,0.0,0.0004363323129985824,-0.22404177486896515,0.08610698580741882,9.920321464538574,0.0004,0.0,0.0,0.0,0.0004,0.0,0.0,0.0,0.0004
2025/05/07 10:42:06.907349565,1746607326,906942682,mti/imu_base_body,0.9492645439914318,0.314112321812333,0.011156861560073231,-0.010285876070310947,0.017453292519943295,0.0,0.0,0.0,0.017453292519943295,0.0,0.0,0.0,0.15707963267948966,0.00998823344707489,-0.00152769114356488,-0.004384816624224186,0.0004363323129985824,0.0,0.0,0.0,0.0004363323129985824,0.0,0.0,0.0,0.0004363323129985824,-0.23107901215553284,0.07290086150169373,9.820700645446777,0.0004,0.0,0.0,0.0,0.0004,0.0,0.0,0.0,0.0004
2025/05/07 10:42:06.980413212,1746607326,954927976,mti/imu_base_body,0.9492467523295748,0.31416595457818686,0.011134017370490593,-0.010314544726980554,0.017453292519943295,0.0,0.0,0.0,0.017453292519943295,0.0,0.0,0.0,0.15707963267948966,0.015459572896361351,0.00308376201428473,0.0015222873771563172,0.0004363323129985824,0.0,0.0,0.0,0.0004363323129985824,0.0,0.0,0.0,0.0004363323129985824,-0.24717149138450623,0.08655085414648056,9.706086158752441,0.0004,0.0,0.0,0.0,0.0004,0.0,0.0,0.0,0.0004
2025/05/07 10:42:07.10345320,1746607326,998924714,mti/imu_base_body,0.9492481282557197,0.3141642123595602,0.011066298112609644,-0.010313860654126839,0.017453292519943295,0.0,0.0,0.0,0.017453292519943295,0.0,0.0,0.0,0.15707963267948966,0.01764918491244316,-0.013599391095340252,0.002669057808816433,0.0004363323129985824,0.0,0.0,0.0,0.0004363323129985824,0.0,0.0,0.0,0.0004363323129985824,-0.24067692458629608,0.06923853605985641,9.829850196838379,0.0004,0.0,0.0,0.0,0.0004,0.0,0.0,0.0,0.0004
2025/05/07 10:42:07.48439983,1746607327,48012519,mti/imu_base_body,0.949235642660101,0.3142026315238762,0.01100973785921216,-0.010353101922015133,0.017453292519943295,0.0,0.0,0.0,0.017453292519943295,0.0,0.0,0.0,0.15707963267948966,0.01780909113585949,0.0004732836678158492,-0.008212557062506676,0.0004363323129985824,0.0,0.0,0.0,0.0004363323129985824,0.0,0.0,0.0,0.0004363323129985824,-0.21312874555587769,0.07716844975948334,9.896427154541016,0.0004,0.0,0.0,0.0,0.0004,0.0,0.0,0.0,0.0004
2025/05/07 10:42:07.98435783,1746607327,97992386,mti/imu_base_body,0.9492225999824311,0.3142441926986756,0.010971572730349313,-0.010328002206317419,0.017453292519943295,0.0,0.0,0.0,0.017453292519943295,0.0,0.0,0.0,0.15707963267948966,0.006826354190707207,-0.008848127909004688,-0.0049933381378650665,0.0004363323129985824,0.0,0.0,0.0,0.0004363323129985824,0.0,0.0,0.0,0.0004363323129985824,-0.2311902642250061,0.05083354935050011,9.809309959411621,0.0004,0.0,0.0,0.0,0.0004,0.0,0.0,0.0,0.0004
2025/05/07 10:42:07.154861305,1746607327,151120255,mti/imu_base_body,0.9491971190435985,0.3143232243166937,0.010933042055090792,-0.010305748197572873,0.017453292519943295,0.0,0.0,0.0,0.017453292519943295,0.0,0.0,0.0,0.15707963267948966,0.007978225126862526,-0.0021253020968288183,-0.009360003285109997,0.0004363323129985824,0.0,0.0,0.0,0.0004363323129985824,0.0,0.0,0.0,0.0004363323129985824,-0.24677254259586334,0.07096982002258301,9.696856498718262,0.0004,0.0,0.0,0.0,0.0004,0.0,0.0,0.0,0.0004
2025/05/07 10:42:07.206536787,1746607327,198063963,mti/imu_base_body,0.9491926293194765,0.3143387292348866,0.010911027958894197,-0.010269625964730633,0.017453292519943295,0.0,0.0,0.0,0.017453292519943295,0.0,0.0,0.0,0.15707963267948966,0.008362283930182457,-0.004000275861471891,0.007122601382434368,0.0004363323129985824,0.0,0.0,0.0,0.0004363323129985824,0.0,0.0,0.0,0.0004363323129985824,-0.23690949380397797,0.07526517659425735,9.811955451965332,0.0004,0.0,0.0,0.0,0.0004,0.0,0.0,0.0,0.0004
2025/05/07 10:42:07.250741717,1746607327,248161095,mti/imu_base_body,0.9490283965275944,0.31487390118813774,0.00986443774382368,-0.010110479851315416,0.017453292519943295,0.0,0.0,0.0,0.017453292519943295,0.0,0.0,0.0,0.15707963267948966,0.005843548569828272,-0.001441590255126357,0.005613065790385008,0.0004363323129985824,0.0,0.0,0.0,0.0004363323129985824,0.0,0.0,0.0,0.0004363323129985824,-0.24075426161289215,0.07131829857826233,9.7620267868042,0.0004,0.0,0.0,0.0,0.0004,0.0,0.0,0.0,0.0004
2025/05/07 10:42:07.301444848,1746607327,298133995,mti/imu_base_body,0.9490187212055512,0.3149021864733725,0.009882678794996887,-0.010119901951313664,0.017453292519943295,0.0,0.0,0.0,0.017453292519943295,0.0,0.0,0.0,0.15707963267948966,0.009762809611856937,0.003459651954472065,-0.0017961617559194565,0.0004363323129985824,0.0,0.0,0.0,0.0004363323129985824,0.0,0.0,0.0,0.0004363323129985824,-0.23464010655879974,0.07043776661157608,9.7538423538208,0.0004,0.0,0.0,0.0,0.0004,0.0,0.0,0.0,0.0004
2025/05/07 10:42:07.389902041,1746607327,348148106,mti/imu_base_body,0.9489993153475809,0.3149618588353495,0.009844958976067334,-0.010119472889608386,0.017453292519943295,0.0,0.0,0.0,0.017453292519943295,0.0,0.0,0.0,0.15707963267948966,0.010676410049200058,-0.004685842897742987,-0.005654597654938698,0.0004363323129985824,0.0,0.0,0.0,0.0004363323129985824,0.0,0.0,0.0,0.0004363323129985824,-0.22459442913532257,0.05807586759328842,9.806297302246094,0.0004,0.0,0.0,0.0,0.0004,0.0,0.0,0.0,0.0004
2025/05/07 10:42:07.423748503,1746607327,398096726,mti/imu_base_body,0.9489989736732376,0.31496378386613144,0.009824950709778547,-0.010111041658544755,0.017453292519943295,0.0,0.0,0.0,0.017453292519943295,0.0,0.0,0.0,0.15707963267948966,0.005968175828456879,-0.001929739024490118,0.0061133201234042645,0.0004363323129985824,0.0,0.0,0.0,0.0004363323129985824,0.0,0.0,0.0,0.0004363323129985824,-0.22923697531223297,0.07878290116786957,9.858870506286621,0.0004,0.0,0.0,0.0,0.0004,0.0,0.0,0.0,0.0004
2025/05/07 10:42:07.449227107,1746607327,448053296,mti/imu_base_body,0.9489961281270352,0.3149738067247387,0.00978762708631047,-0.010102090538190878,0.017453292519943295,0.0,0.0,0.0,0.017453292519943295,0.0,0.0,0.0,0.15707963267948966,0.012687561102211475,7.715023821219802e-05,-0.0045739891938865185,0.0004363323129985824,0.0,0.0,0.0,0.0004363323129985824,0.0,0.0,0.0,0.0004363323129985824,-0.2190471887588501,0.06309442967176437,9.776877403259277,0.0004,0.0,0.0,0.0,0.0004,0.0,0.0,0.0,0.0004
2025/05/07 10:42:07.504495475,1746607327,498484398,mti/imu_base_body,0.9489787372697659,0.31502809657289654,0.009744674135462884,-0.010084438781205669,0.017453292519943295,0.0,0.0,0.0,0.017453292519943295,0.0,0.0,0.0,0.15707963267948966,0.011356965638697147,-0.006110039539635181,0.0028546778485178947,0.0004363323129985824,0.0,0.0,0.0,0.0004363323129985824,0.0,0.0,0.0,0.0004363323129985824,-0.2558305263519287,0.07820647954940796,9.74416446685791,0.0004,0.0,0.0,0.0,0.0004,0.0,0.0,0.0,0.0004
2025/05/07 10:42:07.555675953,1746607327,548072344,mti/imu_base_body,0.9489683778092034,0.31506124610497965,0.009712842840580863,-0.010054342589162704,0.017453292519943295,0.0,0.0,0.0,0.017453292519943295,0.0,0.0,0.0,0.15707963267948966,0.0003036075795534998,-0.004075612872838974,-0.00658436631783843,0.0004363323129985824,0.0,0.0,0.0,0.0004363323129985824,0.0,0.0,0.0,0.0004363323129985824,-0.21908234059810638,0.07866553217172623,9.822738647460938,0.0004,0.0,0.0,0.0,0.0004,0.0,0.0,0.0,0.0004
2025/05/07 10:42:07.603099024,1746607327,598228636,mti/imu_base_body,0.9489622110163807,0.3150814314157708,0.009713020569565698,-0.010003542937678805,0.017453292519943295,0.0,0.0,0.0,0.017453292519943295,0.0,0.0,0.0,0.15707963267948966,0.00311061623506248,0.00020856047922279686,-0.0017409073188900948,0.0004363323129985824,0.0,0.0,0.0,0.0004363323129985824,0.0,0.0,0.0,0.0004363323129985824,-0.22482047975063324,0.07901716977357864,9.863076210021973,0.0004,0.0,0.0,0.0,0.0004,0.0,0.0,0.0,0.0004
2025/05/07 10:42:07.652151808,1746607327,648060895,mti/imu_base_body,0.9487534757050082,0.3157446720492208,0.008965756521235393,-0.00957912418742839,0.017453292519943295,0.0,0.0,0.0,0.017453292519943295,0.0,0.0,0.0,0.15707963267948966,0.012064327485859394,0.0037938894238322973,0.007843580096960068,0.0004363323129985824,0.0,0.0,0.0,0.0004363323129985824,0.0,0.0,0.0,0.0004363323129985824,-0.2004433423280716,0.0999724343419075,9.827507019042969,0.0004,0.0,0.0,0.0,0.0004,0.0,0.0,0.0,0.0004
2025/05/07 10:42:07.724991523,1746607327,698886614,mti/imu_base_body,0.9487576825682986,0.3157334316908073,0.008946788582683553,-0.00955064680711054,0.017453292519943295,0.0,0.0,0.0,0.017453292519943295,0.0,0.0,0.0,0.15707963267948966,0.005074166692793369,-0.0023968990426510572,0.005835262127220631,0.0004363323129985824,0.0,0.0,0.0,0.0004363323129985824,0.0,0.0,0.0,0.0004363323129985824,-0.24986553192138672,0.07889590412378311,9.792637825012207,0.0004,0.0,0.0,0.0,0.0004,0.0,0.0,0.0,0.0004
2025/05/07 10:42:07.751582447,1746607327,751120671,mti/imu_base_body,0.9487531643537428,0.31574630412367327,0.008967792421334227,-0.009554227341264557,0.017453292519943295,0.0,0.0,0.0,0.017453292519943295,0.0,0.0,0.0,0.15707963267948966,0.006639300379902124,0.007212098687887192,0.0025481614284217358,0.0004363323129985824,0.0,0.0,0.0,0.0004363323129985824,0.0,0.0,0.0,0.0004363323129985824,-0.24268512427806854,0.07700937986373901,9.778935432434082,0.0004,0.0,0.0,0.0,0.0004,0.0,0.0,0.0,0.0004
2025/05/07 10:42:07.799810742,1746607327,798153570,mti/imu_base_body,0.9487363558557218,0.31579962449524385,0.008914733538210517,-0.009510613661103005,0.017453292519943295,0.0,0.0,0.0,0.017453292519943295,0.0,0.0,0.0,0.15707963267948966,0.0077702440321445465,-0.009102663956582546,-0.0026826420798897743,0.0004363323129985824,0.0,0.0,0.0,0.0004363323129985824,0.0,0.0,0.0,0.0004363323129985824,-0.23152442276477814,0.062464457005262375,9.821434020996094,0.0004,0.0,0.0,0.0,0.0004,0.0,0.0,0.0,0.0004
2025/05/07 10:42:07.851753024,1746607327,850944966,mti/imu_base_body,0.9487326295582755,0.3158119318308704,0.00887550643257175,-0.009510347536175955,0.017453292519943295,0.0,0.0,0.0,0.017453292519943295,0.0,0.0,0.0,0.15707963267948966,0.01514741126447916,-0.006754653993993998,-0.0008427031571045518,0.0004363323129985824,0.0,0.0,0.0,0.0004363323129985824,0.0,0.0,0.0,0.0004363323129985824,-0.22381113469600677,0.09260816872119904,9.812296867370605,0.0004,0.0,0.0,0.0,0.0004,0.0,0.0,0.0,0.0004
2025/05/07 10:42:07.900634868,1746607327,899370013,mti/imu_base_body,0.9487325610101603,0.31581306582603486,0.008827517981963049,-0.009524182848993049,0.017453292519943295,0.0,0.0,0.0,0.017453292519943295,0.0,0.0,0.0,0.15707963267948966,0.0100474888458848,0.0020307358354330063,0.005056306254118681,0.0004363323129985824,0.0,0.0,0.0,0.0004363323129985824,0.0,0.0,0.0,0.0004363323129985824,-0.2383500337600708,0.08603747934103012,9.772578239440918,0.0004,0.0,0.0,0.0,0.0004,0.0,0.0,0.0,0.0004
2025/05/07 10:42:07.948706604,1746607327,948308333,mti/imu_base_body,0.9487305088767995,0.31582114595931576,0.008795268479283679,-0.009490444862641079,0.017453292519943295,0.0,0.0,0.0,0.017453292519943295,0.0,0.0,0.0,0.15707963267948966,0.007517017889767885,-0.009733546525239944,9.800679981708527e-05,0.0004363323129985824,0.0,0.0,0.0,0.0004363323129985824,0.0,0.0,0.0,0.0004363323129985824,-0.241458922624588,0.08505599945783615,9.808361053466797,0.0004,0.0,0.0,0.0,0.0004,0.0,0.0,0.0,0.0004
2025/05/07 10:42:07.998644427,1746607327,998225231,mti/imu_base_body,0.948713920937535,0.31587357017448475,0.00872840239676314,-0.009465668288791185,0.017453292519943295,0.0,0.0,0.0,0.017453292519943295,0.0,0.0,0.0,0.15707963267948966,0.006540587637573481,-0.00278852554038167,-0.005861470941454172,0.0004363323129985824,0.0,0.0,0.0,0.0004363323129985824,0.0,0.0,0.0,0.0004363323129985824,-0.2267797291278839,0.06426648795604706,9.816263198852539,0.0004,0.0,0.0,0.0,0.0004,0.0,0.0,0.0,0.0004
2025/05/07 10:42:08.50922933,1746607328,48159195,mti/imu_base_body,0.9483501921556645,0.3169938993556756,0.008293006766253939,-0.008832148570575791,0.017453292519943295,0.0,0.0,0.0,0.017453292519943295,0.0,0.0,0.0,0.15707963267948966,0.008310816250741482,-0.0028780975844711065,-0.005173997022211552,0.0004363323129985824,0.0,0.0,0.0,0.0004363323129985824,0.0,0.0,0.0,0.0004363323129985824,-0.25145646929740906,0.08299054205417633,9.768035888671875,0.0004,0.0,0.0,0.0,0.0004,0.0,0.0,0.0,0.0004
2025/05/07 10:42:08.100099062,1746607328,99222004,mti/imu_base_body,0.9483376066472788,0.31703170657694474,0.008262978783183744,-0.008854604737032108,0.017453292519943295,0.0,0.0,0.0,0.017453292519943295,0.0,0.0,0.0,0.15707963267948966,0.016902340576052666,0.003941104747354984,-0.0002924353757407516,0.0004363323129985824,0.0,0.0,0.0,0.0004363323129985824,0.0,0.0,0.0,0.0004363323129985824,-0.22515268623828888,0.08306698501110077,9.82465648651123,0.0004,0.0,0.0,0.0,0.0004,0.0,0.0,0.0,0.0004
2025/05/07 10:42:08.148819828,1746607328,148222815,mti/imu_base_body,0.9483294384161889,0.31705587339823665,0.008299584365891531,-0.008829851429690817,0.017453292519943295,0.0,0.0,0.0,0.017453292519943295,0.0,0.0,0.0,0.15707963267948966,-0.004745399579405785,0.005189625080674887,-0.003273220034316182,0.0004363323129985824,0.0,0.0,0.0,0.0004363323129985824,0.0,0.0,0.0,0.0004363323129985824,-0.211557537317276,0.07283790409564972,9.818994522094727,0.0004,0.0,0.0,0.0,0.0004,0.0,0.0,0.0,0.0004
2025/05/07 10:42:08.198885819,1746607328,198237281,mti/imu_base_body,0.9483201313087819,0.3170848935830281,0.008303803813927953,-0.008783260109665016,0.017453292519943295,0.0,0.0,0.0,0.017453292519943295,0.0,0.0,0.0,0.15707963267948966,0.0047542336396873,-9.726465214043856e-05,-0.00213677273131907,0.0004363323129985824,0.0,0.0,0.0,0.0004363323129985824,0.0,0.0,0.0,0.0004363323129985824,-0.23301558196544647,0.0814025029540062,9.805460929870605,0.0004,0.0,0.0,0.0,0.0004,0.0,0.0,0.0,0.0004
2025/05/07 10:42:08.248791470,1746607328,248340269,mti/imu_base_body,0.9483118298001185,0.317110646705431,0.008304239564595597,-0.008749332115536197,0.017453292519943295,0.0,0.0,0.0,0.017453292519943295,0.0,0.0,0.0,0.15707963267948966,0.0010687889298424125,0.0035438525956124067,0.002123353537172079,0.0004363323129985824,0.0,0.0,0.0,0.0004363323129985824,0.0,0.0,0.0,0.0004363323129985824,-0.2320318967103958,0.053525518625974655,9.795248031616211,0.0004,0.0,0.0,0.0,0.0004,0.0,0.0,0.0,0.0004
2025/05/07 10:42:08.298846184,1746607328,298190792,mti/imu_base_body,0.9483105678390951,0.3171148657104835,0.008311341343669024,-0.008726423963127915,0.017453292519943295,0.0,0.0,0.0,0.017453292519943295,0.0,0.0,0.0,0.15707963267948966,0.008734309114515781,0.0048051029443740845,0.006046769674867392,0.0004363323129985824,0.0,0.0,0.0,0.0004363323129985824,0.0,0.0,0.0,0.0004363323129985824,-0.23596630990505219,0.09281034767627716,9.801264762878418,0.0004,0.0,0.0,0.0,0.0004,0.0,0.0,0.0,0.0004
2025/05/07 10:42:08.350581819,1746607328,348246230,mti/imu_base_body,0.9483127175419696,0.31710937365134206,0.008289277979322149,-0.008713366811954247,0.017453292519943295,0.0,0.0,0.0,0.017453292519943295,0.0,0.0,0.0,0.15707963267948966,0.010493378154933453,-0.003931302577257156,0.0025064051151275635,0.0004363323129985824,0.0,0.0,0.0,0.0004363323129985824,0.0,0.0,0.0,0.0004363323129985824,-0.23201154172420502,0.04638831689953804,9.827189445495605,0.0004,0.0,0.0,0.0,0.0004,0.0,0.0,0.0,0.0004
2025/05/07 10:42:08.398823249,1746607328,398221220,mti/imu_base_body,0.9483064194864048,0.3171289658459082,0.008260254059984587,-0.008713322285091694,0.017453292519943295,0.0,0.0,0.0,0.017453292519943295,0.0,0.0,0.0,0.15707963267948966,0.009056180715560913,-0.002391891786828637,0.0008233396802097559,0.0004363323129985824,0.0,0.0,0.0,0.0004363323129985824,0.0,0.0,0.0,0.0004363323129985824,-0.2547730803489685,0.07494955509901047,9.820733070373535,0.0004,0.0,0.0,0.0,0.0004,0.0,0.0,0.0,0.0004
2025/05/07 10:42:08.449106211,1746607328,448555653,mti/imu_base_body,0.9480393088658676,0.31792452052487885,0.008520673962375987,-0.008536170650865843,0.017453292519943295,0.0,0.0,0.0,0.017453292519943295,0.0,0.0,0.0,0.15707963267948966,0.009815140627324581,0.01046707108616829,0.003994455095380545,0.0004363323129985824,0.0,0.0,0.0,0.0004363323129985824,0.0,0.0,0.0,0.0004363323129985824,-0.23564402759075165,0.09049070626497269,9.797629356384277,0.0004,0.0,0.0,0.0,0.0004,0.0,0.0,0.0,0.0004
2025/05/07 10:42:08.498483231,1746607328,498063038,mti/imu_base_body,0.9480305662648957,0.3179515318239211,0.00851242271916867,-0.008509259529083739,0.017453292519943295,0.0,0.0,0.0,0.017453292519943295,0.0,0.0,0.0,0.15707963267948966,0.0033263512887060642,0.001501312362961471,-0.0008058302919380367,0.0004363323129985824,0.0,0.0,0.0,0.0004363323129985824,0.0,0.0,0.0,0.0004363323129985824,-0.2516699433326721,0.09869679063558578,9.743288040161133,0.0004,0.0,0.0,0.0,0.0004,0.0,0.0,0.0,0.0004
2025/05/07 10:42:08.548202618,1746607328,547855643,mti/imu_base_body,0.9480300275486797,0.3179531262979958,0.008543311867423768,-0.00847868891493884,0.017453292519943295,0.0,0.0,0.0,0.017453292519943295,0.0,0.0,0.0,0.15707963267948966,-0.00015641383652109653,0.0075773876160383224,0.002973423106595874,0.0004363323129985824,0.0,0.0,0.0,0.0004363323129985824,0.0,0.0,0.0,0.0004363323129985824,-0.23569083213806152,0.09000450372695923,9.850449562072754,0.0004,0.0,0.0,0.0,0.0004,0.0,0.0,0.0,0.0004
2025/05/07 10:42:08.599665561,1746607328,598122852,mti/imu_base_body,0.9480105027233837,0.31801086592905536,0.008569105333936868,-0.00847031941460617,0.017453292519943295,0.0,0.0,0.0,0.017453292519943295,0.0,0.0,0.0,0.15707963267948966,0.010590866208076477,0.006798289716243744,-0.0060567609034478664,0.0004363323129985824,0.0,0.0,0.0,0.0004363323129985824,0.0,0.0,0.0,0.0004363323129985824,-0.22976236045360565,0.06716437637805939,9.808913230895996,0.0004,0.0,0.0,0.0,0.0004,0.0,0.0,0.0,0.0004
2025/05/07 10:42:08.670024081,1746607328,648045387,mti/imu_base_body,0.9480088675074422,0.31801484443658123,0.00859167018519313,-0.008481099496095077,0.017453292519943295,0.0,0.0,0.0,0.017453292519943295,0.0,0.0,0.0,0.15707963267948966,0.008057895116508007,0.006064924411475658,4.9678095820127055e-05,0.0004363323129985824,0.0,0.0,0.0,0.0004363323129985824,0.0,0.0,0.0,0.0004363323129985824,-0.23319688439369202,0.07280638068914413,9.84948444366455,0.0004,0.0,0.0,0.0,0.0004,0.0,0.0,0.0,0.0004
2025/05/07 10:42:08.699578477,1746607328,697995367,mti/imu_base_body,0.9479941543916486,0.3180584008958824,0.008619284758308128,-0.008464324490015924,0.017453292519943295,0.0,0.0,0.0,0.017453292519943295,0.0,0.0,0.0,0.15707963267948966,0.006751721724867821,0.012817609123885632,-0.0006692201714031398,0.0004363323129985824,0.0,0.0,0.0,0.0004363323129985824,0.0,0.0,0.0,0.0004363323129985824,-0.2537992298603058,0.09737909585237503,9.747591972351074,0.0004,0.0,0.0,0.0,0.0004,0.0,0.0,0.0,0.0004
2025/05/07 10:42:08.748525126,1746607328,748071991,mti/imu_base_body,0.9479922155885383,0.3180642286460969,0.008628052232263796,-0.00845354091342699,0.017453292519943295,0.0,0.0,0.0,0.017453292519943295,0.0,0.0,0.0,0.15707963267948966,0.0017930959584191442,0.005019260570406914,0.004709328059107065,0.0004363323129985824,0.0,0.0,0.0,0.0004363323129985824,0.0,0.0,0.0,0.0004363323129985824,-0.21159955859184265,0.07312730699777603,9.790528297424316,0.0004,0.0,0.0,0.0,0.0004,0.0,0.0,0.0,0.0004
2025/05/07 10:42:08.834627484,1746607328,798069054,mti/imu_base_body,0.948005773915146,0.3180231922124288,0.0086679795364864,-0.008436111030379397,0.017453292519943295,0.0,0.0,0.0,0.017453292519943295,0.0,0.0,0.0,0.15707963267948966,0.010671759955585003,0.010947826318442822,0.012025823816657066,0.0004363323129985824,0.0,0.0,0.0,0.0004363323129985824,0.0,0.0,0.0,0.0004363323129985824,-0.20326459407806396,0.07133796066045761,9.90322494506836,0.0004,0.0,0.0,0.0,0.0004,0.0,0.0,0.0,0.0004
2025/05/07 10:42:08.861571344,1746607328,847993614,mti/imu_base_body,0.9478153172023949,0.31855370975191605,0.009651459998015257,-0.008746873711362119,0.017453292519943295,0.0,0.0,0.0,0.017453292519943295,0.0,0.0,0.0,0.15707963267948966,0.011354648508131504,0.013024413026869297,0.004379712976515293,0.0004363323129985824,0.0,0.0,0.0,0.0004363323129985824,0.0,0.0,0.0,0.0004363323129985824,-0.19342999160289764,0.09908593446016312,9.875961303710938,0.0004,0.0,0.0,0.0,0.0004,0.0,0.0,0.0,0.0004
2025/05/07 10:42:08.908458030,1746607328,898063760,mti/imu_base_body,0.9478063572325014,0.31857951047569844,0.009685721897454225,-0.008740222310982147,0.017453292519943295,0.0,0.0,0.0,0.017453292519943295,0.0,0.0,0.0,0.15707963267948966,0.0037839908618479967,0.0136636383831501,-0.00010849013779079542,0.0004363323129985824,0.0,0.0,0.0,0.0004363323129985824,0.0,0.0,0.0,0.0004363323129985824,-0.22357560694217682,0.07304246723651886,9.802294731140137,0.0004,0.0,0.0,0.0,0.0004,0.0,0.0,0.0,0.0004
2025/05/07 10:42:08.950497371,1746607328,948007903,mti/imu_base_body,0.9478010498569781,0.3185923060985546,0.009741675985321552,-0.008787043519394955,0.017453292519943295,0.0,0.0,0.0,0.017453292519943295,0.0,0.0,0.0,0.15707963267948966,0.016889143735170364,0.015578699298202991,0.004519424866884947,0.0004363323129985824,0.0,0.0,0.0,0.0004363323129985824,0.0,0.0,0.0,0.0004363323129985824,-0.24049699306488037,0.05867905542254448,9.788864135742188,0.0004,0.0,0.0,0.0,0.0004,0.0,0.0,0.0,0.0004
2025/05/07 10:42:08.999788232,1746607328,998104243,mti/imu_base_body,0.9477922691769789,0.3186157889127523,0.009788188444910598,-0.008830906568664657,0.017453292519943295,0.0,0.0,0.0,0.017453292519943295,0.0,0.0,0.0,0.15707963267948966,0.016113853082060814,0.011654175817966461,-0.00562474736943841,0.0004363323129985824,0.0,0.0,0.0,0.0004363323129985824,0.0,0.0,0.0,0.0004363323129985824,-0.21687345206737518,0.060704052448272705,9.821126937866211,0.0004,0.0,0.0,0.0,0.0004,0.0,0.0,0.0,0.0004
2025/05/07 10:42:09.117088039,1746607329,47780820,mti/imu_base_body,0.9477941595603061,0.3186071522614553,0.009849871241865966,-0.00887094514340372,0.017453292519943295,0.0,0.0,0.0,0.017453292519943295,0.0,0.0,0.0,0.15707963267948966,0.018445627763867378,0.021195409819483757,0.008854800835251808,0.0004363323129985824,0.0,0.0,0.0,0.0004363323129985824,0.0,0.0,0.0,0.0004363323129985824,-0.20621581375598907,0.07977242022752762,9.852917671203613,0.0004,0.0,0.0,0.0,0.0004,0.0,0.0,0.0,0.0004
2025/05/07 10:42:09.124673719,1746607329,98198907,mti/imu_base_body,0.9477965205634888,0.3185982406518662,0.00990692759961227,-0.008875215310941745,0.017453292519943295,0.0,0.0,0.0,0.017453292519943295,0.0,0.0,0.0,0.15707963267948966,0.0005498416721820831,0.014117795042693615,0.004109271802008152,0.0004363323129985824,0.0,0.0,0.0,0.0004363323129985824,0.0,0.0,0.0,0.0004363323129985824,-0.22042815387248993,0.06254646927118301,9.834698677062988,0.0004,0.0,0.0,0.0,0.0004,0.0,0.0,0.0,0.0004
2025/05/07 10:42:09.151770147,1746607329,147951753,mti/imu_base_body,0.9478054715979525,0.3185701699549355,0.00995709709853203,-0.008870797102668347,0.017453292519943295,0.0,0.0,0.0,0.017453292519943295,0.0,0.0,0.0,0.15707963267948966,0.0084063820540905,0.012624193914234638,0.01312283519655466,0.0004363323129985824,0.0,0.0,0.0,0.0004363323129985824,0.0,0.0,0.0,0.0004363323129985824,-0.2555479407310486,0.06575283408164978,9.79428482055664,0.0004,0.0,0.0,0.0,0.0004,0.0,0.0,0.0,0.0004
2025/05/07 10:42:09.202238278,1746607329,197976950,mti/imu_base_body,0.9477938490560642,0.3186025149655442,0.009996807762009894,-0.008906232856260321,0.017453292519943295,0.0,0.0,0.0,0.017453292519943295,0.0,0.0,0.0,0.15707963267948966,0.016603250056505203,0.014251499436795712,-0.00455703679472208,0.0004363323129985824,0.0,0.0,0.0,0.0004363323129985824,0.0,0.0,0.0,0.0004363323129985824,-0.22762764990329742,0.0656554326415062,9.81453800201416,0.0004,0.0,0.0,0.0,0.0004,0.0,0.0,0.0,0.0004
2025/05/07 10:42:09.248483178,1746607329,248107572,mti/imu_base_body,0.9476144346300761,0.3190755927200563,0.011165996839093842,-0.00964209135276574,0.017453292519943295,0.0,0.0,0.0,0.017453292519943295,0.0,0.0,0.0,0.15707963267948966,0.011949210427701473,0.008065714500844479,0.002860003150999546,0.0004363323129985824,0.0,0.0,0.0,0.0004363323129985824,0.0,0.0,0.0,0.0004363323129985824,-0.21323011815547943,0.07553655654191971,9.821013450622559,0.0004,0.0,0.0,0.0,0.0004,0.0,0.0,0.0,0.0004
2025/05/07 10:42:09.298679928,1746607329,298170251,mti/imu_base_body,0.9476139807637086,0.31907465696502324,0.011210759614459116,-0.009665692560653444,0.017453292519943295,0.0,0.0,0.0,0.017453292519943295,0.0,0.0,0.0,0.15707963267948966,0.012782176956534386,0.016214294359087944,0.00958549976348877,0.0004363323129985824,0.0,0.0,0.0,0.0004363323129985824,0.0,0.0,0.0,0.0004363323129985824,-0.22189947962760925,0.0672980472445488,9.816576957702637,0.0004,0.0,0.0,0.0,0.0004,0.0,0.0,0.0,0.0004
2025/05/07 10:42:09.349290778,1746607329,348634458,mti/imu_base_body,0.947620807853036,0.31905282481048214,0.011233242878380872,-0.00969091114634403,0.017453292519943295,0.0,0.0,0.0,0.017453292519943295,0.0,0.0,0.0,0.15707963267948966,0.015215547755360603,0.008057420141994953,0.0010014401050284505,0.0004363323129985824,0.0,0.0,0.0,0.0004363323129985824,0.0,0.0,0.0,0.0004363323129985824,-0.20749172568321228,0.060971155762672424,9.790757179260254,0.0004,0.0,0.0,0.0,0.0004,0.0,0.0,0.0,0.0004
2025/05/07 10:42:09.413672792,1746607329,398647614,mti/imu_base_body,0.9476225274988429,0.31904550296291945,0.011229846723091162,-0.009767443801652474,0.017453292519943295,0.0,0.0,0.0,0.017453292519943295,0.0,0.0,0.0,0.15707963267948966,0.02403070032596588,0.0066500636748969555,0.0072844866663217545,0.0004363323129985824,0.0,0.0,0.0,0.0004363323129985824,0.0,0.0,0.0,0.0004363323129985824,-0.2201814502477646,0.07073647528886795,9.806253433227539,0.0004,0.0,0.0,0.0,0.0004,0.0,0.0,0.0,0.0004
2025/05/07 10:42:09.471177609,1746607329,448017576,mti/imu_base_body,0.9476225097890387,0.3190437242397774,0.011252948921953047,-0.009800617577263266,0.017453292519943295,0.0,0.0,0.0,0.017453292519943295,0.0,0.0,0.0,0.15707963267948966,0.010682222433388233,0.004463996272534132,0.012700458988547325,0.0004363323129985824,0.0,0.0,0.0,0.0004363323129985824,0.0,0.0,0.0,0.0004363323129985824,-0.212618887424469,0.06892131268978119,9.800003051757812,0.0004,0.0,0.0,0.0,0.0004,0.0,0.0,0.0,0.0004
2025/05/07 10:42:09.510675782,1746607329,498468759,mti/imu_base_body,0.9476206896886636,0.3190501361398928,0.011224580750915956,-0.00980040254599918,0.017453292519943295,0.0,0.0,0.0,0.017453292519943295,0.0,0.0,0.0,0.15707963267948966,0.016040397807955742,-0.00014506952720694244,-0.004190655890852213,0.0004363323129985824,0.0,0.0,0.0,0.0004363323129985824,0.0,0.0,0.0,0.0004363323129985824,-0.22051268815994263,0.0782751739025116,9.813820838928223,0.0004,0.0,0.0,0.0,0.0004,0.0,0.0,0.0,0.0004
2025/05/07 10:42:09.552005058,1746607329,548038138,mti/imu_base_body,0.9476227919034103,0.3190433002176002,0.011202473415174202,-0.00984486875638322,0.017453292519943295,0.0,0.0,0.0,0.017453292519943295,0.0,0.0,0.0,0.15707963267948966,0.013633878901600838,0.005900988820940256,0.005117443855851889,0.0004363323129985824,0.0,0.0,0.0,0.0004363323129985824,0.0,0.0,0.0,0.0004363323129985824,-0.20296403765678406,0.06894204765558243,9.7894287109375,0.0004,0.0,0.0,0.0,0.0004,0.0,0.0,0.0,0.0004
2025/05/07 10:42:09.598966319,1746607329,598122297,mti/imu_base_body,0.9476200742606276,0.31904995691777316,0.011221099495181085,-0.009869487077299885,0.017453292519943295,0.0,0.0,0.0,0.017453292519943295,0.0,0.0,0.0,0.15707963267948966,0.01854112558066845,0.010863615199923515,0.0032239381689578295,0.0004363323129985824,0.0,0.0,0.0,0.0004363323129985824,0.0,0.0,0.0,0.0004363323129985824,-0.21276822686195374,0.07734999060630798,9.79880142211914,0.0004,0.0,0.0,0.0,0.0004,0.0,0.0,0.0,0.0004
2025/05/07 10:42:09.663517948,1746607329,648321134,mti/imu_base_body,0.9475910804089196,0.3191085041778436,0.011174402241479066,-0.010772169019329661,0.017453292519943295,0.0,0.0,0.0,0.017453292519943295,0.0,0.0,0.0,0.15707963267948966,0.01363634318113327,0.0024817083030939102,0.014274290762841702,0.0004363323129985824,0.0,0.0,0.0,0.0004363323129985824,0.0,0.0,0.0,0.0004363323129985824,-0.2255895584821701,0.08902734518051147,9.796060562133789,0.0004,0.0,0.0,0.0,0.0004,0.0,0.0,0.0,0.0004
2025/05/07 10:42:09.722851132,1746607329,697842287,mti/imu_base_body,0.9475922283806908,0.31910711121463237,0.01112494809121979,-0.010763633900152935,0.017453292519943295,0.0,0.0,0.0,0.017453292519943295,0.0,0.0,0.0,0.15707963267948966,0.00964254979044199,-0.003017487470060587,0.005942549090832472,0.0004363323129985824,0.0,0.0,0.0,0.0004363323129985824,0.0,0.0,0.0,0.0004363323129985824,-0.23228833079338074,0.08022456616163254,9.81240463256836,0.0004,0.0,0.0,0.0,0.0004,0.0,0.0,0.0,0.0004
2025/05/07 10:42:09.749910878,1746607329,748394567,mti/imu_base_body,0.9475976798485707,0.31909248758846676,0.011099493694591511,-0.01074349803060353,0.017453292519943295,0.0,0.0,0.0,0.017453292519943295,0.0,0.0,0.0,0.15707963267948966,0.01158110424876213,-0.0035697815474122763,0.01196893211454153,0.0004363323129985824,0.0,0.0,0.0,0.0004363323129985824,0.0,0.0,0.0,0.0004363323129985824,-0.2377527952194214,0.0817694440484047,9.799569129943848,0.0004,0.0,0.0,0.0,0.0004,0.0,0.0,0.0,0.0004
2025/05/07 10:42:09.801030907,1746607329,798348497,mti/imu_base_body,0.9476158568153072,0.3190381370949629,0.011073239376560967,-0.010781389561467987,0.017453292519943295,0.0,0.0,0.0,0.017453292519943295,0.0,0.0,0.0,0.15707963267948966,0.0176725871860981,0.005563247483223677,0.00766273308545351,0.0004363323129985824,0.0,0.0,0.0,0.0004363323129985824,0.0,0.0,0.0,0.0004363323129985824,-0.2402481585741043,0.07507818192243576,9.832808494567871,0.0004,0.0,0.0,0.0,0.0004,0.0,0.0,0.0,0.0004
2025/05/07 10:42:09.848376034,1746607329,848024725,mti/imu_base_body,0.9476180058461077,0.3190315719904278,0.01106371049274257,-0.01079654480356828,0.017453292519943295,0.0,0.0,0.0,0.017453292519943295,0.0,0.0,0.0,0.15707963267948966,0.013692270964384079,-0.002584968227893114,0.012561340816318989,0.0004363323129985824,0.0,0.0,0.0,0.0004363323129985824,0.0,0.0,0.0,0.0004363323129985824,-0.2506026327610016,0.06486919522285461,9.79189682006836,0.0004,0.0,0.0,0.0,0.0004,0.0,0.0,0.0,0.0004
2025/05/07 10:42:09.899107933,1746607329,898190734,mti/imu_base_body,0.9476230221993962,0.3190186224053933,0.011037850857550456,-0.010765324179710295,0.017453292519943295,0.0,0.0,0.0,0.017453292519943295,0.0,0.0,0.0,0.15707963267948966,0.008649696595966816,-0.007044279016554356,0.003467801259830594,0.0004363323129985824,0.0,0.0,0.0,0.0004363323129985824,0.0,0.0,0.0,0.0004363323129985824,-0.22343437373638153,0.08044448494911194,9.804596900939941,0.0004,0.0,0.0,0.0,0.0004,0.0,0.0,0.0,0.0004
2025/05/07 10:42:10.71772615,1746607329,948058666,mti/imu_base_body,0.9476120513573306,0.3190513499789619,0.011008550476452578,-0.010791108161861424,0.017453292519943295,0.0,0.0,0.0,0.017453292519943295,0.0,0.0,0.0,0.15707963267948966,0.009953265078365803,0.0012160176411271095,-0.0005488581955432892,0.0004363323129985824,0.0,0.0,0.0,0.0004363323129985824,0.0,0.0,0.0,0.0004363323129985824,-0.22660070657730103,0.09092263877391815,9.82787036895752,0.0004,0.0,0.0,0.0,0.0004,0.0,0.0,0.0,0.0004
2025/05/07 10:42:10.85295470,1746607329,998390823,mti/imu_base_body,0.9476177971756921,0.31903615195509927,0.010995109133011676,-0.01074950216172055,0.017453292519943295,0.0,0.0,0.0,0.017453292519943295,0.0,0.0,0.0,0.15707963267948966,0.00763329304754734,-0.0015193893341347575,0.007942816242575645,0.0004363323129985824,0.0,0.0,0.0,0.0004363323129985824,0.0,0.0,0.0,0.0004363323129985824,-0.24390552937984467,0.08956773579120636,9.798846244812012,0.0004,0.0,0.0,0.0,0.0004,0.0,0.0,0.0,0.0004
2025/05/07 10:42:10.99192867,1746607330,47914871,mti/imu_base_body,0.9476220637822358,0.3190762365832812,0.009908155304352807,-0.010227802276688682,0.017453292519943295,0.0,0.0,0.0,0.017453292519943295,0.0,0.0,0.0,0.15707963267948966,0.010981857776641846,-0.005158226937055588,-0.0009005822357721627,0.0004363323129985824,0.0,0.0,0.0,0.0004363323129985824,0.0,0.0,0.0,0.0004363323129985824,-0.23096781969070435,0.08164113759994507,9.814083099365234,0.0004,0.0,0.0,0.0,0.0004,0.0,0.0,0.0,0.0004
2025/05/07 10:42:10.187514176,1746607330,97960659,mti/imu_base_body,0.9476220092647689,0.3190764572228269,0.009889019740535484,-0.010244476155619924,0.017453292519943295,0.0,0.0,0.0,0.017453292519943295,0.0,0.0,0.0,0.15707963267948966,0.013580107130110264,-0.001302721444517374,0.004536173772066832,0.0004363323129985824,0.0,0.0,0.0,0.0004363323129985824,0.0,0.0,0.0,0.0004363323129985824,-0.2367396354675293,0.08234239369630814,9.816122055053711,0.0004,0.0,0.0,0.0,0.0004,0.0,0.0,0.0,0.0004
2025/05/07 10:42:10.191917504,1746607330,148149850,mti/imu_base_body,0.9476316834964478,0.31904842906245157,0.00987319293678571,-0.01023779310705293,0.017453292519943295,0.0,0.0,0.0,0.017453292519943295,0.0,0.0,0.0,0.15707963267948966,0.008495805785059929,0.00594685273244977,0.004951836075633764,0.0004363323129985824,0.0,0.0,0.0,0.0004363323129985824,0.0,0.0,0.0,0.0004363323129985824,-0.21346931159496307,0.07743924856185913,9.821979522705078,0.0004,0.0,0.0,0.0,0.0004,0.0,0.0,0.0,0.0004
2025/05/07 10:42:10.205679833,1746607330,198131199,mti/imu_base_body,0.9476296249150229,0.31905535073977503,0.009886379103060543,-0.010199836075282229,0.017453292519943295,0.0,0.0,0.0,0.017453292519943295,0.0,0.0,0.0,0.15707963267948966,0.009676709771156311,-0.0010246605379506946,0.0061196219176054,0.0004363323129985824,0.0,0.0,0.0,0.0004363323129985824,0.0,0.0,0.0,0.0004363323129985824,-0.22490429878234863,0.09111539274454117,9.819353103637695,0.0004,0.0,0.0,0.0,0.0004,0.0,0.0,0.0,0.0004
2025/05/07 10:42:10.260352770,1746607330,247910724,mti/imu_base_body,0.9476237556165479,0.31907509969811126,0.00983625363961609,-0.010175787840073966,0.017453292519943295,0.0,0.0,0.0,0.017453292519943295,0.0,0.0,0.0,0.15707963267948966,0.004992909729480743,-0.007938280701637268,-0.002637975150719285,0.0004363323129985824,0.0,0.0,0.0,0.0004363323129985824,0.0,0.0,0.0,0.0004363323129985824,-0.2125595211982727,0.08399390429258347,9.797983169555664,0.0004,0.0,0.0,0.0,0.0004,0.0,0.0,0.0,0.0004
2025/05/07 10:42:10.341276912,1746607330,298252257,mti/imu_base_body,0.9476059233964393,0.31913153689433277,0.009748068562658236,-0.010151416784864772,0.017453292519943295,0.0,0.0,0.0,0.017453292519943295,0.0,0.0,0.0,0.15707963267948966,0.012900862842798233,-0.015553892590105534,-0.007157281041145325,0.0004363323129985824,0.0,0.0,0.0,0.0004363323129985824,0.0,0.0,0.0,0.0004363323129985824,-0.2131987363100052,0.08684831857681274,9.811432838439941,0.0004,0.0,0.0,0.0,0.0004,0.0,0.0,0.0,0.0004
2025/05/07 10:42:10.353290958,1746607330,348244580,mti/imu_base_body,0.9475911135335784,0.3191767931259501,0.00971358537476773,-0.01014408897803657,0.017453292519943295,0.0,0.0,0.0,0.017453292519943295,0.0,0.0,0.0,0.15707963267948966,0.006077396683394909,-0.0015704721445217729,-0.00029983496642671525,0.0004363323129985824,0.0,0.0,0.0,0.0004363323129985824,0.0,0.0,0.0,0.0004363323129985824,-0.21755090355873108,0.08506865799427032,9.831460952758789,0.0004,0.0,0.0,0.0,0.0004,0.0,0.0,0.0,0.0004
2025/05/07 10:42:10.408549858,1746607330,399694910,mti/imu_base_body,0.9475824914404017,0.31920332226666515,0.00967342451827636,-0.010153119107615842,0.017453292519943295,0.0,0.0,0.0,0.017453292519943295,0.0,0.0,0.0,0.15707963267948966,0.01836083084344864,-0.0003525165084283799,-0.0005223461193963885,0.0004363323129985824,0.0,0.0,0.0,0.0004363323129985824,0.0,0.0,0.0,0.0004363323129985824,-0.21650272607803345,0.07399758696556091,9.813940048217773,0.0004,0.0,0.0,0.0,0.0004,0.0,0.0,0.0,0.0004
2025/05/07 10:42:10.453110797,1746607330,448559888,mti/imu_base_body,0.947614223911813,0.3191508903263353,0.009107864050515543,-0.00932945102119392,0.017453292519943295,0.0,0.0,0.0,0.017453292519943295,0.0,0.0,0.0,0.15707963267948966,0.004282764624804258,-0.0011968162143602967,0.01021130383014679,0.0004363323129985824,0.0,0.0,0.0,0.0004363323129985824,0.0,0.0,0.0,0.0004363323129985824,-0.22425861656665802,0.09788138419389725,9.819957733154297,0.0004,0.0,0.0,0.0,0.0004,0.0,0.0,0.0,0.0004
2025/05/07 10:42:10.513923173,1746607330,498794988,mti/imu_base_body,0.9476058171889636,0.31917567671781866,0.00912629661670124,-0.009317367193726027,0.017453292519943295,0.0,0.0,0.0,0.017453292519943295,0.0,0.0,0.0,0.15707963267948966,0.009219410829246044,0.00385384913533926,0.0007328881765715778,0.0004363323129985824,0.0,0.0,0.0,0.0004363323129985824,0.0,0.0,0.0,0.0004363323129985824,-0.21234704554080963,0.08255122601985931,9.833378791809082,0.0004,0.0,0.0,0.0,0.0004,0.0,0.0,0.0,0.0004
2025/05/07 10:42:10.548480265,1746607330,548113675,mti/imu_base_body,0.9476064504026098,0.3191749752405273,0.009112002702025146,-0.009290949485018253,0.017453292519943295,0.0,0.0,0.0,0.017453292519943295,0.0,0.0,0.0,0.15707963267948966,0.008602081798017025,0.0009357430972158909,0.0009160627378150821,0.0004363323129985824,0.0,0.0,0.0,0.0004363323129985824,0.0,0.0,0.0,0.0004363323129985824,-0.22918866574764252,0.09347110986709595,9.78059196472168,0.0004,0.0,0.0,0.0,0.0004,0.0,0.0,0.0,0.0004
2025/05/07 10:42:10.598770751,1746607330,598121875,mti/imu_base_body,0.9475946542949871,0.3192109083082458,0.009089024925119128,-0.009282068438626844,0.017453292519943295,0.0,0.0,0.0,0.017453292519943295,0.0,0.0,0.0,0.15707963267948966,0.010879728943109512,-0.001691216486506164,-0.0002227892109658569,0.0004363323129985824,0.0,0.0,0.0,0.0004363323129985824,0.0,0.0,0.0,0.0004363323129985824,-0.22581574320793152,0.07968065142631531,9.780586242675781,0.0004,0.0,0.0,0.0,0.0004,0.0,0.0,0.0,0.0004
2025/05/07 10:42:10.670292854,1746607330,647925438,mti/imu_base_body,0.9475910210879461,0.31922279000576864,0.0090774349617817,-0.00925566145399463,0.017453292519943295,0.0,0.0,0.0,0.017453292519943295,0.0,0.0,0.0,0.15707963267948966,0.003938411362469196,-0.004221415147185326,0.003959671128541231,0.0004363323129985824,0.0,0.0,0.0,0.0004363323129985824,0.0,0.0,0.0,0.0004363323129985824,-0.2123601734638214,0.0835883691906929,9.834344863891602,0.0004,0.0,0.0,0.0,0.0004,0.0,0.0,0.0,0.0004
2025/05/07 10:42:10.724557027,1746607330,697962831,mti/imu_base_body,0.9475885076982541,0.3192321339206695,0.009051918949718752,-0.00921561251241189,0.017453292519943295,0.0,0.0,0.0,0.017453292519943295,0.0,0.0,0.0,0.15707963267948966,0.0007152590551413596,0.0013623940758407116,0.002936632139608264,0.0004363323129985824,0.0,0.0,0.0,0.0004363323129985824,0.0,0.0,0.0,0.0004363323129985824,-0.22777847945690155,0.09512936323881149,9.802557945251465,0.0004,0.0,0.0,0.0,0.0004,0.0,0.0,0.0,0.0004
2025/05/07 10:42:10.777888834,1746607330,748069783,mti/imu_base_body,0.9475921479486089,0.3192236715104537,0.009013512207429368,-0.009171984039131382,0.017453292519943295,0.0,0.0,0.0,0.017453292519943295,0.0,0.0,0.0,0.15707963267948966,0.009682695381343365,-0.005058317445218563,0.002418318297713995,0.0004363323129985824,0.0,0.0,0.0,0.0004363323129985824,0.0,0.0,0.0,0.0004363323129985824,-0.23683814704418182,0.08530227094888687,9.80257511138916,0.0004,0.0,0.0,0.0,0.0004,0.0,0.0,0.0,0.0004
2025/05/07 10:42:10.798503427,1746607330,798024656,mti/imu_base_body,0.9475828756727472,0.31925170382759605,0.009007650625337269,-0.009159998098009629,0.017453292519943295,0.0,0.0,0.0,0.017453292519943295,0.0,0.0,0.0,0.15707963267948966,0.005451600532978773,-0.0009148735553026199,-0.00026298072771169245,0.0004363323129985824,0.0,0.0,0.0,0.0004363323129985824,0.0,0.0,0.0,0.0004363323129985824,-0.22536200284957886,0.07912398129701614,9.801593780517578,0.0004,0.0,0.0,0.0,0.0004,0.0,0.0,0.0,0.0004
2025/05/07 10:42:10.848971917,1746607330,848237777,mti/imu_base_body,0.9475354163518737,0.31943217661053147,0.008408789759946892,-0.008307319634677972,0.017453292519943295,0.0,0.0,0.0,0.017453292519943295,0.0,0.0,0.0,0.15707963267948966,0.0018904689932242036,-0.004562487360090017,0.005046638660132885,0.0004363323129985824,0.0,0.0,0.0,0.0004363323129985824,0.0,0.0,0.0,0.0004363323129985824,-0.2389560043811798,0.09278179705142975,9.801250457763672,0.0004,0.0,0.0,0.0,0.0004,0.0,0.0,0.0,0.0004
2025/05/07 10:42:10.898494946,1746607330,898077783,mti/imu_base_body,0.9475164455893978,0.3194898443892853,0.008389974800987667,-0.008272423622049607,0.017453292519943295,0.0,0.0,0.0,0.017453292519943295,0.0,0.0,0.0,0.15707963267948966,0.0074967285618186,0.001783759449608624,-0.0062883468344807625,0.0004363323129985824,0.0,0.0,0.0,0.0004363323129985824,0.0,0.0,0.0,0.0004363323129985824,-0.21252401173114777,0.07442189753055573,9.812016487121582,0.0004,0.0,0.0,0.0,0.0004,0.0,0.0,0.0,0.0004
2025/05/07 10:42:10.948563659,1746607330,948062632,mti/imu_base_body,0.9475084696645097,0.31951396590957154,0.00839112648227787,-0.008253150859781032,0.017453292519943295,0.0,0.0,0.0,0.017453292519943295,0.0,0.0,0.0,0.15707963267948966,0.003160185879096389,-0.000505047501064837,0.002106256317347288,0.0004363323129985824,0.0,0.0,0.0,0.0004363323129985824,0.0,0.0,0.0,0.0004363323129985824,-0.22210288047790527,0.09317538142204285,9.817070007324219,0.0004,0.0,0.0,0.0,0.0004,0.0,0.0,0.0,0.0004
2025/05/07 10:42:10.998671012,1746607330,998208582,mti/imu_base_body,0.9475162248819002,0.31949233032995955,0.008365063502037784,-0.008226795153119455,0.017453292519943295,0.0,0.0,0.0,0.017453292519943295,0.0,0.0,0.0,0.15707963267948966,0.007712741382420063,-0.0027437659446150064,0.0058778198435902596,0.0004363323129985824,0.0,0.0,0.0,0.0004363323129985824,0.0,0.0,0.0,0.0004363323129985824,-0.25448814034461975,0.102262943983078,9.79334545135498,0.0004,0.0,0.0,0.0,0.0004,0.0,0.0,0.0,0.0004
2025/05/07 10:42:11.48529952,1746607331,48069809,mti/imu_base_body,0.9475024057398094,0.3195341144571959,0.0083388453995146,-0.008222193912344144,0.017453292519943295,0.0,0.0,0.0,0.017453292519943295,0.0,0.0,0.0,0.15707963267948966,0.015750449150800705,0.00027753738686442375,-0.004912391770631075,0.0004363323129985824,0.0,0.0,0.0,0.0004363323129985824,0.0,0.0,0.0,0.0004363323129985824,-0.23084162175655365,0.09097784012556076,9.786234855651855,0.0004,0.0,0.0,0.0,0.0004,0.0,0.0,0.0,0.0004
2025/05/07 10:42:11.98723659,1746607331,98208858,mti/imu_base_body,0.9475004652557055,0.3195400004138847,0.00835178496771645,-0.008203911479844055,0.017453292519943295,0.0,0.0,0.0,0.017453292519943295,0.0,0.0,0.0,0.15707963267948966,0.004607490263879299,0.006505399476736784,0.0036437204107642174,0.0004363323129985824,0.0,0.0,0.0,0.0004363323129985824,0.0,0.0,0.0,0.0004363323129985824,-0.23067060112953186,0.09035974740982056,9.802071571350098,0.0004,0.0,0.0,0.0,0.0004,0.0,0.0,0.0,0.0004
2025/05/07 10:42:11.148520135,1746607331,148089180,mti/imu_base_body,0.9474899483928427,0.31957121920348563,0.008370290099856148,-0.008183629694105693,0.017453292519943295,0.0,0.0,0.0,0.017453292519943295,0.0,0.0,0.0,0.15707963267948966,0.002912108553573489,-0.00036804884439334273,-0.00037697487277910113,0.0004363323129985824,0.0,0.0,0.0,0.0004363323129985824,0.0,0.0,0.0,0.0004363323129985824,-0.21937024593353271,0.08813917636871338,9.806746482849121,0.0004,0.0,0.0,0.0,0.0004,0.0,0.0,0.0,0.0004
2025/05/07 10:42:11.198519696,1746607331,198061840,mti/imu_base_body,0.947490845806132,0.3195700981000745,0.008336890066055272,-0.008157559556378032,0.017453292519943295,0.0,0.0,0.0,0.017453292519943295,0.0,0.0,0.0,0.15707963267948966,0.008068807423114777,0.00230853701941669,0.007712280377745628,0.0004363323129985824,0.0,0.0,0.0,0.0004363323129985824,0.0,0.0,0.0,0.0004363323129985824,-0.22237341105937958,0.08938152343034744,9.789946556091309,0.0004,0.0,0.0,0.0,0.0004,0.0,0.0,0.0,0.0004
2025/05/07 10:42:11.248708813,1746607331,248014927,mti/imu_base_body,0.94731656011546,0.32009900624110943,0.007940123310271082,-0.008057020310511148,0.017453292519943295,0.0,0.0,0.0,0.017453292519943295,0.0,0.0,0.0,0.15707963267948966,0.011733445338904858,0.0084949666634202,-0.00957915186882019,0.0004363323129985824,0.0,0.0,0.0,0.0004363323129985824,0.0,0.0,0.0,0.0004363323129985824,-0.2288578599691391,0.09183931350708008,9.83615779876709,0.0004,0.0,0.0,0.0,0.0004,0.0,0.0,0.0,0.0004
2025/05/07 10:42:11.298619279,1746607331,298135586,mti/imu_base_body,0.9473004090728232,0.3201469735573737,0.007933324206023364,-0.008056839303228789,0.017453292519943295,0.0,0.0,0.0,0.017453292519943295,0.0,0.0,0.0,0.15707963267948966,0.008157303556799889,0.0004993611364625394,-0.0042150868102908134,0.0004363323129985824,0.0,0.0,0.0,0.0004363323129985824,0.0,0.0,0.0,0.0004363323129985824,-0.21584807336330414,0.07786290347576141,9.82690715789795,0.0004,0.0,0.0,0.0,0.0004,0.0,0.0,0.0,0.0004
2025/05/07 10:42:11.348777680,1746607331,348197125,mti/imu_base_body,0.9472997241347323,0.3201492440516441,0.007921055966052738,-0.008059222034638616,0.017453292519943295,0.0,0.0,0.0,0.017453292519943295,0.0,0.0,0.0,0.15707963267948966,0.011604630388319492,0.001689340453594923,0.00439419224858284,0.0004363323129985824,0.0,0.0,0.0,0.0004363323129985824,0.0,0.0,0.0,0.0004363323129985824,-0.22122740745544434,0.0904596745967865,9.823664665222168,0.0004,0.0,0.0,0.0,0.0004,0.0,0.0,0.0,0.0004
2025/05/07 10:42:11.404317400,1746607331,402901836,mti/imu_base_body,0.9472976252622483,0.32015599388563065,0.007922775377693071,-0.008036067565892112,0.017453292519943295,0.0,0.0,0.0,0.017453292519943295,0.0,0.0,0.0,0.15707963267948966,0.007938172668218613,0.004129494074732065,0.005406542681157589,0.0004363323129985824,0.0,0.0,0.0,0.0004363323129985824,0.0,0.0,0.0,0.0004363323129985824,-0.21791967749595642,0.08954127132892609,9.852829933166504,0.0004,0.0,0.0,0.0,0.0004,0.0,0.0,0.0,0.0004
2025/05/07 10:42:11.449220775,1746607331,448142406,mti/imu_base_body,0.9472941397845027,0.32016560183315484,0.007948954152674546,-0.008038299610691817,0.017453292519943295,0.0,0.0,0.0,0.017453292519943295,0.0,0.0,0.0,0.15707963267948966,0.002731551183387637,0.008240091614425182,0.002222767099738121,0.0004363323129985824,0.0,0.0,0.0,0.0004363323129985824,0.0,0.0,0.0,0.0004363323129985824,-0.21809567511081696,0.07687820494174957,9.863391876220703,0.0004,0.0,0.0,0.0,0.0004,0.0,0.0,0.0,0.0004
2025/05/07 10:42:11.499546222,1746607331,498225909,mti/imu_base_body,0.9472933530773981,0.32016853097169234,0.007948944180261982,-0.008014317015645134,0.017453292519943295,0.0,0.0,0.0,0.017453292519943295,0.0,0.0,0.0,0.15707963267948966,0.01209860760718584,-0.0019192227628082037,0.0043486240319907665,0.0004363323129985824,0.0,0.0,0.0,0.0004363323129985824,0.0,0.0,0.0,0.0004363323129985824,-0.2317667454481125,0.09384790807962418,9.823565483093262,0.0004,0.0,0.0,0.0,0.0004,0.0,0.0,0.0,0.0004
2025/05/07 10:42:11.548511901,1746607331,548023783,mti/imu_base_body,0.947283323201495,0.32019926006180116,0.007884695288854555,-0.008035609523165718,0.017453292519943295,0.0,0.0,0.0,0.017453292519943295,0.0,0.0,0.0,0.15707963267948966,0.016696272417902946,-0.002266028430312872,-0.00433658342808485,0.0004363323129985824,0.0,0.0,0.0,0.0004363323129985824,0.0,0.0,0.0,0.0004363323129985824,-0.21253791451454163,0.07869727909564972,9.836148262023926,0.0004,0.0,0.0,0.0,0.0004,0.0,0.0,0.0,0.0004
2025/05/07 10:42:11.598371449,1746607331,597980321,mti/imu_base_body,0.9472756301220965,0.3202223002111896,0.007843234125718515,-0.008064905621828785,0.017453292519943295,0.0,0.0,0.0,0.017453292519943295,0.0,0.0,0.0,0.15707963267948966,0.01692657731473446,-0.006350882351398468,-0.000511473452206701,0.0004363323129985824,0.0,0.0,0.0,0.0004363323129985824,0.0,0.0,0.0,0.0004363323129985824,-0.20327459275722504,0.07056193798780441,9.845855712890625,0.0004,0.0,0.0,0.0,0.0004,0.0,0.0,0.0,0.0004
2025/05/07 10:42:11.648322976,1746607331,647897626,mti/imu_base_body,0.9472387166154621,0.32032857390203356,0.007896372559545473,-0.008128086305047385,0.017453292519943295,0.0,0.0,0.0,0.017453292519943295,0.0,0.0,0.0,0.15707963267948966,0.009313756600022316,0.00915699452161789,0.0009727158467285335,0.0004363323129985824,0.0,0.0,0.0,0.0004363323129985824,0.0,0.0,0.0,0.0004363323129985824,-0.21914686262607574,0.07409880310297012,9.851043701171875,0.0004,0.0,0.0,0.0,0.0004,0.0,0.0,0.0,0.0004
2025/05/07 10:42:11.698514466,1746607331,698090133,mti/imu_base_body,0.9472400196890357,0.32032375671707014,0.00791955814521647,-0.008143499306996363,0.017453292519943295,0.0,0.0,0.0,0.017453292519943295,0.0,0.0,0.0,0.15707963267948966,0.015303868800401688,0.011724605225026608,0.010602233931422234,0.0004363323129985824,0.0,0.0,0.0,0.0004363323129985824,0.0,0.0,0.0,0.0004363323129985824,-0.22402046620845795,0.08619382977485657,9.859573364257812,0.0004,0.0,0.0,0.0,0.0004,0.0,0.0,0.0,0.0004
2025/05/07 10:42:11.748366185,1746607331,748014756,mti/imu_base_body,0.9472479827099665,0.3202989594824171,0.007955252517984273,-0.008157803856132306,0.017453292519943295,0.0,0.0,0.0,0.017453292519943295,0.0,0.0,0.0,0.15707963267948966,0.00907075684517622,0.01521805115044117,0.008984746411442757,0.0004363323129985824,0.0,0.0,0.0,0.0004363323129985824,0.0,0.0,0.0,0.0004363323129985824,-0.20590096712112427,0.07730399817228317,9.86231803894043,0.0004,0.0,0.0,0.0,0.0004,0.0,0.0,0.0,0.0004
2025/05/07 10:42:11.798376773,1746607331,797800266,mti/imu_base_body,0.947240556686676,0.32032033917701597,0.007986432571422144,-0.008150151668507435,0.017453292519943295,0.0,0.0,0.0,0.017453292519943295,0.0,0.0,0.0,0.15707963267948966,0.0016375848790630698,0.003107282333076,0.001607051002793014,0.0004363323129985824,0.0,0.0,0.0,0.0004363323129985824,0.0,0.0,0.0,0.0004363323129985824,-0.23623687028884888,0.09188196063041687,9.836074829101562,0.0004,0.0,0.0,0.0,0.0004,0.0,0.0,0.0,0.0004
2025/05/07 10:42:11.848340608,1746607331,847812918,mti/imu_base_body,0.9472271383351671,0.32036109318133854,0.007970963534520994,-0.008122937729604984,0.017453292519943295,0.0,0.0,0.0,0.017453292519943295,0.0,0.0,0.0,0.15707963267948966,0.011059022508561611,0.0059041171334683895,-0.0006716392235830426,0.0004363323129985824,0.0,0.0,0.0,0.0004363323129985824,0.0,0.0,0.0,0.0004363323129985824,-0.2356099933385849,0.10448925942182541,9.826951026916504,0.0004,0.0,0.0,0.0,0.0004,0.0,0.0,0.0,0.0004
2025/05/07 10:42:11.898611221,1746607331,898015602,mti/imu_base_body,0.9472458564525694,0.3203043236497618,0.007980720024664855,-0.008169197793850983,0.017453292519943295,0.0,0.0,0.0,0.017453292519943295,0.0,0.0,0.0,0.15707963267948966,0.017948603257536888,-8.213480759877712e-05,0.01717383973300457,0.0004363323129985824,0.0,0.0,0.0,0.0004363323129985824,0.0,0.0,0.0,0.0004363323129985824,-0.21764206886291504,0.09050167351961136,9.858012199401855,0.0004,0.0,0.0,0.0,0.0004,0.0,0.0,0.0,0.0004
2025/05/07 10:42:11.948579776,1746607331,948071165,mti/imu_base_body,0.9472666847544629,0.3202412594652526,0.007990404042212504,-0.008216881016545538,0.017453292519943295,0.0,0.0,0.0,0.017453292519943295,0.0,0.0,0.0,0.15707963267948966,0.01995723694562912,0.01160633098334074,0.013697932474315166,0.0004363323129985824,0.0,0.0,0.0,0.0004363323129985824,0.0,0.0,0.0,0.0004363323129985824,-0.20563264191150665,0.08705294877290726,9.829781532287598,0.0004,0.0,0.0,0.0,0.0004,0.0,0.0,0.0,0.0004
2025/05/07 10:42:11.998348300,1746607331,997904954,mti/imu_base_body,0.9472679735393803,0.32023524160872513,0.008007951726497394,-0.008285472077281622,0.017453292519943295,0.0,0.0,0.0,0.017453292519943295,0.0,0.0,0.0,0.15707963267948966,0.019473552703857422,0.011859889142215252,0.004585037939250469,0.0004363323129985824,0.0,0.0,0.0,0.0004363323129985824,0.0,0.0,0.0,0.0004363323129985824,-0.20121587812900543,0.09910733997821808,9.857620239257812,0.0004,0.0,0.0,0.0,0.0004,0.0,0.0,0.0,0.0004
2025/05/07 10:42:12.48494810,1746607332,47965877,mti/imu_base_body,0.9471505497040891,0.32053636379752803,0.008878131227481793,-0.0091353415156888,0.017453292519943295,0.0,0.0,0.0,0.017453292519943295,0.0,0.0,0.0,0.15707963267948966,0.016591010615229607,0.010462366975843906,-0.0040822867304086685,0.0004363323129985824,0.0,0.0,0.0,0.0004363323129985824,0.0,0.0,0.0,0.0004363323129985824,-0.21821604669094086,0.09450727701187134,9.834244728088379,0.0004,0.0,0.0,0.0,0.0004,0.0,0.0,0.0,0.0004
2025/05/07 10:42:12.98868201,1746607332,98262745,mti/imu_base_body,0.9471576143846003,0.3205133829181288,0.008910212116293146,-0.009177853980761638,0.017453292519943295,0.0,0.0,0.0,0.017453292519943295,0.0,0.0,0.0,0.15707963267948966,0.012149921618402004,0.012761782854795456,0.0162136722356081,0.0004363323129985824,0.0,0.0,0.0,0.0004363323129985824,0.0,0.0,0.0,0.0004363323129985824,-0.2088322937488556,0.08382660895586014,9.859556198120117,0.0004,0.0,0.0,0.0,0.0004,0.0,0.0,0.0,0.0004
2025/05/07 10:42:12.148230448,1746607332,147876179,mti/imu_base_body,0.9471600867619466,0.3205056236775988,0.008928254167850782,-0.00917613827541204,0.017453292519943295,0.0,0.0,0.0,0.017453292519943295,0.0,0.0,0.0,0.15707963267948966,0.010981465689837933,0.006535200402140617,0.0010780515149235725,0.0004363323129985824,0.0,0.0,0.0,0.0004363323129985824,0.0,0.0,0.0,0.0004363323129985824,-0.20901010930538177,0.09218693524599075,9.808070182800293,0.0004,0.0,0.0,0.0,0.0004,0.0,0.0,0.0,0.0004
2025/05/07 10:42:12.198580382,1746607332,198011128,mti/imu_base_body,0.9471424805090813,0.32055472750299074,0.008987939328693477,-0.00921982848057929,0.017453292519943295,0.0,0.0,0.0,0.017453292519943295,0.0,0.0,0.0,0.15707963267948966,0.012316280044615269,0.019992846995592117,-0.009967652149498463,0.0004363323129985824,0.0,0.0,0.0,0.0004363323129985824,0.0,0.0,0.0,0.0004363323129985824,-0.22778019309043884,0.08783169090747833,9.819839477539062,0.0004,0.0,0.0,0.0,0.0004,0.0,0.0,0.0,0.0004
2025/05/07 10:42:12.248530631,1746607332,248018527,mti/imu_base_body,0.9471309320170138,0.32058662169736224,0.009021673313905543,-0.009264179179606898,0.017453292519943295,0.0,0.0,0.0,0.017453292519943295,0.0,0.0,0.0,0.15707963267948966,0.016969498246908188,0.01132107898592949,0.002827850403264165,0.0004363323129985824,0.0,0.0,0.0,0.0004363323129985824,0.0,0.0,0.0,0.0004363323129985824,-0.22351190447807312,0.10047329217195511,9.834004402160645,0.0004,0.0,0.0,0.0,0.0004,0.0,0.0,0.0,0.0004
2025/05/07 10:42:12.298435999,1746607332,297892301,mti/imu_base_body,0.9471302623530324,0.3205872195734714,0.009043361459463488,-0.009290769329826486,0.017453292519943295,0.0,0.0,0.0,0.017453292519943295,0.0,0.0,0.0,0.15707963267948966,0.010212915018200874,0.007004452403634787,0.007340133190155029,0.0004363323129985824,0.0,0.0,0.0,0.0004363323129985824,0.0,0.0,0.0,0.0004363323129985824,-0.21555104851722717,0.0980762168765068,9.8280029296875,0.0004,0.0,0.0,0.0,0.0004,0.0,0.0,0.0,0.0004
2025/05/07 10:42:12.348369975,1746607332,347875575,mti/imu_base_body,0.9471434001905535,0.3205475220615718,0.009068500420593394,-0.009296659388444654,0.017453292519943295,0.0,0.0,0.0,0.017453292519943295,0.0,0.0,0.0,0.15707963267948966,0.01177243236452341,0.009731432422995567,0.01372888870537281,0.0004363323129985824,0.0,0.0,0.0,0.0004363323129985824,0.0,0.0,0.0,0.0004363323129985824,-0.2204546481370926,0.09092912822961807,9.81792163848877,0.0004,0.0,0.0,0.0,0.0004,0.0,0.0,0.0,0.0004
2025/05/07 10:42:12.405256225,1746607332,403687783,mti/imu_base_body,0.9471350370113089,0.32057013353736796,0.00909308124717818,-0.009344892875404093,0.017453292519943295,0.0,0.0,0.0,0.017453292519943295,0.0,0.0,0.0,0.15707963267948966,0.017130210995674133,0.010520274750888348,-0.004136133939027786,0.0004363323129985824,0.0,0.0,0.0,0.0004363323129985824,0.0,0.0,0.0,0.0004363323129985824,-0.23181095719337463,0.10607859492301941,9.806413650512695,0.0004,0.0,0.0,0.0,0.0004,0.0,0.0,0.0,0.0004
2025/05/07 10:42:12.449162583,1746607332,448300074,mti/imu_base_body,0.9471760317085949,0.3203984082935512,0.009965168855713713,-0.01015481803849748,0.017453292519943295,0.0,0.0,0.0,0.017453292519943295,0.0,0.0,0.0,0.15707963267948966,0.01685270108282566,0.0072258771397173405,0.009375141933560371,0.0004363323129985824,0.0,0.0,0.0,0.0004363323129985824,0.0,0.0,0.0,0.0004363323129985824,-0.21642906963825226,0.09849950671195984,9.801688194274902,0.0004,0.0,0.0,0.0,0.0004,0.0,0.0,0.0,0.0004
2025/05/07 10:42:12.499151207,1746607332,498138223,mti/imu_base_body,0.9471850602785212,0.3203702910457231,0.009968578326115073,-0.01019635457449907,0.017453292519943295,0.0,0.0,0.0,0.017453292519943295,0.0,0.0,0.0,0.15707963267948966,0.018886705860495567,0.008473992347717285,0.015141804702579975,0.0004363323129985824,0.0,0.0,0.0,0.0004363323129985824,0.0,0.0,0.0,0.0004363323129985824,-0.21247230470180511,0.09967279434204102,9.77275562286377,0.0004,0.0,0.0,0.0,0.0004,0.0,0.0,0.0,0.0004
2025/05/07 10:42:12.549987251,1746607332,548061117,mti/imu_base_body,0.9471911633470846,0.320349108091655,0.010018007135440104,-0.010246392297381937,0.017453292519943295,0.0,0.0,0.0,0.017453292519943295,0.0,0.0,0.0,0.15707963267948966,0.01612701267004013,0.01236551534384489,0.005307553801685572,0.0004363323129985824,0.0,0.0,0.0,0.0004363323129985824,0.0,0.0,0.0,0.0004363323129985824,-0.2084985077381134,0.09806814044713974,9.755938529968262,0.0004,0.0,0.0,0.0,0.0004,0.0,0.0,0.0,0.0004
2025/05/07 10:42:12.598147101,1746607332,597720386,mti/imu_base_body,0.9471943386408421,0.3203392161617857,0.009994781487270316,-0.01028473522322678,0.017453292519943295,0.0,0.0,0.0,0.017453292519943295,0.0,0.0,0.0,0.15707963267948966,0.0194032471626997,0.005779649131000042,0.009959076531231403,0.0004363323129985824,0.0,0.0,0.0,0.0004363323129985824,0.0,0.0,0.0,0.0004363323129985824,-0.21155580878257751,0.10066451132297516,9.791967391967773,0.0004,0.0,0.0,0.0,0.0004,0.0,0.0,0.0,0.0004
2025/05/07 10:42:12.648206031,1746607332,647733490,mti/imu_base_body,0.9472039682235056,0.3203076288819857,0.010037654880877366,-0.01033977495580333,0.017453292519943295,0.0,0.0,0.0,0.017453292519943295,0.0,0.0,0.0,0.15707963267948966,0.01852937787771225,0.01117083802819252,0.010362963192164898,0.0004363323129985824,0.0,0.0,0.0,0.0004363323129985824,0.0,0.0,0.0,0.0004363323129985824,-0.2059001475572586,0.09738581627607346,9.793274879455566,0.0004,0.0,0.0,0.0,0.0004,0.0,0.0,0.0,0.0004
2025/05/07 10:42:12.698221989,1746607332,697764563,mti/imu_base_body,0.947213699857633,0.32027780372439724,0.010036051445497643,-0.010373664486257771,0.017453292519943295,0.0,0.0,0.0,0.017453292519943295,0.0,0.0,0.0,0.15707963267948966,0.014259709976613522,0.008842794224619865,0.011402253992855549,0.0004363323129985824,0.0,0.0,0.0,0.0004363323129985824,0.0,0.0,0.0,0.0004363323129985824,-0.20246568322181702,0.09161359816789627,9.768423080444336,0.0004,0.0,0.0,0.0,0.0004,0.0,0.0,0.0,0.0004
2025/05/07 10:42:12.748372057,1746607332,747825604,mti/imu_base_body,0.9472184728833131,0.3202617131506949,0.010070457786390907,-0.010401230617516266,0.017453292519943295,0.0,0.0,0.0,0.017453292519943295,0.0,0.0,0.0,0.15707963267948966,0.011859697289764881,0.008481552824378014,0.009232375770807266,0.0004363323129985824,0.0,0.0,0.0,0.0004363323129985824,0.0,0.0,0.0,0.0004363323129985824,-0.21664674580097198,0.09845317900180817,9.769396781921387,0.0004,0.0,0.0,0.0,0.0004,0.0,0.0,0.0,0.0004
2025/05/07 10:42:12.798242924,1746607332,797782938,mti/imu_base_body,0.9472166133680369,0.3202666888061852,0.010080187226656772,-0.010407940535207836,0.017453292519943295,0.0,0.0,0.0,0.017453292519943295,0.0,0.0,0.0,0.15707963267948966,0.012296831235289574,0.011166543699800968,0.0018666733521968126,0.0004363323129985824,0.0,0.0,0.0,0.0004363323129985824,0.0,0.0,0.0,0.0004363323129985824,-0.2092689722776413,0.10726333409547806,9.784040451049805,0.0004,0.0,0.0,0.0,0.0004,0.0,0.0,0.0,0.0004
2025/05/07 10:42:12.848153506,1746607332,847734266,mti/imu_base_body,0.947241456865642,0.32016330272532406,0.010455641079292678,-0.010943562157235714,0.017453292519943295,0.0,0.0,0.0,0.017453292519943295,0.0,0.0,0.0,0.15707963267948966,0.008039860986173153,0.0026456969790160656,0.005421867128461599,0.0004363323129985824,0.0,0.0,0.0,0.0004363323129985824,0.0,0.0,0.0,0.0004363323129985824,-0.21593230962753296,0.10377263277769089,9.753923416137695,0.0004,0.0,0.0,0.0,0.0004,0.0,0.0,0.0,0.0004
2025/05/07 10:42:12.898366002,1746607332,897934588,mti/imu_base_body,0.947241626098005,0.3201631400112373,0.010432739041749003,-0.01095552469939588,0.017453292519943295,0.0,0.0,0.0,0.017453292519943295,0.0,0.0,0.0,0.15707963267948966,0.013513565994799137,0.0008687217487022281,0.005980369634926319,0.0004363323129985824,0.0,0.0,0.0,0.0004363323129985824,0.0,0.0,0.0,0.0004363323129985824,-0.2199341058731079,0.10992968082427979,9.752126693725586,0.0004,0.0,0.0,0.0,0.0004,0.0,0.0,0.0,0.0004
2025/05/07 10:42:12.948449086,1746607332,948050650,mti/imu_base_body,0.9472493992378878,0.3201393378078726,0.010446369240557944,-0.010966011174862155,0.017453292519943295,0.0,0.0,0.0,0.017453292519943295,0.0,0.0,0.0,0.15707963267948966,0.014562377706170082,0.004819054622203112,0.008329194039106369,0.0004363323129985824,0.0,0.0,0.0,0.0004363323129985824,0.0,0.0,0.0,0.0004363323129985824,-0.20577915012836456,0.09843454509973526,9.772391319274902,0.0004,0.0,0.0,0.0,0.0004,0.0,0.0,0.0,0.0004
2025/05/07 10:42:12.998384264,1746607332,997942349,mti/imu_base_body,0.9472550257102847,0.32012309775215125,0.010432451073802541,-0.010967338636473136,0.017453292519943295,0.0,0.0,0.0,0.017453292519943295,0.0,0.0,0.0,0.15707963267948966,0.005744466558098793,0.005409185774624348,0.006954298820346594,0.0004363323129985824,0.0,0.0,0.0,0.0004363323129985824,0.0,0.0,0.0,0.0004363323129985824,-0.23117570579051971,0.12726683914661407,9.764860153198242,0.0004,0.0,0.0,0.0,0.0004,0.0,0.0,0.0,0.0004
2025/05/07 10:42:13.48186466,1746607333,47827216,mti/imu_base_body,0.947259617361894,0.3201091856581374,0.01045893237117731,-0.010951589215145148,0.017453292519943295,0.0,0.0,0.0,0.017453292519943295,0.0,0.0,0.0,0.15707963267948966,0.007837197743356228,0.0019463994540274143,0.010085239075124264,0.0004363323129985824,0.0,0.0,0.0,0.0004363323129985824,0.0,0.0,0.0,0.0004363323129985824,-0.21547311544418335,0.1046731173992157,9.740242004394531,0.0004,0.0,0.0,0.0,0.0004,0.0,0.0,0.0,0.0004
2025/05/07 10:42:13.98778311,1746607333,98109988,mti/imu_base_body,0.9472613158733255,0.3201042047144288,0.01044361724170431,-0.010964872684511491,0.017453292519943295,0.0,0.0,0.0,0.017453292519943295,0.0,0.0,0.0,0.15707963267948966,0.01352571602910757,0.0022330270148813725,0.0021145655773580074,0.0004363323129985824,0.0,0.0,0.0,0.0004363323129985824,0.0,0.0,0.0,0.0004363323129985824,-0.21823318302631378,0.10662926733493805,9.76448917388916,0.0004,0.0,0.0,0.0,0.0004,0.0,0.0,0.0,0.0004
2025/05/07 10:42:13.148198124,1746607333,147802267,mti/imu_base_body,0.9472695776841116,0.3200791011753182,0.010445392516317688,-0.01098225660533142,0.017453292519943295,0.0,0.0,0.0,0.017453292519943295,0.0,0.0,0.0,0.15707963267948966,0.01609998568892479,0.006199080962687731,0.00838223285973072,0.0004363323129985824,0.0,0.0,0.0,0.0004363323129985824,0.0,0.0,0.0,0.0004363323129985824,-0.22208639979362488,0.12082863599061966,9.792218208312988,0.0004,0.0,0.0,0.0,0.0004,0.0,0.0,0.0,0.0004
2025/05/07 10:42:13.198313381,1746607333,197840270,mti/imu_base_body,0.9472604083795269,0.32010440115916605,0.01043020347099732,-0.011049974241472485,0.017453292519943295,0.0,0.0,0.0,0.017453292519943295,0.0,0.0,0.0,0.15707963267948966,0.021374650299549103,0.006968404166400433,-0.0012949904194101691,0.0004363323129985824,0.0,0.0,0.0,0.0004363323129985824,0.0,0.0,0.0,0.0004363323129985824,-0.23069176077842712,0.11765512079000473,9.761250495910645,0.0004,0.0,0.0,0.0,0.0004,0.0,0.0,0.0,0.0004
2025/05/07 10:42:13.249632059,1746607333,248319141,mti/imu_base_body,0.9472733383150503,0.32008000742728104,0.010288392526529836,-0.010777770735720888,0.017453292519943295,0.0,0.0,0.0,0.017453292519943295,0.0,0.0,0.0,0.15707963267948966,0.0062253172509372234,0.004301774315536022,0.006781838368624449,0.0004363323129985824,0.0,0.0,0.0,0.0004363323129985824,0.0,0.0,0.0,0.0004363323129985824,-0.20657987892627716,0.1075996533036232,9.77935791015625,0.0004,0.0,0.0,0.0,0.0004,0.0,0.0,0.0,0.0004
2025/05/07 10:42:13.299605729,1746607333,297955258,mti/imu_base_body,0.9472732254609952,0.3200822906863831,0.010260852517359873,-0.010746088558033747,0.017453292519943295,0.0,0.0,0.0,0.017453292519943295,0.0,0.0,0.0,0.15707963267948966,0.008441831916570663,-0.006225008051842451,0.001660386216826737,0.0004363323129985824,0.0,0.0,0.0,0.0004363323129985824,0.0,0.0,0.0,0.0004363323129985824,-0.2193019986152649,0.1251792162656784,9.796785354614258,0.0004,0.0,0.0,0.0,0.0004,0.0,0.0,0.0,0.0004
2025/05/07 10:42:13.348587919,1746607333,348030352,mti/imu_base_body,0.947271361691228,0.3200885661758401,0.010239345013722397,-0.01074397211608783,0.017453292519943295,0.0,0.0,0.0,0.017453292519943295,0.0,0.0,0.0,0.15707963267948966,0.01212811004370451,0.0038407077081501484,0.0041841440834105015,0.0004363323129985824,0.0,0.0,0.0,0.0004363323129985824,0.0,0.0,0.0,0.0004363323129985824,-0.22210127115249634,0.1216990053653717,9.804102897644043,0.0004,0.0,0.0,0.0,0.0004,0.0,0.0,0.0,0.0004
2025/05/07 10:42:13.399050966,1746607333,398278141,mti/imu_base_body,0.9472750605879965,0.32007902222134316,0.010201601211614252,-0.010738084305658799,0.017453292519943295,0.0,0.0,0.0,0.017453292519943295,0.0,0.0,0.0,0.15707963267948966,0.008298010565340519,-0.007743466179817915,0.006607194431126118,0.0004363323129985824,0.0,0.0,0.0,0.0004363323129985824,0.0,0.0,0.0,0.0004363323129985824,-0.2094361037015915,0.10829156637191772,9.778295516967773,0.0004,0.0,0.0,0.0,0.0004,0.0,0.0,0.0,0.0004
2025/05/07 10:42:13.448221415,1746607333,447826908,mti/imu_base_body,0.9472689213635893,0.3200982987044413,0.010206504402306586,-0.01070032957763285,0.017453292519943295,0.0,0.0,0.0,0.017453292519943295,0.0,0.0,0.0,0.15707963267948966,0.0026591294445097446,0.003001828445121646,-0.0015642396174371243,0.0004363323129985824,0.0,0.0,0.0,0.0004363323129985824,0.0,0.0,0.0,0.0004363323129985824,-0.22165511548519135,0.11248311400413513,9.774818420410156,0.0004,0.0,0.0,0.0,0.0004,0.0,0.0,0.0,0.0004
2025/05/07 10:42:13.498575188,1746607333,498067940,mti/imu_base_body,0.9472549638642664,0.32014067359356585,0.010196288735718595,-0.010677932458246067,0.017453292519943295,0.0,0.0,0.0,0.017453292519943295,0.0,0.0,0.0,0.15707963267948966,0.007514218334108591,-0.00072731904219836,-0.00659832451492548,0.0004363323129985824,0.0,0.0,0.0,0.0004363323129985824,0.0,0.0,0.0,0.0004363323129985824,-0.20874831080436707,0.10247421264648438,9.805536270141602,0.0004,0.0,0.0,0.0,0.0004,0.0,0.0,0.0,0.0004
2025/05/07 10:42:13.548135372,1746607333,547729637,mti/imu_base_body,0.9472470676196816,0.32016579414227103,0.010167293863797708,-0.01065285326334247,0.017453292519943295,0.0,0.0,0.0,0.017453292519943295,0.0,0.0,0.0,0.15707963267948966,0.005083531606942415,-0.0025257295928895473,0.0027750025037676096,0.0004363323129985824,0.0,0.0,0.0,0.0004363323129985824,0.0,0.0,0.0,0.0004363323129985824,-0.20159506797790527,0.1104186549782753,9.825331687927246,0.0004,0.0,0.0,0.0,0.0004,0.0,0.0,0.0,0.0004
2025/05/07 10:42:13.604358332,1746607333,597764241,mti/imu_base_body,0.9472388959685576,0.32019208389034914,0.010150817796893223,-0.010604917551677825,0.017453292519943295,0.0,0.0,0.0,0.017453292519943295,0.0,0.0,0.0,0.15707963267948966,0.0031094783917069435,-0.0016063626389950514,-0.0016357697313651443,0.0004363323129985824,0.0,0.0,0.0,0.0004363323129985824,0.0,0.0,0.0,0.0004363323129985824,-0.21700353920459747,0.11064434796571732,9.769651412963867,0.0004,0.0,0.0,0.0,0.0004,0.0,0.0,0.0,0.0004
2025/05/07 10:42:13.648438005,1746607333,647876494,mti/imu_base_body,0.9471892955430323,0.3203840831105571,0.009747002691074008,-0.00956418510076788,0.017453292519943295,0.0,0.0,0.0,0.017453292519943295,0.0,0.0,0.0,0.15707963267948966,0.012318387627601624,-0.00399028928950429,1.2861073628300801e-05,0.0004363323129985824,0.0,0.0,0.0,0.0004363323129985824,0.0,0.0,0.0,0.0004363323129985824,-0.21929723024368286,0.11155232787132263,9.817672729492188,0.0004,0.0,0.0,0.0,0.0004,0.0,0.0,0.0,0.0004
2025/05/07 10:42:13.698218125,1746607333,697775306,mti/imu_base_body,0.9471845944134674,0.32039932238884467,0.009751597633536177,-0.009514444921179607,0.017453292519943295,0.0,0.0,0.0,0.017453292519943295,0.0,0.0,0.0,0.15707963267948966,0.001036003464832902,-0.0003079267044086009,0.00390671519562602,0.0004363323129985824,0.0,0.0,0.0,0.0004363323129985824,0.0,0.0,0.0,0.0004363323129985824,-0.21080833673477173,0.10426731407642365,9.835915565490723,0.0004,0.0,0.0,0.0,0.0004,0.0,0.0,0.0,0.0004
2025/05/07 10:42:13.748444267,1746607333,747974291,mti/imu_base_body,0.947182000277173,0.32040894551791566,0.009730822179807678,-0.009469798452748293,0.017453292519943295,0.0,0.0,0.0,0.017453292519943295,0.0,0.0,0.0,0.15707963267948966,-0.0007890131673775613,-0.002317096572369337,0.003327086800709367,0.0004363323129985824,0.0,0.0,0.0,0.0004363323129985824,0.0,0.0,0.0,0.0004363323129985824,-0.22192718088626862,0.10643650591373444,9.828479766845703,0.0004,0.0,0.0,0.0,0.0004,0.0,0.0,0.0,0.0004
2025/05/07 10:42:13.799337421,1746607333,798153342,mti/imu_base_body,0.9471790720293018,0.32041836603988644,0.009734077139616864,-0.009440548515829168,0.017453292519943295,0.0,0.0,0.0,0.017453292519943295,0.0,0.0,0.0,0.15707963267948966,0.00442004669457674,0.003244022373110056,0.0035501394886523485,0.0004363323129985824,0.0,0.0,0.0,0.0004363323129985824,0.0,0.0,0.0,0.0004363323129985824,-0.2320699691772461,0.11384402215480804,9.80483341217041,0.0004,0.0,0.0,0.0,0.0004,0.0,0.0,0.0,0.0004
2025/05/07 10:42:13.848290512,1746607333,847791671,mti/imu_base_body,0.9471861295397483,0.3203985794716417,0.009721377509859347,-0.009417064265260398,0.017453292519943295,0.0,0.0,0.0,0.017453292519943295,0.0,0.0,0.0,0.15707963267948966,0.010265451855957508,-0.0001872097491286695,0.008423189632594585,0.0004363323129985824,0.0,0.0,0.0,0.0004363323129985824,0.0,0.0,0.0,0.0004363323129985824,-0.22704212367534637,0.1093921959400177,9.809996604919434,0.0004,0.0,0.0,0.0,0.0004,0.0,0.0,0.0,0.0004
2025/05/07 10:42:13.898199380,1746607333,897771227,mti/imu_base_body,0.9471932899431014,0.3203791395414691,0.009709053829560332,-0.009370843460773853,0.017453292519943295,0.0,0.0,0.0,0.017453292519943295,0.0,0.0,0.0,0.15707963267948966,-0.000266179908066988,-0.004188074264675379,0.007509747985750437,0.0004363323129985824,0.0,0.0,0.0,0.0004363323129985824,0.0,0.0,0.0,0.0004363323129985824,-0.21979059278964996,0.11188533157110214,9.836278915405273,0.0004,0.0,0.0,0.0,0.0004,0.0,0.0,0.0,0.0004
2025/05/07 10:42:13.948278624,1746607333,947917861,mti/imu_base_body,0.9471908515488666,0.32038723156824644,0.009676719116295801,-0.009374097146506296,0.017453292519943295,0.0,0.0,0.0,0.017453292519943295,0.0,0.0,0.0,0.15707963267948966,0.013654673472046852,-0.0016979443607851863,0.0044987378641963005,0.0004363323129985824,0.0,0.0,0.0,0.0004363323129985824,0.0,0.0,0.0,0.0004363323129985824,-0.21428817510604858,0.12099654227495193,9.808052062988281,0.0004,0.0,0.0,0.0,0.0004,0.0,0.0,0.0,0.0004
2025/05/07 10:42:13.998311158,1746607333,997834103,mti/imu_base_body,0.9471832227530528,0.32041076022139525,0.009639831144237557,-0.009378748583834917,0.017453292519943295,0.0,0.0,0.0,0.017453292519943295,0.0,0.0,0.0,0.15707963267948966,0.015075569041073322,-0.005932569038122892,-0.0027754674665629864,0.0004363323129985824,0.0,0.0,0.0,0.0004363323129985824,0.0,0.0,0.0,0.0004363323129985824,-0.22607974708080292,0.11662757396697998,9.806389808654785,0.0004,0.0,0.0,0.0,0.0004,0.0,0.0,0.0,0.0004
2025/05/07 10:42:14.48341004,1746607334,47835595,mti/imu_base_body,0.9471579641038126,0.320507775029214,0.008804433791057048,-0.009436054586660839,0.017453292519943295,0.0,0.0,0.0,0.017453292519943295,0.0,0.0,0.0,0.15707963267948966,0.016148250550031662,-0.004693185444921255,0.011305103078484535,0.0004363323129985824,0.0,0.0,0.0,0.0004363323129985824,0.0,0.0,0.0,0.0004363323129985824,-0.193210631608963,0.1331363171339035,9.827836990356445,0.0004,0.0,0.0,0.0,0.0004,0.0,0.0,0.0,0.0004
2025/05/07 10:42:14.98132198,1746607334,97755106,mti/imu_base_body,0.9471611325601408,0.32049866148433376,0.008782562293908969,-0.009447939124252324,0.017453292519943295,0.0,0.0,0.0,0.017453292519943295,0.0,0.0,0.0,0.15707963267948966,0.012601634487509727,0.006069817114621401,0.002290784614160657,0.0004363323129985824,0.0,0.0,0.0,0.0004363323129985824,0.0,0.0,0.0,0.0004363323129985824,-0.21879412233829498,0.13576385378837585,9.833388328552246,0.0004,0.0,0.0,0.0,0.0004,0.0,0.0,0.0,0.0004
2025/05/07 10:42:14.148147163,1746607334,147803003,mti/imu_base_body,0.9471653585691757,0.32048630280637364,0.008760827012756198,-0.009463675294443013,0.017453292519943295,0.0,0.0,0.0,0.017453292519943295,0.0,0.0,0.0,0.15707963267948966,0.0171803031116724,-0.00193163868971169,0.008470551110804081,0.0004363323129985824,0.0,0.0,0.0,0.0004363323129985824,0.0,0.0,0.0,0.0004363323129985824,-0.28812748193740845,0.09756935387849808,9.930816650390625,0.0004,0.0,0.0,0.0,0.0004,0.0,0.0,0.0,0.0004
2025/05/07 10:42:14.198256405,1746607334,197867909,mti/imu_base_body,0.9471637984776198,0.3204926857700902,0.0087168357528824,-0.009444257290976645,0.017453292519943295,0.0,0.0,0.0,0.017453292519943295,0.0,0.0,0.0,0.15707963267948966,0.008847287856042385,-0.01075486559420824,0.003047254867851734,0.0004363323129985824,0.0,0.0,0.0,0.0004363323129985824,0.0,0.0,0.0,0.0004363323129985824,-0.2803364396095276,0.14534491300582886,9.714646339416504,0.0004,0.0,0.0,0.0,0.0004,0.0,0.0,0.0,0.0004
2025/05/07 10:42:14.248323968,1746607334,247906131,mti/imu_base_body,0.947148648541007,0.3205379045851852,0.008675819096423336,-0.00946675520380192,0.017453292519943295,0.0,0.0,0.0,0.017453292519943295,0.0,0.0,0.0,0.15707963267948966,0.016408035531640053,0.002446084748953581,-0.007883434183895588,0.0004363323129985824,0.0,0.0,0.0,0.0004363323129985824,0.0,0.0,0.0,0.0004363323129985824,-0.2217555195093155,0.13740698993206024,9.888839721679688,0.0004,0.0,0.0,0.0,0.0004,0.0,0.0,0.0,0.0004
2025/05/07 10:42:14.298460573,1746607334,297932181,mti/imu_base_body,0.9471537277254792,0.3205225453246149,0.008659812130489095,-0.009493242239799617,0.017453292519943295,0.0,0.0,0.0,0.017453292519943295,0.0,0.0,0.0,0.15707963267948966,0.014244490303099155,0.0036013517528772354,0.013164596632122993,0.0004363323129985824,0.0,0.0,0.0,0.0004363323129985824,0.0,0.0,0.0,0.0004363323129985824,-0.11356157809495926,0.10171390324831009,9.867238998413086,0.0004,0.0,0.0,0.0,0.0004,0.0,0.0,0.0,0.0004
2025/05/07 10:42:14.349257166,1746607334,347972832,mti/imu_base_body,0.9471513306533961,0.32053017403642364,0.008637484653022673,-0.009495168905802523,0.017453292519943295,0.0,0.0,0.0,0.017453292519943295,0.0,0.0,0.0,0.15707963267948966,0.012827193364501,0.0028996330220252275,0.0019375120755285025,0.0004363323129985824,0.0,0.0,0.0,0.0004363323129985824,0.0,0.0,0.0,0.0004363323129985824,-0.15206126868724823,0.11355138570070267,9.906777381896973,0.0004,0.0,0.0,0.0,0.0004,0.0,0.0,0.0,0.0004
2025/05/07 10:42:14.399283113,1746607334,398277630,mti/imu_base_body,0.9471617991742298,0.3204984855315114,0.008609251291225568,-0.009546085545819072,0.017453292519943295,0.0,0.0,0.0,0.017453292519943295,0.0,0.0,0.0,0.15707963267948966,0.02185245230793953,-0.003268816974014044,0.008206059224903584,0.0004363323129985824,0.0,0.0,0.0,0.0004363323129985824,0.0,0.0,0.0,0.0004363323129985824,-0.2605148255825043,0.15590022504329681,9.857919692993164,0.0004,0.0,0.0,0.0,0.0004,0.0,0.0,0.0,0.0004
2025/05/07 10:42:14.449028395,1746607334,448420503,mti/imu_base_body,0.9469402376239884,0.321138226016138,0.00783975428285056,-0.010628471791210719,0.017453292519943295,0.0,0.0,0.0,0.017453292519943295,0.0,0.0,0.0,0.15707963267948966,0.021161146461963654,0.00448897248134017,-0.006914242170751095,0.0004363323129985824,0.0,0.0,0.0,0.0004363323129985824,0.0,0.0,0.0,0.0004363323129985824,-0.22928276658058167,0.1504315584897995,9.782496452331543,0.0004,0.0,0.0,0.0,0.0004,0.0,0.0,0.0,0.0004
2025/05/07 10:42:14.499739634,1746607334,498266296,mti/imu_base_body,0.946947290294056,0.32111652986632044,0.007808325928978482,-0.01067865616751771,0.017453292519943295,0.0,0.0,0.0,0.017453292519943295,0.0,0.0,0.0,0.15707963267948966,0.018274454399943352,0.000351291848346591,0.003899734001606703,0.0004363323129985824,0.0,0.0,0.0,0.0004363323129985824,0.0,0.0,0.0,0.0004363323129985824,-0.20599016547203064,0.11149800568819046,9.906954765319824,0.0004,0.0,0.0,0.0,0.0004,0.0,0.0,0.0,0.0004
2025/05/07 10:42:14.548194667,1746607334,547807088,mti/imu_base_body,0.9469326479243856,0.32115935368020204,0.007767709663666619,-0.010718793085390654,0.017453292519943295,0.0,0.0,0.0,0.017453292519943295,0.0,0.0,0.0,0.15707963267948966,0.019129395484924316,-0.0003590641135815531,0.0023172139190137386,0.0004363323129985824,0.0,0.0,0.0,0.0004363323129985824,0.0,0.0,0.0,0.0004363323129985824,-0.23671814799308777,0.12866327166557312,9.932795524597168,0.0004,0.0,0.0,0.0,0.0004,0.0,0.0,0.0,0.0004
2025/05/07 10:42:14.598281402,1746607334,597876699,mti/imu_base_body,0.9469353856630456,0.3211490970853064,0.007774874114120199,-0.010778875311503696,0.017453292519943295,0.0,0.0,0.0,0.017453292519943295,0.0,0.0,0.0,0.15707963267948966,0.02054092288017273,0.007588856853544712,0.002627428388223052,0.0004363323129985824,0.0,0.0,0.0,0.0004363323129985824,0.0,0.0,0.0,0.0004363323129985824,-0.23277662694454193,0.12483116239309311,9.779974937438965,0.0004,0.0,0.0,0.0,0.0004,0.0,0.0,0.0,0.0004
2025/05/07 10:42:14.648269089,1746607334,647814663,mti/imu_base_body,0.9469273956687349,0.3211718071384898,0.007713799292249554,-0.01084780770030461,0.017453292519943295,0.0,0.0,0.0,0.017453292519943295,0.0,0.0,0.0,0.15707963267948966,0.024690909311175346,-1.1178770364494994e-05,0.006349482107907534,0.0004363323129985824,0.0,0.0,0.0,0.0004363323129985824,0.0,0.0,0.0,0.0004363323129985824,-0.23201173543930054,0.13995490968227386,9.81899356842041,0.0004,0.0,0.0,0.0,0.0004,0.0,0.0,0.0,0.0004
2025/05/07 10:42:14.698425428,1746607334,697917671,mti/imu_base_body,0.9469192749243256,0.32119556296286095,0.007706256720721372,-0.01085867013564389,0.017453292519943295,0.0,0.0,0.0,0.017453292519943295,0.0,0.0,0.0,0.15707963267948966,0.014949275180697441,-0.002457347931340337,-0.00464306166395545,0.0004363323129985824,0.0,0.0,0.0,0.0004363323129985824,0.0,0.0,0.0,0.0004363323129985824,-0.2220110446214676,0.12524110078811646,9.882126808166504,0.0004,0.0,0.0,0.0,0.0004,0.0,0.0,0.0,0.0004
2025/05/07 10:42:14.748411877,1746607334,747822561,mti/imu_base_body,0.9469084727057872,0.32122745760744265,0.00765133042127808,-0.010895959794186387,0.017453292519943295,0.0,0.0,0.0,0.017453292519943295,0.0,0.0,0.0,0.15707963267948966,0.022973904386162758,-0.001851236680522561,0.001239296398125589,0.0004363323129985824,0.0,0.0,0.0,0.0004363323129985824,0.0,0.0,0.0,0.0004363323129985824,-0.22614656388759613,0.1195809468626976,9.89653491973877,0.0004,0.0,0.0,0.0,0.0004,0.0,0.0,0.0,0.0004
2025/05/07 10:42:14.798207300,1746607334,797781125,mti/imu_base_body,0.946909005842285,0.3212257152448005,0.007607687449705792,-0.010931496325267069,0.017453292519943295,0.0,0.0,0.0,0.017453292519943295,0.0,0.0,0.0,0.15707963267948966,0.01508666854351759,-3.943333013012307e-06,-0.004039041697978973,0.0004363323129985824,0.0,0.0,0.0,0.0004363323129985824,0.0,0.0,0.0,0.0004363323129985824,-0.22998552024364471,0.12681907415390015,9.853811264038086,0.0004,0.0,0.0,0.0,0.0004,0.0,0.0,0.0,0.0004
2025/05/07 10:42:14.848218624,1746607334,847809448,mti/imu_base_body,0.9466612722046621,0.3219131183299419,0.007362043502635893,-0.012254806012685804,0.017453292519943295,0.0,0.0,0.0,0.017453292519943295,0.0,0.0,0.0,0.15707963267948966,0.009102623909711838,-0.0009093317785300314,0.007215678691864014,0.0004363323129985824,0.0,0.0,0.0,0.0004363323129985824,0.0,0.0,0.0,0.0004363323129985824,-0.25948017835617065,0.14552868902683258,9.835481643676758,0.0004,0.0,0.0,0.0,0.0004,0.0,0.0,0.0,0.0004
2025/05/07 10:42:14.898275402,1746607334,897813895,mti/imu_base_body,0.9466620110904033,0.32191022071555897,0.007376210138908724,-0.012265320261618794,0.017453292519943295,0.0,0.0,0.0,0.017453292519943295,0.0,0.0,0.0,0.15707963267948966,0.010744652710855007,0.011715525761246681,-0.0002208178339060396,0.0004363323129985824,0.0,0.0,0.0,0.0004363323129985824,0.0,0.0,0.0,0.0004363323129985824,-0.24595466256141663,0.14480572938919067,9.880949974060059,0.0004,0.0,0.0,0.0,0.0004,0.0,0.0,0.0,0.0004
2025/05/07 10:42:14.948207831,1746607334,947938154,mti/imu_base_body,0.9466475923405766,0.3219515016860404,0.007389224248975689,-0.012286815815792477,0.017453292519943295,0.0,0.0,0.0,0.017453292519943295,0.0,0.0,0.0,0.15707963267948966,0.011937328614294529,0.009032702073454857,-0.004905149806290865,0.0004363323129985824,0.0,0.0,0.0,0.0004363323129985824,0.0,0.0,0.0,0.0004363323129985824,-0.22474706172943115,0.15101605653762817,9.832188606262207,0.0004,0.0,0.0,0.0,0.0004,0.0,0.0,0.0,0.0004
2025/05/07 10:42:14.998813758,1746607334,998475896,mti/imu_base_body,0.9466287917763025,0.32200621980015676,0.007384412433906702,-0.012304285560588733,0.017453292519943295,0.0,0.0,0.0,0.017453292519943295,0.0,0.0,0.0,0.15707963267948966,0.01587723195552826,0.0035608098842203617,-0.002857621992006898,0.0004363323129985824,0.0,0.0,0.0,0.0004363323129985824,0.0,0.0,0.0,0.0004363323129985824,-0.22531387209892273,0.13344590365886688,9.817309379577637,0.0004,0.0,0.0,0.0,0.0004,0.0,0.0,0.0,0.0004
2025/05/07 10:42:15.48212095,1746607335,47798691,mti/imu_base_body,0.9466353579177729,0.32198550901827017,0.0074130283263358614,-0.012323884662251169,0.017453292519943295,0.0,0.0,0.0,0.017453292519943295,0.0,0.0,0.0,0.15707963267948966,0.011795486323535442,0.009871367365121841,0.009178579784929752,0.0004363323129985824,0.0,0.0,0.0,0.0004363323129985824,0.0,0.0,0.0,0.0004363323129985824,-0.2544812858104706,0.12639279663562775,9.831503868103027,0.0004,0.0,0.0,0.0,0.0004,0.0,0.0,0.0,0.0004
2025/05/07 10:42:15.98878144,1746607335,98451633,mti/imu_base_body,0.946622156823209,0.32202378647656726,0.007414567235195305,-0.012336828903115542,0.017453292519943295,0.0,0.0,0.0,0.017453292519943295,0.0,0.0,0.0,0.15707963267948966,0.01032822486013174,0.00761566124856472,-0.00571740698069334,0.0004363323129985824,0.0,0.0,0.0,0.0004363323129985824,0.0,0.0,0.0,0.0004363323129985824,-0.2433016151189804,0.15473219752311707,9.861385345458984,0.0004,0.0,0.0,0.0,0.0004,0.0,0.0,0.0,0.0004
2025/05/07 10:42:15.148211369,1746607335,147807048,mti/imu_base_body,0.9466129611670813,0.32205011367398373,0.007456733029844526,-0.01232976745869514,0.017453292519943295,0.0,0.0,0.0,0.017453292519943295,0.0,0.0,0.0,0.15707963267948966,0.007095247507095337,0.01052949856966734,-0.0020984611473977566,0.0004363323129985824,0.0,0.0,0.0,0.0004363323129985824,0.0,0.0,0.0,0.0004363323129985824,-0.235961452126503,0.13234642148017883,9.836647987365723,0.0004,0.0,0.0,0.0,0.0004,0.0,0.0,0.0,0.0004
2025/05/07 10:42:15.198666748,1746607335,197903670,mti/imu_base_body,0.9466062705400098,0.3220703374364129,0.007458463004002358,-0.012314123904958478,0.017453292519943295,0.0,0.0,0.0,0.017453292519943295,0.0,0.0,0.0,0.15707963267948966,0.006719354074448347,0.002865460002794862,0.0012426814064383507,0.0004363323129985824,0.0,0.0,0.0,0.0004363323129985824,0.0,0.0,0.0,0.0004363323129985824,-0.2002851516008377,0.14901317656040192,9.819931983947754,0.0004,0.0,0.0,0.0,0.0004,0.0,0.0,0.0,0.0004
2025/05/07 10:42:15.250437609,1746607335,248568349,mti/imu_base_body,0.9462606782908473,0.3230786412899357,0.008599899604112862,-0.011703076074006863,0.017453292519943295,0.0,0.0,0.0,0.017453292519943295,0.0,0.0,0.0,0.15707963267948966,0.001797698438167572,0.011660107411444187,-0.006209810264408588,0.0004363323129985824,0.0,0.0,0.0,0.0004363323129985824,0.0,0.0,0.0,0.0004363323129985824,-0.20287193357944489,0.10290951281785965,9.8289213180542,0.0004,0.0,0.0,0.0,0.0004,0.0,0.0,0.0,0.0004
2025/05/07 10:42:15.299422108,1746607335,297915732,mti/imu_base_body,0.9462377873090155,0.32314641144259587,0.008638478838535989,-0.01165432639266651,0.017453292519943295,0.0,0.0,0.0,0.017453292519943295,0.0,0.0,0.0,0.15707963267948966,-0.0005957069806754589,0.008101844228804111,-0.006203625816851854,0.0004363323129985824,0.0,0.0,0.0,0.0004363323129985824,0.0,0.0,0.0,0.0004363323129985824,-0.22063660621643066,0.10342679172754288,9.830748558044434,0.0004,0.0,0.0,0.0,0.0004,0.0,0.0,0.0,0.0004
2025/05/07 10:42:15.348771762,1746607335,348020655,mti/imu_base_body,0.9462198252611893,0.3232000182579704,0.008672203287238474,-0.011601007321630804,0.017453292519943295,0.0,0.0,0.0,0.017453292519943295,0.0,0.0,0.0,0.15707963267948966,-0.005833041854202747,0.008627391420304775,-0.009627657011151314,0.0004363323129985824,0.0,0.0,0.0,0.0004363323129985824,0.0,0.0,0.0,0.0004363323129985824,-0.2208845615386963,0.11163441091775894,9.796062469482422,0.0004,0.0,0.0,0.0,0.0004,0.0,0.0,0.0,0.0004
2025/05/07 10:42:15.398382076,1746607335,397929077,mti/imu_base_body,0.9462148373794236,0.32321633604317535,0.008694932086048981,-0.011536021579166373,0.017453292519943295,0.0,0.0,0.0,0.017453292519943295,0.0,0.0,0.0,0.15707963267948966,-0.0016655382933095098,0.0027694038581103086,0.0018443900626152754,0.0004363323129985824,0.0,0.0,0.0,0.0004363323129985824,0.0,0.0,0.0,0.0004363323129985824,-0.239698126912117,0.13391084969043732,9.743154525756836,0.0004,0.0,0.0,0.0,0.0004,0.0,0.0,0.0,0.0004
2025/05/07 10:42:15.448560460,1746607335,448046016,mti/imu_base_body,0.9462053550366059,0.32324603311260786,0.00868893964873607,-0.011486100504249802,0.017453292519943295,0.0,0.0,0.0,0.017453292519943295,0.0,0.0,0.0,0.15707963267948966,-0.00193566654343158,-0.0008858487708494067,0.002307860879227519,0.0004363323129985824,0.0,0.0,0.0,0.0004363323129985824,0.0,0.0,0.0,0.0004363323129985824,-0.21426993608474731,0.12152662873268127,9.867124557495117,0.0004,0.0,0.0,0.0,0.0004,0.0,0.0,0.0,0.0004
2025/05/07 10:42:15.498588066,1746607335,498077465,mti/imu_base_body,0.9462023397086365,0.3232557275835464,0.008732061960722851,-0.011428823572360473,0.017453292519943295,0.0,0.0,0.0,0.017453292519943295,0.0,0.0,0.0,0.15707963267948966,0.004387352149933577,0.007744496688246727,0.0019167917780578136,0.0004363323129985824,0.0,0.0,0.0,0.0004363323129985824,0.0,0.0,0.0,0.0004363323129985824,-0.20595481991767883,0.09914015978574753,9.812725067138672,0.0004,0.0,0.0,0.0,0.0004,0.0,0.0,0.0,0.0004
2025/05/07 10:42:15.548544991,1746607335,548189201,mti/imu_base_body,0.9461977086288513,0.32327007395781954,0.008759546517842918,-0.011385333267793885,0.017453292519943295,0.0,0.0,0.0,0.017453292519943295,0.0,0.0,0.0,0.15707963267948966,-0.005817392375320196,0.005810346454381943,0.0011873288312926888,0.0004363323129985824,0.0,0.0,0.0,0.0004363323129985824,0.0,0.0,0.0,0.0004363323129985824,-0.21703214943408966,0.12258052825927734,9.74685001373291,0.0004,0.0,0.0,0.0,0.0004,0.0,0.0,0.0,0.0004
2025/05/07 10:42:15.660905433,1746607335,599732554,mti/imu_base_body,0.9461960153260768,0.3232752683789636,0.008829365390536711,-0.011324475368157038,0.017453292519943295,0.0,0.0,0.0,0.017453292519943295,0.0,0.0,0.0,0.15707963267948966,-0.0008313292055390775,0.013005436398088932,0.0006631636060774326,0.0004363323129985824,0.0,0.0,0.0,0.0004363323129985824,0.0,0.0,0.0,0.0004363323129985824,-0.21878185868263245,0.11726545542478561,9.825699806213379,0.0004,0.0,0.0,0.0,0.0004,0.0,0.0,0.0,0.0004
2025/05/07 10:42:15.661084707,1746607335,647989841,mti/imu_base_body,0.9458993782933134,0.32416318649816284,0.010170644114474969,-0.009442068733972972,0.017453292519943295,0.0,0.0,0.0,0.017453292519943295,0.0,0.0,0.0,0.15707963267948966,-0.005541674792766571,-0.0029590886551886797,-0.0010673059150576591,0.0004363323129985824,0.0,0.0,0.0,0.0004363323129985824,0.0,0.0,0.0,0.0004363323129985824,-0.21279090642929077,0.09153270721435547,9.777594566345215,0.0004,0.0,0.0,0.0,0.0004,0.0,0.0,0.0,0.0004
2025/05/07 10:42:15.703954325,1746607335,698211095,mti/imu_base_body,0.9458825775056369,0.3242149613309294,0.010173805033142046,-0.009343559901033676,0.017453292519943295,0.0,0.0,0.0,0.017453292519943295,0.0,0.0,0.0,0.15707963267948966,-0.006588084157556295,-0.00028444192139431834,-0.007311304099857807,0.0004363323129985824,0.0,0.0,0.0,0.0004363323129985824,0.0,0.0,0.0,0.0004363323129985824,-0.2238200306892395,0.08607765287160873,9.758758544921875,0.0004,0.0,0.0,0.0,0.0004,0.0,0.0,0.0,0.0004
2025/05/07 10:42:15.751144093,1746607335,750574123,mti/imu_base_body,0.9458849762347386,0.32420858783440676,0.010194216760889847,-0.009299529690251118,0.017453292519943295,0.0,0.0,0.0,0.017453292519943295,0.0,0.0,0.0,0.15707963267948966,0.002329454058781266,0.004429432563483715,-0.00031977324397303164,0.0004363323129985824,0.0,0.0,0.0,0.0004363323129985824,0.0,0.0,0.0,0.0004363323129985824,-0.2124149054288864,0.09488425403833389,9.777704238891602,0.0004,0.0,0.0,0.0,0.0004,0.0,0.0,0.0,0.0004
2025/05/07 10:42:15.800206057,1746607335,797999734,mti/imu_base_body,0.9458629282491142,0.3242734886596906,0.010229889315751946,-0.009239852870682694,0.017453292519943295,0.0,0.0,0.0,0.017453292519943295,0.0,0.0,0.0,0.15707963267948966,-0.0054585994221270084,0.010708712972700596,-0.0057575274258852005,0.0004363323129985824,0.0,0.0,0.0,0.0004363323129985824,0.0,0.0,0.0,0.0004363323129985824,-0.19759134948253632,0.10254145413637161,9.754522323608398,0.0004,0.0,0.0,0.0,0.0004,0.0,0.0,0.0,0.0004
2025/05/07 10:42:15.848564032,1746607335,847951668,mti/imu_base_body,0.9458526686448451,0.32430387023072715,0.010285212024220631,-0.00916206223582831,0.017453292519943295,0.0,0.0,0.0,0.017453292519943295,0.0,0.0,0.0,0.15707963267948966,-0.007308993022888899,0.009923478588461876,-0.003365727374330163,0.0004363323129985824,0.0,0.0,0.0,0.0004363323129985824,0.0,0.0,0.0,0.0004363323129985824,-0.2012624442577362,0.09077318757772446,9.759810447692871,0.0004,0.0,0.0,0.0,0.0004,0.0,0.0,0.0,0.0004
2025/05/07 10:42:15.899333326,1746607335,898309550,mti/imu_base_body,0.9458369010234713,0.32434830498070205,0.010367248082616217,-0.00912435672553835,0.017453292519943295,0.0,0.0,0.0,0.017453292519943295,0.0,0.0,0.0,0.15707963267948966,-0.0022324486635625362,0.015333996154367924,-0.0015799844404682517,0.0004363323129985824,0.0,0.0,0.0,0.0004363323129985824,0.0,0.0,0.0,0.0004363323129985824,-0.2088211476802826,0.09129874408245087,9.746127128601074,0.0004,0.0,0.0,0.0,0.0004,0.0,0.0,0.0,0.0004
2025/05/07 10:42:15.948543328,1746607335,947970579,mti/imu_base_body,0.9458323176013843,0.32436143937823864,0.010406164103330631,-0.009088199707634081,0.017453292519943295,0.0,0.0,0.0,0.017453292519943295,0.0,0.0,0.0,0.15707963267948966,0.0020737098529934883,0.007341776508837938,-0.0020452337339520454,0.0004363323129985824,0.0,0.0,0.0,0.0004363323129985824,0.0,0.0,0.0,0.0004363323129985824,-0.1994590312242508,0.10162285715341568,9.762928009033203,0.0004,0.0,0.0,0.0,0.0004,0.0,0.0,0.0,0.0004
2025/05/07 10:42:15.998464654,1746607335,997933488,mti/imu_base_body,0.9458085430853747,0.3244320054188387,0.010417557244118553,-0.00903040351793509,0.017453292519943295,0.0,0.0,0.0,0.017453292519943295,0.0,0.0,0.0,0.15707963267948966,0.0016661888221278787,0.0038902221713215113,-0.009651802480220795,0.0004363323129985824,0.0,0.0,0.0,0.0004363323129985824,0.0,0.0,0.0,0.0004363323129985824,-0.21190673112869263,0.11385070532560349,9.788759231567383,0.0004,0.0,0.0,0.0,0.0004,0.0,0.0,0.0,0.0004
2025/05/07 10:42:16.48145877,1746607336,47762583,mti/imu_base_body,0.945414333033197,0.32559148846031233,0.01123403963884076,-0.007464441773260499,0.017453292519943295,0.0,0.0,0.0,0.017453292519943295,0.0,0.0,0.0,0.15707963267948966,0.010785563848912716,0.0009533530101180077,-0.005198343191295862,0.0004363323129985824,0.0,0.0,0.0,0.0004363323129985824,0.0,0.0,0.0,0.0004363323129985824,-0.21789199113845825,0.0664115846157074,9.716859817504883,0.0004,0.0,0.0,0.0,0.0004,0.0,0.0,0.0,0.0004
2025/05/07 10:42:16.98103843,1746607336,97730626,mti/imu_base_body,0.9453912636297639,0.325658307759293,0.011274140328339122,-0.007410735437780338,0.017453292519943295,0.0,0.0,0.0,0.017453292519943295,0.0,0.0,0.0,0.15707963267948966,-0.005404668860137463,0.01227222103625536,-0.002379574114456773,0.0004363323129985824,0.0,0.0,0.0,0.0004363323129985824,0.0,0.0,0.0,0.0004363323129985824,-0.21000681817531586,0.07381623238325119,9.7589750289917,0.0004,0.0,0.0,0.0,0.0004,0.0,0.0,0.0,0.0004
2025/05/07 10:42:16.149413425,1746607336,148075801,mti/imu_base_body,0.9453782989415762,0.3256956050758584,0.011293458702723459,-0.007396114867421501,0.017453292519943295,0.0,0.0,0.0,0.017453292519943295,0.0,0.0,0.0,0.15707963267948966,0.007549788802862167,0.0007334417314268649,-0.003765357658267021,0.0004363323129985824,0.0,0.0,0.0,0.0004363323129985824,0.0,0.0,0.0,0.0004363323129985824,-0.21263687312602997,0.07575325667858124,9.818397521972656,0.0004,0.0,0.0,0.0,0.0004,0.0,0.0,0.0,0.0004
