time,header_stamp_secs,header_stamp_nsecs,header_frame_id,orientation_x,orientation_y,orientation_z,orientation_w,orientation_covariance_0,orientation_covariance_1,orientation_covariance_2,orientation_covariance_3,orientation_covariance_4,orientation_covariance_5,orientation_covariance_6,orientation_covariance_7,orientation_covariance_8,angular_velocity_x,angular_velocity_y,angular_velocity_z,angular_velocity_covariance_0,angular_velocity_covariance_1,angular_velocity_covariance_2,angular_velocity_covariance_3,angular_velocity_covariance_4,angular_velocity_covariance_5,angular_velocity_covariance_6,angular_velocity_covariance_7,angular_velocity_covariance_8,linear_acceleration_x,linear_acceleration_y,linear_acceleration_z,linear_acceleration_covariance_0,linear_acceleration_covariance_1,linear_acceleration_covariance_2,linear_acceleration_covariance_3,linear_acceleration_covariance_4,linear_acceleration_covariance_5,linear_acceleration_covariance_6,linear_acceleration_covariance_7,linear_acceleration_covariance_8
2025/05/20 13:02:00.388408044,1747738919,418548730,mA1/imu,0.6667848029908855,-0.7452497759977048,-0.0008621017892366275,0.00023378683006393787,0.0,0.0,0.0,0.0,0.0,0.0,0.0,0.0,0.0,-0.000728333575210895,3.2791988652335907e-05,-8.882365037012576e-06,0.0,0.0,0.0,0.0,0.0,0.0,0.0,0.0,0.0,0.00819995761083456,-0.06680281042673722,9.80985151476778,0.0,0.0,0.0,0.0,0.0,0.0,0.0,0.0,0.0
2025/05/20 13:02:00.388656547,1747738919,468316864,mA1/imu,0.6667849685425239,-0.745249632874748,-0.0008583969139117035,0.00023147470023298402,0.0,0.0,0.0,0.0,0.0,0.0,0.0,0.0,0.0,0.000860847353902837,2.287870596998198e-05,-8.74267672216923e-06,0.0,0.0,0.0,0.0,0.0,0.0,0.0,0.0,0.0,0.0077917076059316834,-0.5853391028044872,9.80880158438799,0.0,0.0,0.0,0.0,0.0,0.0,0.0,0.0,0.0
2025/05/20 13:02:00.388703168,1747738919,519215719,mA1/imu,0.6667851319974678,-0.7452494907661659,-0.0008552886605640644,0.00022965451637601045,0.0,0.0,0.0,0.0,0.0,0.0,0.0,0.0,0.0,0.0007221965548493792,2.6675257196040247e-05,-8.641997832266655e-06,0.0,0.0,0.0,0.0,0.0,0.0,0.0,0.0,0.0,0.007435519961638875,0.03535002972420699,9.810250174731813,0.0,0.0,0.0,0.0,0.0,0.0,0.0,0.0,0.0
2025/05/20 13:02:00.388743191,1747738919,569288707,mA1/imu,0.6667852918424111,-0.7452493431854255,-0.0008582974278098374,0.00023321631154688514,0.0,0.0,0.0,0.0,0.0,0.0,0.0,0.0,0.0,-0.000876580315792822,3.020554405898483e-05,-8.582464974250077e-06,0.0,0.0,0.0,0.0,0.0,0.0,0.0,0.0,0.0,0.007843417099545238,0.5538901403478259,9.811061344485399,0.0,0.0,0.0,0.0,0.0,0.0,0.0,0.0,0.0
2025/05/20 13:02:00.392184099,1747738919,620698023,mA1/imu,0.6667854499100987,-0.7452491976954656,-0.0008609909788074336,0.0002362561880507514,0.0,0.0,0.0,0.0,0.0,0.0,0.0,0.0,0.0,-0.0007452433425040118,1.6673110634862018e-05,-8.49167935758379e-06,0.0,0.0,0.0,0.0,0.0,0.0,0.0,0.0,0.0,0.008218360169602888,-0.06717400933948856,9.809857244340215,0.0,0.0,0.0,0.0,0.0,0.0,0.0,0.0,0.0
2025/05/20 13:02:00.429917111,1747738919,664122499,mA1/imu,0.6667856078598361,-0.7452490607131899,-0.0008578946053388492,0.00023382459915620278,0.0,0.0,0.0,0.0,0.0,0.0,0.0,0.0,0.0,0.0008474128812744454,9.545112427146665e-07,-8.367488117446186e-06,0.0,0.0,0.0,0.0,0.0,0.0,0.0,0.0,0.0,0.0078056355695554185,-0.5853452080306845,9.80879556947736,0.0,0.0,0.0,0.0,0.0,0.0,0.0,0.0,0.0
2025/05/20 13:02:01.435379204,1747738920,415707929,mA1/imu,0.6667877628149026,-0.7452471225882236,-0.0008666566838595104,0.00023353899645091515,0.0,0.0,0.0,0.0,0.0,0.0,0.0,0.0,0.0,-0.0007156179155547266,6.154834473628173e-06,-7.10389844628294e-06,0.0,0.0,0.0,0.0,0.0,0.0,0.0,0.0,0.0,0.008186205779722878,-0.06678100003629339,9.809839267588423,0.0,0.0,0.0,0.0,0.0,0.0,0.0,0.0,0.0
2025/05/20 13:02:01.443114070,1747738920,468631522,mA1/imu,0.6667878950549176,-0.7452470093760085,-0.0008630534630666203,0.00023057117691768384,0.0,0.0,0.0,0.0,0.0,0.0,0.0,0.0,0.0,0.0008706769707932268,3.6157829416746025e-06,-6.983742883665616e-06,0.0,0.0,0.0,0.0,0.0,0.0,0.0,0.0,0.0,0.007790040896904006,-0.5823097942068468,9.80879052153585,0.0,0.0,0.0,0.0,0.0,0.0,0.0,0.0,0.0
2025/05/20 13:02:01.455170344,1747738920,524231420,mA1/imu,0.6667880257023158,-0.745246896867507,-0.0008598869623642751,0.0002282186917351848,0.0,0.0,0.0,0.0,0.0,0.0,0.0,0.0,0.0,0.0007416381080140579,1.5858410890767855e-05,-6.89926678676908e-06,0.0,0.0,0.0,0.0,0.0,0.0,0.0,0.0,0.0,0.007421055904246812,0.03508433723994574,9.810232625921014,0.0,0.0,0.0,0.0,0.0,0.0,0.0,0.0,0.0
2025/05/20 13:02:02.87440339,1747738921,118304958,mA1/imu,0.6667894819856917,-0.7452455978581967,-0.0008559664543686264,0.0002300166544465507,0.0,0.0,0.0,0.0,0.0,0.0,0.0,0.0,0.0,0.0007155093485017598,-1.3650860313785431e-05,-6.117378640115536e-06,0.0,0.0,0.0,0.0,0.0,0.0,0.0,0.0,0.0,0.007467129470507948,0.03532429949624131,9.810265976946033,0.0,0.0,0.0,0.0,0.0,0.0,0.0,0.0,0.0
2025/05/20 13:02:02.91495185,1747738921,172454527,mA1/imu,0.6667895943435319,-0.7452454921764916,-0.0008596762927480994,0.00023285720611817065,0.0,0.0,0.0,0.0,0.0,0.0,0.0,0.0,0.0,-0.0008759999692382287,-9.830772606447122e-06,-6.095919562455937e-06,0.0,0.0,0.0,0.0,0.0,0.0,0.0,0.0,0.0,0.007882635867397044,0.5542654641045032,9.811072984895663,0.0,0.0,0.0,0.0,0.0,0.0,0.0,0.0,0.0
2025/05/20 13:02:02.105337477,1747738921,218988556,mA1/imu,0.6667897056329204,-0.7452453880008362,-0.0008630240613477052,0.00023519123320156287,0.0,0.0,0.0,0.0,0.0,0.0,0.0,0.0,0.0,-0.0007468355451104723,-2.0434976919583878e-05,-6.0383057775250075e-06,0.0,0.0,0.0,0.0,0.0,0.0,0.0,0.0,0.0,0.008232858488101008,-0.0667757421315925,9.809859698986129,0.0,0.0,0.0,0.0,0.0,0.0,0.0,0.0,0.0
2025/05/20 13:02:02.113815126,1747738921,263585731,mA1/imu,0.666789817453139,-0.7452452918202962,-0.0008605092321051688,0.0002321300330578259,0.0,0.0,0.0,0.0,0.0,0.0,0.0,0.0,0.0,0.0008481728047677268,-3.144758822202452e-05,-5.943123840928195e-06,0.0,0.0,0.0,0.0,0.0,0.0,0.0,0.0,0.0,0.00783068341928735,-0.5851525923137619,9.808797480730343,0.0,0.0,0.0,0.0,0.0,0.0,0.0,0.0,0.0
2025/05/20 13:02:03.76346153,1747738922,117231507,mA1/imu,0.6667915486530281,-0.7452437476487341,-0.0008570268983181679,0.00022965248001998313,0.0,0.0,0.0,0.0,0.0,0.0,0.0,0.0,0.0,0.0007472550096368058,1.5774544888072124e-05,-5.019101250106548e-06,0.0,0.0,0.0,0.0,0.0,0.0,0.0,0.0,0.0,0.007481190197678244,0.03541273752888251,9.81026000802671,0.0,0.0,0.0,0.0,0.0,0.0,0.0,0.0,0.0
2025/05/20 13:02:03.76412835,1747738922,168993164,mA1/imu,0.6667916415901458,-0.7452436605779366,-0.000859654751388509,0.00023252445886530303,0.0,0.0,0.0,0.0,0.0,0.0,0.0,0.0,0.0,-0.0008448769012078562,1.9943159986931328e-05,-5.016997522952027e-06,0.0,0.0,0.0,0.0,0.0,0.0,0.0,0.0,0.0,0.007904759482540987,0.5542902294238098,9.81106429549099,0.0,0.0,0.0,0.0,0.0,0.0,0.0,0.0,0.0
2025/05/20 13:02:03.92530834,1747738922,222275697,mA1/imu,0.6667917338057205,-0.7452435746755702,-0.0008619473394562479,0.0002349040718726957,0.0,0.0,0.0,0.0,0.0,0.0,0.0,0.0,0.0,-0.0007174104756914236,8.649731885610305e-06,-4.978699246193572e-06,0.0,0.0,0.0,0.0,0.0,0.0,0.0,0.0,0.0,0.00826249451300142,-0.06674802447118344,9.80986768083602,0.0,0.0,0.0,0.0,0.0,0.0,0.0,0.0,0.0
2025/05/20 13:02:03.100227818,1747738922,261213171,mA1/imu,0.6667918268603502,-0.7452434963699833,-0.0008584683609979175,0.00023191065579535156,0.0,0.0,0.0,0.0,0.0,0.0,0.0,0.0,0.0,0.0008725802319844996,-4.665825073764975e-06,-4.903621151715296e-06,0.0,0.0,0.0,0.0,0.0,0.0,0.0,0.0,0.0,0.007851047395644024,-0.5852977737910721,9.808819368615541,0.0,0.0,0.0,0.0,0.0,0.0,0.0,0.0,0.0
2025/05/20 13:02:03.109349982,1747738922,313086172,mA1/imu,0.6667919189131851,-0.7452434180771144,-0.0008556143080570871,0.00022936644842180674,0.0,0.0,0.0,0.0,0.0,0.0,0.0,0.0,0.0,0.0007339831965729747,-2.2880328061230177e-06,-4.862403133938509e-06,0.0,0.0,0.0,0.0,0.0,0.0,0.0,0.0,0.0,0.007496582949051042,0.035307580021595786,9.810263775298841,0.0,0.0,0.0,0.0,0.0,0.0,0.0,0.0,0.0
2025/05/20 13:02:03.120490499,1747738922,362363001,mA1/imu,0.6667920084410481,-0.7452433334116658,-0.000858834522425041,0.00023213764240887126,0.0,0.0,0.0,0.0,0.0,0.0,0.0,0.0,0.0,-0.0008607201081882543,6.922510836434003e-07,-4.86037081856293e-06,0.0,0.0,0.0,0.0,0.0,0.0,0.0,0.0,0.0,0.007916122106990678,0.5541396268195761,9.811070023464152,0.0,0.0,0.0,0.0,0.0,0.0,0.0,0.0,0.0
2025/05/20 13:02:04.70636006,1747738923,115561913,mA1/imu,0.6667932696813075,-0.7452422032482708,-0.0008610178352493063,0.00022946385633386787,0.0,0.0,0.0,0.0,0.0,0.0,0.0,0.0,0.0,0.0007288649582678188,1.484050800607515e-05,-4.200539488151629e-06,0.0,0.0,0.0,0.0,0.0,0.0,0.0,0.0,0.0,0.007461277248964061,0.03530052644850305,9.810256006934692,0.0,0.0,0.0,0.0,0.0,0.0,0.0,0.0,0.0
2025/05/20 13:02:04.83365856,1747738923,166516992,mA1/imu,0.6667933478010479,-0.7452421291411992,-0.0008637815599418384,0.00023272898305526585,0.0,0.0,0.0,0.0,0.0,0.0,0.0,0.0,0.0,-0.0008568185945917247,4.963447217024876e-05,-4.283554276700225e-06,0.0,0.0,0.0,0.0,0.0,0.0,0.0,0.0,0.0,0.004524589609085359,0.5542819428353806,9.811059870228421,0.0,0.0,0.0,0.0,0.0,0.0,0.0,0.0,0.0
2025/05/20 13:02:04.94571435,1747738923,222847789,mA1/imu,0.6667947082196342,-0.7452409077023696,-0.0008667813440462834,0.00023509007288016108,0.0,0.0,0.0,0.0,0.0,0.0,0.0,0.0,0.0,-0.0007423591614271829,-3.945969691313504e-05,-0.0001187815156593475,0.0,0.0,0.0,0.0,0.0,0.0,0.0,0.0,0.0,0.011312682053390605,-0.06919836429512202,9.809519852642433,0.0,0.0,0.0,0.0,0.0,0.0,0.0,0.0,0.0
2025/05/20 13:02:04.103515537,1747738923,260728713,mA1/imu,0.6667981823194837,-0.7452378021566063,-0.0008654029630094969,0.0002310193393832858,0.0,0.0,0.0,0.0,0.0,0.0,0.0,0.0,0.0,0.0008232152904480863,-0.00012048428958326817,-0.0002313514989076316,0.0,0.0,0.0,0.0,0.0,0.0,0.0,0.0,0.0,0.010746795958074717,-0.5841445554369356,9.808486531544874,0.0,0.0,0.0,0.0,0.0,0.0,0.0,0.0,0.0
2025/05/20 13:02:04.110941302,1747738923,312663708,mA1/imu,0.6668037189927117,-0.7452328490896687,-0.0008658110340467398,0.00022659752235625123,0.0,0.0,0.0,0.0,0.0,0.0,0.0,0.0,0.0,0.0006852531595106569,-0.00016337466565060558,-0.0003409108530160143,0.0,0.0,0.0,0.0,0.0,0.0,0.0,0.0,0.0,0.00948843458741245,0.033758805593680455,9.810612063168062,0.0,0.0,0.0,0.0,0.0,0.0,0.0,0.0,0.0
2025/05/20 13:02:04.111005381,1747738923,370928209,mA1/imu,0.666811261197916,-0.7452260921494678,-0.0008729703308064118,0.00022680846295392162,0.0,0.0,0.0,0.0,0.0,0.0,0.0,0.0,0.0,-0.0009074340212654891,-0.0001882955656148727,-0.00044751508076573324,0.0,0.0,0.0,0.0,0.0,0.0,0.0,0.0,0.0,0.009755454518264029,0.5529407191829854,9.811414014820063,0.0,0.0,0.0,0.0,0.0,0.0,0.0,0.0,0.0
2025/05/20 13:02:05.66548756,1747738924,114871389,mA1/imu,0.6671313892934577,-0.7449395345838423,-0.000862249066075249,0.00023613542162160438,0.0,0.0,0.0,0.0,0.0,0.0,0.0,0.0,0.0,0.0008089397882960743,0.00029131902797068784,-0.0017421421972596176,0.0,0.0,0.0,0.0,0.0,0.0,0.0,0.0,0.0,0.008098480208000209,0.0348482061058353,9.810606429054793,0.0,0.0,0.0,0.0,0.0,0.0,0.0,0.0,0.0
2025/05/20 13:02:05.74655662,1747738924,164564322,mA1/imu,0.6671646098546948,-0.7449097837786341,-0.0008593594261185781,0.00024267195534824352,0.0,0.0,0.0,0.0,0.0,0.0,0.0,0.0,0.0,-0.0007730975133748967,0.0002507819299741253,-0.0018102961718983108,0.0,0.0,0.0,0.0,0.0,0.0,0.0,0.0,0.0,0.01084873853492554,0.553755498546095,9.811262351286695,0.0,0.0,0.0,0.0,0.0,0.0,0.0,0.0,0.0
2025/05/20 13:02:05.962441962,1747738925,16539078,mA1/imu,0.6675554276652623,-0.7445595956234717,-0.0008361350130908972,0.00024584121077365266,0.0,0.0,0.0,0.0,0.0,0.0,0.0,0.0,0.0,-0.0008390849627495102,-0.000887048787347193,-0.0008201388534148621,0.0,0.0,0.0,0.0,0.0,0.0,0.0,0.0,0.0,0.007248420668835118,-0.06641801813023968,9.809709972199194,0.0,0.0,0.0,0.0,0.0,0.0,0.0,0.0,0.0
2025/05/20 13:02:05.970852471,1747738925,61862988,mA1/imu,0.6675703995385306,-0.7445461618928381,-0.0008498920778395497,0.0002283726479684422,0.0,0.0,0.0,0.0,0.0,0.0,0.0,0.0,0.0,0.000741864455060573,-0.0008846233780315728,-0.0007954489483423238,0.0,0.0,0.0,0.0,0.0,0.0,0.0,0.0,0.0,0.006782570853756759,-0.5849334465251581,9.808720562638172,0.0,0.0,0.0,0.0,0.0,0.0,0.0,0.0,0.0
2025/05/20 13:02:05.984150903,1747738925,113529433,mA1/imu,0.6675849226590128,-0.7445331290087941,-0.0008635771258437957,0.00021232353119010898,0.0,0.0,0.0,0.0,0.0,0.0,0.0,0.0,0.0,0.0006013333137794146,-0.0008141930862391002,-0.0007717599706673988,0.0,0.0,0.0,0.0,0.0,0.0,0.0,0.0,0.0,0.006174013182746119,0.035977205075646834,9.810363514785823,0.0,0.0,0.0,0.0,0.0,0.0,0.0,0.0,0.0
2025/05/20 13:02:05.995286128,1747738925,163504097,mA1/imu,0.6675990108778627,-0.7445204778170174,-0.0008817266003424854,0.00020333278627264017,0.0,0.0,0.0,0.0,0.0,0.0,0.0,0.0,0.0,-0.0009891577642202774,-0.0006999965619970942,-0.0007488153030524072,0.0,0.0,0.0,0.0,0.0,0.0,0.0,0.0,0.0,0.0065750510837856106,0.5548578318607106,9.811095230566142,0.0,0.0,0.0,0.0,0.0,0.0,0.0,0.0,0.0
2025/05/20 13:02:06.568873610,1747738925,618958551,mA1/imu,0.667686654213421,-0.7444419155715288,-0.0008259875472700203,0.0002896032669594186,0.0,0.0,0.0,0.0,0.0,0.0,0.0,0.0,0.0,-0.0006726193988479331,0.001389342021780223,-0.0005435723455795152,0.0,0.0,0.0,0.0,0.0,0.0,0.0,0.0,0.0,0.02323692648232224,-0.06862879152488058,9.808583835659041,0.0,0.0,0.0,0.0,0.0,0.0,0.0,0.0,0.0
2025/05/20 13:02:06.575378932,1747738925,668766557,mA1/imu,0.6677003493727671,-0.7444296506799118,-0.0008031024848424435,0.00030604324539997496,0.0,0.0,0.0,0.0,0.0,0.0,0.0,0.0,0.0,0.0009410387443294629,0.0010077086835509972,-0.0007939242461720269,0.0,0.0,0.0,0.0,0.0,0.0,0.0,0.0,0.0,0.004689534556734545,-0.5856520640911013,9.808436268087494,0.0,0.0,0.0,0.0,0.0,0.0,0.0,0.0,0.0
2025/05/20 13:02:06.583301616,1747738925,719696049,mA1/imu,0.6677148625324566,-0.7444166495893472,-0.0007817031056959923,0.0003211038592218335,0.0,0.0,0.0,0.0,0.0,0.0,0.0,0.0,0.0,0.0008237927752439696,0.0010139133377368638,-0.0007685584755940936,0.0,0.0,0.0,0.0,0.0,0.0,0.0,0.0,0.0,0.0008884816544024923,0.036359738688185525,9.81036305591557,0.0,0.0,0.0,0.0,0.0,0.0,0.0,0.0,0.0
2025/05/20 13:02:06.593816767,1747738925,769618960,mA1/imu,0.6677289089715643,-0.7444040572732131,-0.0007666103180320527,0.00034051056319744834,0.0,0.0,0.0,0.0,0.0,0.0,0.0,0.0,0.0,-0.0007528360230370884,0.0009562561296228052,-0.0007440881703670206,0.0,0.0,0.0,0.0,0.0,0.0,0.0,0.0,0.0,0.0015206304766347935,0.5552868814531247,9.811097782532565,0.0,0.0,0.0,0.0,0.0,0.0,0.0,0.0,0.0
2025/05/20 13:02:06.607757760,1747738925,820550852,mA1/imu,0.667742507756037,-0.7443918653206771,-0.0007526517069782981,0.00035734505691461307,0.0,0.0,0.0,0.0,0.0,0.0,0.0,0.0,0.0,-0.0006163573032245526,0.0008183134570195985,-0.0007205065756421442,0.0,0.0,0.0,0.0,0.0,0.0,0.0,0.0,0.0,0.0024792745173733213,-0.06680519106342757,9.80966799022644,0.0,0.0,0.0,0.0,0.0,0.0,0.0,0.0,0.0
2025/05/20 13:02:07.569300828,1747738926,615322671,mA1/imu,0.6679037250355088,-0.7442471434041807,-0.0008665310376665628,0.00022965706895028735,0.0,0.0,0.0,0.0,0.0,0.0,0.0,0.0,0.0,-0.0008374935337375456,0.00012851241960037038,-0.00012629697672111306,0.0,0.0,0.0,0.0,0.0,0.0,0.0,0.0,0.0,0.004691317274269559,-0.06687727434850832,9.809762391643376,0.0,0.0,0.0,0.0,0.0,0.0,0.0,0.0,0.0
2025/05/20 13:02:07.572239741,1747738926,665098982,mA1/imu,0.6679060340378128,-0.7442450758742662,-0.0008618189483938823,0.00023238091123327012,0.0,0.0,0.0,0.0,0.0,0.0,0.0,0.0,0.0,0.0007603372427849297,0.00025315712532800703,-0.00012221900187168905,0.0,0.0,0.0,0.0,0.0,0.0,0.0,0.0,0.0,0.004374243375955262,-0.5854070405444906,9.808701935221244,0.0,0.0,0.0,0.0,0.0,0.0,0.0,0.0,0.0
2025/05/20 13:02:07.581955520,1747738926,716109174,mA1/imu,0.6679082718142082,-0.7442430732804384,-0.0008554537178480375,0.00023772922097465687,0.0,0.0,0.0,0.0,0.0,0.0,0.0,0.0,0.0,0.0006327326700861476,0.00037211792791452613,-0.00011831482149414264,0.0,0.0,0.0,0.0,0.0,0.0,0.0,0.0,0.0,0.004383178944583777,0.03617087787345115,9.810430513252596,0.0,0.0,0.0,0.0,0.0,0.0,0.0,0.0,0.0
2025/05/20 13:02:07.593516505,1747738926,765962201,mA1/imu,0.6679104388801342,-0.7442411270934614,-0.0008531396745048807,0.0002500605852391413,0.0,0.0,0.0,0.0,0.0,0.0,0.0,0.0,0.0,-0.0009450294366583626,0.00046767715393532375,-0.00011457965398434347,0.0,0.0,0.0,0.0,0.0,0.0,0.0,0.0,0.0,0.004899635042137437,0.5551241865151869,9.811236020250952,0.0,0.0,0.0,0.0,0.0,0.0,0.0,0.0,0.0
2025/05/20 13:02:07.604087219,1747738926,816875314,mA1/imu,0.66791253923581,-0.7442392426933214,-0.0008487983117750153,0.0002628845185995451,0.0,0.0,0.0,0.0,0.0,0.0,0.0,0.0,0.0,-0.0007933235873083521,0.0005186724348698831,-0.00011097192466933698,0.0,0.0,0.0,0.0,0.0,0.0,0.0,0.0,0.0,0.00540649386257923,-0.066521610417164,9.809716382534281,0.0,0.0,0.0,0.0,0.0,0.0,0.0,0.0,0.0
2025/05/20 13:02:07.616523009,1747738926,866761500,mA1/imu,0.6679145767010967,-0.7442374239372924,-0.0008376669603592614,0.0002708420966442504,0.0,0.0,0.0,0.0,0.0,0.0,0.0,0.0,0.0,0.0008164678337555292,0.0005360528324745322,-0.00010746848903652545,0.0,0.0,0.0,0.0,0.0,0.0,0.0,0.0,0.0,0.0050835658055982565,-0.5852610919610298,9.808649469409021,0.0,0.0,0.0,0.0,0.0,0.0,0.0,0.0,0.0
2025/05/20 13:02:08.565648394,1747738927,618997763,mA1/imu,0.6679382863117853,-0.7442161460812363,-0.0008467014833255999,0.00023809129648693413,0.0,0.0,0.0,0.0,0.0,0.0,0.0,0.0,0.0,-0.0006932512386712849,-0.0007459096068144311,-6.738832754593997e-05,0.0,0.0,0.0,0.0,0.0,0.0,0.0,0.0,0.0,0.010554744576892126,-0.06698454414694377,9.80972992812991,0.0,0.0,0.0,0.0,0.0,0.0,0.0,0.0,0.0
2025/05/20 13:02:08.572880726,1747738927,670079707,mA1/imu,0.667939513868394,-0.7442150388856515,-0.0008563468849991769,0.00021995384573483291,0.0,0.0,0.0,0.0,0.0,0.0,0.0,0.0,0.0,0.0008802810577597516,-0.0008304742346215612,-6.643572509423952e-05,0.0,0.0,0.0,0.0,0.0,0.0,0.0,0.0,0.0,0.010036475326438914,-0.5856017822483259,9.808684795816257,0.0,0.0,0.0,0.0,0.0,0.0,0.0,0.0,0.0
2025/05/20 13:02:08.582955308,1747738927,711954813,mA1/imu,0.6679407221820295,-0.7442139465060313,-0.0008676094360806918,0.00020181856546612925,0.0,0.0,0.0,0.0,0.0,0.0,0.0,0.0,0.0,0.0007234580245185262,-0.0008460978252380425,-6.546738093303009e-05,0.0,0.0,0.0,0.0,0.0,0.0,0.0,0.0,0.0,0.009303984486399504,0.03588721541835288,9.810418708931833,0.0,0.0,0.0,0.0,0.0,0.0,0.0,0.0,0.0
2025/05/20 13:02:08.593210248,1747738927,761761169,mA1/imu,0.6679419098895552,-0.7442128633802108,-0.0008849370466429813,0.00018941738246706165,0.0,0.0,0.0,0.0,0.0,0.0,0.0,0.0,0.0,-0.0008824267517325288,-0.0008111220154260608,-6.447011085338974e-05,0.0,0.0,0.0,0.0,0.0,0.0,0.0,0.0,0.0,0.009618225725364778,0.5551596272455946,9.811233645000108,0.0,0.0,0.0,0.0,0.0,0.0,0.0,0.0,0.0
2025/05/20 13:02:08.603590690,1747738927,812729427,mA1/imu,0.6679430785764269,-0.7442117977209285,-0.000901239920117832,0.0001779927955190016,0.0,0.0,0.0,0.0,0.0,0.0,0.0,0.0,0.0,-0.0007729278375498002,-0.0007401929715771708,-6.335534570734205e-05,0.0,0.0,0.0,0.0,0.0,0.0,0.0,0.0,0.0,0.00962712588416349,-0.06698052634569054,9.809743511526007,0.0,0.0,0.0,0.0,0.0,0.0,0.0,0.0,0.0
2025/05/20 13:02:08.615286175,1747738927,862993907,mA1/imu,0.6679442294887944,-0.7442107570981871,-0.0009102667790126561,0.00016348197117835794,0.0,0.0,0.0,0.0,0.0,0.0,0.0,0.0,0.0,0.0008031118816809484,-0.0006274982315317774,-6.21650431384701e-05,0.0,0.0,0.0,0.0,0.0,0.0,0.0,0.0,0.0,0.00914157253122941,-0.585598713088324,9.808689185383052,0.0,0.0,0.0,0.0,0.0,0.0,0.0,0.0,0.0
2025/05/20 13:02:09.569432526,1747738928,615431934,mA1/imu,0.6679968806133533,-0.7441636640370141,-0.0006399263279788899,0.00044621982307469464,0.0,0.0,0.0,0.0,0.0,0.0,0.0,0.0,0.0,-0.0003200280017861534,0.0035762273860767925,0.00011554701691396992,0.0,0.0,0.0,0.0,0.0,0.0,0.0,0.0,0.0,-0.016206587138620825,-0.06124198334620547,9.808768152405879,0.0,0.0,0.0,0.0,0.0,0.0,0.0,0.0,0.0
2025/05/20 13:02:09.575882075,1747738928,665350790,mA1/imu,0.667992914626252,-0.7441672473868793,-0.0005674489439293024,0.0005019237551670106,0.0,0.0,0.0,0.0,0.0,0.0,0.0,0.0,0.0,0.001408773261232011,0.003466840616694049,0.00021291170223188157,0.0,0.0,0.0,0.0,0.0,0.0,0.0,0.0,0.0,-0.0007508194693793999,-0.5676940618360082,9.808798529829298,0.0,0.0,0.0,0.0,0.0,0.0,0.0,0.0,0.0
2025/05/20 13:02:09.864869229,1747738928,920622221,mA1/imu,0.667998969451013,-0.7441618601455515,-0.0003895258938456371,0.0005924412841268426,0.0,0.0,0.0,0.0,0.0,0.0,0.0,0.0,0.0,-0.00031568426582742387,-0.0007604743912669211,-0.0002996901103534674,0.0,0.0,0.0,0.0,0.0,0.0,0.0,0.0,0.0,-7.418575365011545e-05,0.5699666398053198,9.81135774033202,0.0,0.0,0.0,0.0,0.0,0.0,0.0,0.0,0.0
2025/05/20 13:02:09.873599699,1747738928,969974840,mA1/imu,0.6680055869081377,-0.744155935504799,-0.00040514007069769364,0.0005615817083683927,0.0,0.0,0.0,0.0,0.0,0.0,0.0,0.0,0.0,-0.0002506780640687845,-0.001701516054931229,-0.00039398233342914125,0.0,0.0,0.0,0.0,0.0,0.0,0.0,0.0,0.0,-0.00048483050013092225,-0.04837865991723115,9.81046673898963,0.0,0.0,0.0,0.0,0.0,0.0,0.0,0.0,0.0
2025/05/20 13:02:10.417871506,1747738929,467642228,mA1/imu,0.6681377057135323,-0.744037086554864,-0.0009054396642553821,-1.4622635977107345e-05,0.0,0.0,0.0,0.0,0.0,0.0,0.0,0.0,0.0,-0.0003446286266795156,-0.0006123495889751243,-0.0003651123598215592,0.0,0.0,0.0,0.0,0.0,0.0,0.0,0.0,0.0,-0.010363721189153458,0.47941511834650874,9.809266398748157,0.0,0.0,0.0,0.0,0.0,0.0,0.0,0.0,0.0
2025/05/20 13:02:10.418126055,1747738929,518586545,mA1/imu,0.6681418372200633,-0.7440333654309377,-0.0009145618831666363,-7.633690033124173e-06,0.0,0.0,0.0,0.0,0.0,0.0,0.0,0.0,0.0,0.0002831725418324771,0.00035759787325012783,-0.00012052271977598774,0.0,0.0,0.0,0.0,0.0,0.0,0.0,0.0,0.0,-0.010392813344424639,0.05465752538870795,9.810240594851937,0.0,0.0,0.0,0.0,0.0,0.0,0.0,0.0,0.0
2025/05/20 13:02:10.426130784,1747738929,568425594,mA1/imu,0.6681412174204734,-0.744033924267197,-0.0009124720977661854,2.2762103040005195e-05,0.0,0.0,0.0,0.0,0.0,0.0,0.0,0.0,0.0,-0.0006546568927551248,0.0013600773510104125,0.00014614363568136676,0.0,0.0,0.0,0.0,0.0,0.0,0.0,0.0,0.0,-0.010385206726657355,-0.013901029401339313,9.812766915197422,0.0,0.0,0.0,0.0,0.0,0.0,0.0,0.0,0.0
2025/05/20 13:02:10.437260198,1747738929,619730046,mA1/imu,0.66813555672887,-0.7440390320040876,-0.0008901141019508549,6.622619100266004e-05,0.0,0.0,0.0,0.0,0.0,0.0,0.0,0.0,0.0,-0.0006008010732757754,0.0022201175979286816,0.00041831677430104235,0.0,0.0,0.0,0.0,0.0,0.0,0.0,0.0,0.0,-0.0061704716471422515,-0.6445028838394098,9.809475393655791,0.0,0.0,0.0,0.0,0.0,0.0,0.0,0.0,0.0
2025/05/20 13:02:10.449119289,1747738929,669571503,mA1/imu,0.6681246739463671,-0.7440488479513209,-0.0008475234893437252,0.00011674890964647367,0.0,0.0,0.0,0.0,0.0,0.0,0.0,0.0,0.0,6.498638703542489e-05,0.0028870900032520576,0.0006978711854736853,0.0,0.0,0.0,0.0,0.0,0.0,0.0,0.0,0.0,-0.004970954957415322,-0.42017150655614066,9.807704313588813,0.0,0.0,0.0,0.0,0.0,0.0,0.0,0.0,0.0
2025/05/20 13:02:10.459780670,1747738929,720518283,mA1/imu,0.6681088977565776,-0.7440630558864151,-0.0007984830650601995,0.00017896439640245789,0.0,0.0,0.0,0.0,0.0,0.0,0.0,0.0,0.0,0.00039525740666572186,0.0033145459823748103,0.000957209144057817,0.0,0.0,0.0,0.0,0.0,0.0,0.0,0.0,0.0,-0.005288946263472833,0.055992022042415976,9.811655279306363,0.0,0.0,0.0,0.0,0.0,0.0,0.0,0.0,0.0
2025/05/20 13:02:11.424493988,1747738930,465078332,mA1/imu,0.6673757791683713,-0.7447204248829296,-0.0010267193878617945,-6.315771265113666e-05,0.0,0.0,0.0,0.0,0.0,0.0,0.0,0.0,0.0,-0.0017894938124476353,-0.005578731803211903,0.0029340862549166956,0.0,0.0,0.0,0.0,0.0,0.0,0.0,0.0,0.0,0.015995271762402744,0.466584832329279,9.81120491566822,0.0,0.0,0.0,0.0,0.0,0.0,0.0,0.0,0.0
2025/05/20 13:02:11.427165032,1747738930,516529061,mA1/imu,0.6673218864347684,-0.7447685773704372,-0.0011133338781340483,-0.0001628939316093321,0.0,0.0,0.0,0.0,0.0,0.0,0.0,0.0,0.0,-0.0018128075903852698,-0.0050287347333390405,0.002854812714876509,0.0,0.0,0.0,0.0,0.0,0.0,0.0,0.0,0.0,0.01424586717882425,0.49985169889098413,9.810632358669917,0.0,0.0,0.0,0.0,0.0,0.0,0.0,0.0,0.0
2025/05/20 13:02:11.434057445,1747738930,566358215,mA1/imu,0.6672692845709769,-0.7448155710111264,-0.0011849647429190736,-0.00025081081382781706,0.0,0.0,0.0,0.0,0.0,0.0,0.0,0.0,0.0,-0.00038079875442527313,-0.004124614940786783,0.0028143823523390727,0.0,0.0,0.0,0.0,0.0,0.0,0.0,0.0,0.0,0.008291004778034246,-0.023665379597929057,9.811549769484808,0.0,0.0,0.0,0.0,0.0,0.0,0.0,0.0,0.0
2025/05/20 13:02:11.443566127,1747738930,617343384,mA1/imu,0.6672166611045312,-0.7448625937428958,-0.0012428195536949445,-0.0003146214932636521,0.0,0.0,0.0,0.0,0.0,0.0,0.0,0.0,0.0,-0.001076160830080006,-0.002965459822055756,0.0028263660197170707,0.0,0.0,0.0,0.0,0.0,0.0,0.0,0.0,0.0,0.009923529396977562,0.5558437785089163,9.810397927131593,0.0,0.0,0.0,0.0,0.0,0.0,0.0,0.0,0.0
2025/05/20 13:02:11.453783015,1747738930,667163159,mA1/imu,0.6671636992012377,-0.7449099503257207,-0.0012799447904137803,-0.0003551269999327177,0.0,0.0,0.0,0.0,0.0,0.0,0.0,0.0,0.0,0.0003304865070508259,-0.0016775410138143128,0.0028500212598217105,0.0,0.0,0.0,0.0,0.0,0.0,0.0,0.0,0.0,0.010056425179913602,-0.6016458087374955,9.809039266652778,0.0,0.0,0.0,0.0,0.0,0.0,0.0,0.0,0.0
2025/05/20 13:02:11.465633524,1747738930,718145289,mA1/imu,0.6671109823374755,-0.7449571298396465,-0.0012929166589588995,-0.00037458285843288975,0.0,0.0,0.0,0.0,0.0,0.0,0.0,0.0,0.0,0.0015053953265032958,-0.00048038107987381296,0.0027824048931465654,0.0,0.0,0.0,0.0,0.0,0.0,0.0,0.0,0.0,0.018482152284770518,-0.5221359510013234,9.809071114631408,0.0,0.0,0.0,0.0,0.0,0.0,0.0,0.0,0.0
2025/05/20 13:02:12.415387108,1747738931,470122745,mA1/imu,0.666586021515194,-0.7454277263444783,-0.0006817445019861162,0.0003405023950195373,0.0,0.0,0.0,0.0,0.0,0.0,0.0,0.0,0.0,0.0006722568648678663,-0.0010574320956774372,0.0011212827659990903,0.0,0.0,0.0,0.0,0.0,0.0,0.0,0.0,0.0,0.021058977348607216,-0.5895949219406629,9.808957791424856,0.0,0.0,0.0,0.0,0.0,0.0,0.0,0.0,0.0
2025/05/20 13:02:12.426327792,1747738931,510964814,mA1/imu,0.6665653268669062,-0.7454462291248141,-0.0007009240623895788,0.00030529963732208994,0.0,0.0,0.0,0.0,0.0,0.0,0.0,0.0,0.0,0.0010184094076939592,-0.0018925754581186488,0.0010780143999636978,0.0,0.0,0.0,0.0,0.0,0.0,0.0,0.0,0.0,0.02021668198891505,-0.30196900089377804,9.809411602565243,0.0,0.0,0.0,0.0,0.0,0.0,0.0,0.0,0.0
2025/05/20 13:02:12.440122047,1747738931,562822044,mA1/imu,0.6665462506891081,-0.7454632686672967,-0.0007371886073208892,0.00025944772030805143,0.0,0.0,0.0,0.0,0.0,0.0,0.0,0.0,0.0,-0.0005636097402069839,-0.002599139463092627,0.000978709045394925,0.0,0.0,0.0,0.0,0.0,0.0,0.0,0.0,0.0,0.020812257124728985,0.5751038443361953,9.811647004820479,0.0,0.0,0.0,0.0,0.0,0.0,0.0,0.0,0.0
2025/05/20 13:02:12.863347724,1747738931,917104515,mA1/imu,0.6664400068490897,-0.7455579204169441,-0.0010387401535848122,-0.00015997949932909097,0.0,0.0,0.0,0.0,0.0,0.0,0.0,0.0,0.0,8.815223607608073e-05,-0.001667493105645566,0.0007260014581887347,0.0,0.0,0.0,0.0,0.0,0.0,0.0,0.0,0.0,0.011813979735179668,0.055914810861783966,9.809948890211436,0.0,0.0,0.0,0.0,0.0,0.0,0.0,0.0,0.0
2025/05/20 13:02:12.866382627,1747738931,966870269,mA1/imu,0.6664267165624922,-0.7455697707146152,-0.0010553767478300056,-0.00018608657183924178,0.0,0.0,0.0,0.0,0.0,0.0,0.0,0.0,0.0,-0.00019159387212777727,-0.0009142512495955222,0.0007008964666514059,0.0,0.0,0.0,0.0,0.0,0.0,0.0,0.0,0.0,0.011954461153393534,0.17936591983394082,9.810638532105997,0.0,0.0,0.0,0.0,0.0,0.0,0.0,0.0,0.0
2025/05/20 13:02:12.872923009,1747738932,18797599,mA1/imu,0.6664139267816621,-0.7455811934825494,-0.001059856344113353,-0.00019703074069558164,0.0,0.0,0.0,0.0,0.0,0.0,0.0,0.0,0.0,0.0001409098598784873,-0.00012815841231668705,0.0006752409696472872,0.0,0.0,0.0,0.0,0.0,0.0,0.0,0.0,0.0,0.011916691169597683,-0.00018724351376280153,9.809894045477497,0.0,0.0,0.0,0.0,0.0,0.0,0.0,0.0,0.0
2025/05/20 13:02:13.164976088,1747738932,220825537,mA1/imu,0.6663676825491395,-0.7456226895349845,-0.0009518309663400757,-0.00010257932093987585,0.0,0.0,0.0,0.0,0.0,0.0,0.0,0.0,0.0,0.00021082030924832618,0.0025981060244586146,0.0005747873760649577,0.0,0.0,0.0,0.0,0.0,0.0,0.0,0.0,0.0,0.013279376960770771,0.6499805041672544,9.810497044010543,0.0,0.0,0.0,0.0,0.0,0.0,0.0,0.0,0.0
2025/05/20 13:02:13.172489471,1747738932,260693366,mA1/imu,0.6663573084368359,-0.7456320199200119,-0.000908992577096123,-4.577458866998038e-05,0.0,0.0,0.0,0.0,0.0,0.0,0.0,0.0,0.0,0.0003328708336644046,0.002967210872174545,0.0005506136322018232,0.0,0.0,0.0,0.0,0.0,0.0,0.0,0.0,0.0,0.013744386959063732,0.03256308553853206,9.810299983344422,0.0,0.0,0.0,0.0,0.0,0.0,0.0,0.0,0.0
2025/05/20 13:02:14.121662656,1747738933,164107726,mA1/imu,0.6662617251943044,-0.7457174575374695,-0.0008854334477793628,-5.543077837345204e-05,0.0,0.0,0.0,0.0,0.0,0.0,0.0,0.0,0.0,-0.0008232026367329309,-0.0019102710659815011,0.00014807196951746615,0.0,0.0,0.0,0.0,0.0,0.0,0.0,0.0,0.0,0.009119791273392363,0.5589577199166029,9.810037696638165,0.0,0.0,0.0,0.0,0.0,0.0,0.0,0.0,0.0
2025/05/20 13:02:14.123514300,1747738933,216502054,mA1/imu,0.6662590244496833,-0.7457198401775319,-0.0009078514359110255,-9.005955084315242e-05,0.0,0.0,0.0,0.0,0.0,0.0,0.0,0.0,0.0,-0.00010517674956757855,-0.0014196293218633744,0.0001394292056289183,0.0,0.0,0.0,0.0,0.0,0.0,0.0,0.0,0.0,0.008692675561681122,-0.01975012788262815,9.811060497569354,0.0,0.0,0.0,0.0,0.0,0.0,0.0,0.0,0.0
2025/05/20 13:02:14.135042340,1747738933,266044977,mA1/imu,0.6662564871508612,-0.7457220947488268,-0.0009145073036996786,-0.00012003835950972721,0.0,0.0,0.0,0.0,0.0,0.0,0.0,0.0,0.0,0.0013665796669757764,-0.0008316184876375607,0.0001319098746550113,0.0,0.0,0.0,0.0,0.0,0.0,0.0,0.0,0.0,0.00802621300487198,-0.4282016439277965,9.809975536692823,0.0,0.0,0.0,0.0,0.0,0.0,0.0,0.0,0.0
2025/05/20 13:02:14.143772757,1747738933,316967558,mA1/imu,0.6662540955502545,-0.7457242243588716,-0.0009187793255790698,-0.00013119231172834043,0.0,0.0,0.0,0.0,0.0,0.0,0.0,0.0,0.0,0.00039591355530319103,-0.00019660197073428825,0.00012494236908224877,0.0,0.0,0.0,0.0,0.0,0.0,0.0,0.0,0.0,0.008140313968843344,0.02240868104948042,9.80933612651286,0.0,0.0,0.0,0.0,0.0,0.0,0.0,0.0,0.0
2025/05/20 13:02:14.155427057,1747738933,366796029,mA1/imu,0.666251848225892,-0.7457262355471523,-0.0009166303959724333,-0.00012704713018692356,0.0,0.0,0.0,0.0,0.0,0.0,0.0,0.0,0.0,-0.0007301511836300563,0.00043960195365224465,0.00011782168545407862,0.0,0.0,0.0,0.0,0.0,0.0,0.0,0.0,0.0,0.008139565856528549,0.30959477957538006,9.810160020532809,0.0,0.0,0.0,0.0,0.0,0.0,0.0,0.0,0.0
2025/05/20 13:02:14.165882577,1747738933,417754720,mA1/imu,0.6662497457071312,-0.7457281323766046,-0.0009034911602358893,-0.00011238775583474449,0.0,0.0,0.0,0.0,0.0,0.0,0.0,0.0,0.0,0.0006767604527022169,0.0010155147446567947,0.00011099058058412442,0.0,0.0,0.0,0.0,0.0,0.0,0.0,0.0,0.0,0.008832906097337601,-0.574755555157327,9.808276201941595,0.0,0.0,0.0,0.0,0.0,0.0,0.0,0.0,0.0
2025/05/20 13:02:15.114005885,1747738934,170035252,mA1/imu,0.666147446268983,-0.7458193586220965,-0.0010313721807972836,2.0131112517085656e-05,0.0,0.0,0.0,0.0,0.0,0.0,0.0,0.0,0.0,-0.0014613040006506185,-0.0022471240415355967,0.0006062183223375213,0.0,0.0,0.0,0.0,0.0,0.0,0.0,0.0,0.0,0.02111719957136346,0.5478055398906178,9.811358594656562,0.0,0.0,0.0,0.0,0.0,0.0,0.0,0.0,0.0
2025/05/20 13:02:15.116390216,1747738934,211479013,mA1/imu,0.6661361402946067,-0.7458293979283596,-0.0010731041291375746,-1.5058311521009703e-05,0.0,0.0,0.0,0.0,0.0,0.0,0.0,0.0,0.0,-0.0005236855583158423,-0.0020753987216389396,0.0006008187989507389,0.0,0.0,0.0,0.0,0.0,0.0,0.0,0.0,0.0,0.020282744542920537,-0.02996526906329369,9.809716973090387,0.0,0.0,0.0,0.0,0.0,0.0,0.0,0.0,0.0
2025/05/20 13:02:15.125498385,1747738934,261598523,mA1/imu,0.6661249682852016,-0.7458393315947477,-0.0011024152819037012,-5.247747494578972e-05,0.0,0.0,0.0,0.0,0.0,0.0,0.0,0.0,0.0,0.0011341222569715014,-0.0017684126450029545,0.0005934919060991853,0.0,0.0,0.0,0.0,0.0,0.0,0.0,0.0,0.0,0.01959557655444707,-0.5503212197714226,9.808522665791273,0.0,0.0,0.0,0.0,0.0,0.0,0.0,0.0,0.0
2025/05/20 13:02:15.136484160,1747738934,314689819,mA1/imu,0.666113953004075,-0.7458491303151243,-0.0011268579616014397,-8.131784620161141e-05,0.0,0.0,0.0,0.0,0.0,0.0,0.0,0.0,0.0,-0.0002692126526793275,-0.001332647862799492,0.0005848745545799284,0.0,0.0,0.0,0.0,0.0,0.0,0.0,0.0,0.0,0.018950819431047105,0.6009571585827838,9.811175860494764,0.0,0.0,0.0,0.0,0.0,0.0,0.0,0.0,0.0
2025/05/20 13:02:15.148209573,1747738934,362833775,mA1/imu,0.6661031313135158,-0.7458587714102637,-0.0011405062102233792,-0.00010397252267860756,0.0,0.0,0.0,0.0,0.0,0.0,0.0,0.0,0.0,0.001517307937113544,-0.0008429777617979017,0.0005746025482013721,0.0,0.0,0.0,0.0,0.0,0.0,0.0,0.0,0.0,0.01871162327926616,-0.4121399935443125,9.808895056548337,0.0,0.0,0.0,0.0,0.0,0.0,0.0,0.0,0.0
2025/05/20 13:02:15.421535435,1747738934,464434745,mA1/imu,0.6660825021060464,-0.7458771938168626,-0.0011394811219533315,-0.00011711022120119605,0.0,0.0,0.0,0.0,0.0,0.0,0.0,0.0,0.0,-0.0003066769776117418,0.00044028732357739245,0.0004619146302886648,0.0,0.0,0.0,0.0,0.0,0.0,0.0,0.0,0.0,0.01766616852734683,-0.07070944037735467,9.808750804751934,0.0,0.0,0.0,0.0,0.0,0.0,0.0,0.0,0.0
2025/05/20 13:02:15.433786883,1747738934,516998949,mA1/imu,0.6660779981167452,-0.7458812495362954,-0.0011180724146733396,-0.00010922014185492271,0.0,0.0,0.0,0.0,0.0,0.0,0.0,0.0,0.0,-0.0005155677257486877,0.001050491444762569,8.999331872333474e-05,0.0,0.0,0.0,0.0,0.0,0.0,0.0,0.0,0.0,0.018138299186421195,-0.08335762021462317,9.809953895966283,0.0,0.0,0.0,0.0,0.0,0.0,0.0,0.0,0.0
2025/05/20 13:02:15.445447976,1747738934,566795009,mA1/imu,0.6660804994899174,-0.7458790696708819,-0.001083201366784485,-9.110960962897558e-05,0.0,0.0,0.0,0.0,0.0,0.0,0.0,0.0,0.0,0.0004504816789454978,0.0017654704129213517,-0.0002910210970055944,0.0,0.0,0.0,0.0,0.0,0.0,0.0,0.0,0.0,0.014078712457988422,-0.009436428679538027,9.81327673915367,0.0,0.0,0.0,0.0,0.0,0.0,0.0,0.0,0.0
2025/05/20 13:02:15.456858371,1747738934,617744151,mA1/imu,0.6660901115534871,-0.7458705511684423,-0.0010397340252115978,-5.6066960099892724e-05,0.0,0.0,0.0,0.0,0.0,0.0,0.0,0.0,0.0,0.0004365206951203938,0.002508006147973591,-0.0006750075417220522,0.0,0.0,0.0,0.0,0.0,0.0,0.0,0.0,0.0,0.006564146472109509,0.6319707665474733,9.810751248691881,0.0,0.0,0.0,0.0,0.0,0.0,0.0,0.0,0.0
2025/05/20 13:02:15.468630346,1747738934,667579474,mA1/imu,0.6661074943863029,-0.7458550943016239,-0.0009920807146412425,-1.6040196823166424e-06,0.0,0.0,0.0,0.0,0.0,0.0,0.0,0.0,0.0,0.0012219996072808897,0.0031168031276277938,-0.0010780487752418753,0.0,0.0,0.0,0.0,0.0,0.0,0.0,0.0,0.0,0.007425666890648941,0.06123273316017293,9.809380893015863,0.0,0.0,0.0,0.0,0.0,0.0,0.0,0.0,0.0
2025/05/20 13:02:16.415114638,1747738935,469680405,mA1/imu,0.6665057031997614,-0.7454995890663082,-0.0004596185624647966,0.000546859154207587,0.0,0.0,0.0,0.0,0.0,0.0,0.0,0.0,0.0,0.0002493713832721929,-0.004893417638964138,-0.0007010174369549131,0.0,0.0,0.0,0.0,0.0,0.0,0.0,0.0,0.0,-0.004223927823530977,0.2034415768739362,9.81147052747893,0.0,0.0,0.0,0.0,0.0,0.0,0.0,0.0,0.0
2025/05/20 13:02:16.421751650,1747738935,511143040,mA1/imu,0.6665152084692101,-0.7454911078880958,-0.0005389792211051123,0.0004409539934010137,0.0,0.0,0.0,0.0,0.0,0.0,0.0,0.0,0.0,0.0005494017202554671,-0.005485251652040622,-0.00038370962823490586,0.0,0.0,0.0,0.0,0.0,0.0,0.0,0.0,0.0,-0.003632053342903054,0.008174710511032237,9.811189391321257,0.0,0.0,0.0,0.0,0.0,0.0,0.0,0.0,0.0
2025/05/20 13:02:16.426550672,1747738935,560968966,mA1/imu,0.666518410539889,-0.7454882335956164,-0.0006277806491744664,0.00032844074688568605,0.0,0.0,0.0,0.0,0.0,0.0,0.0,0.0,0.0,0.0011515165756376359,-0.005879987564922209,-2.1609822158856026e-05,0.0,0.0,0.0,0.0,0.0,0.0,0.0,0.0,0.0,-0.0005538623030778103,-0.3162607810008653,9.807995790746258,0.0,0.0,0.0,0.0,0.0,0.0,0.0,0.0,0.0
2025/05/20 13:02:16.426611937,1747738935,611891897,mA1/imu,0.6665145038911104,-0.7454916853234155,-0.0007197389529643125,0.00021258475992682295,0.0,0.0,0.0,0.0,0.0,0.0,0.0,0.0,0.0,-0.0005095543909274362,-0.005917233747093879,0.0003641825539693275,0.0,0.0,0.0,0.0,0.0,0.0,0.0,0.0,0.0,-0.0010638661854614094,-0.06598205222316862,9.80841921136202,0.0,0.0,0.0,0.0,0.0,0.0,0.0,0.0,0.0
2025/05/20 13:02:16.427150571,1747738935,661997082,mA1/imu,0.6665029537209431,-0.745501948315404,-0.000805554358106359,9.392215544583646e-05,0.0,0.0,0.0,0.0,0.0,0.0,0.0,0.0,0.0,-0.0002521197762850956,-0.005729077479941802,0.0007752422509159448,0.0,0.0,0.0,0.0,0.0,0.0,0.0,0.0,0.0,0.0020509566143253905,0.19413979768609604,9.811922138646093,0.0,0.0,0.0,0.0,0.0,0.0,0.0,0.0,0.0
2025/05/20 13:02:16.434680747,1747738935,712908931,mA1/imu,0.6664833067132947,-0.7455194244421226,-0.0008884948776445489,-1.5127823876941258e-05,0.0,0.0,0.0,0.0,0.0,0.0,0.0,0.0,0.0,-0.0006164090835656547,-0.005252631295831484,0.0012201379301181913,0.0,0.0,0.0,0.0,0.0,0.0,0.0,0.0,0.0,0.002414550062855899,0.31962333187358405,9.811572115614988,0.0,0.0,0.0,0.0,0.0,0.0,0.0,0.0,0.0
2025/05/20 13:02:16.444652239,1747738935,763378281,mA1/imu,0.6664582139438591,-0.745541750638952,-0.0009665299505967333,-0.00011375773673504724,0.0,0.0,0.0,0.0,0.0,0.0,0.0,0.0,0.0,-0.000815157025885435,-0.004873436968125304,0.0013460931134762057,0.0,0.0,0.0,0.0,0.0,0.0,0.0,0.0,0.0,0.01466121047113155,0.5502991145470131,9.81117924584659,0.0,0.0,0.0,0.0,0.0,0.0,0.0,0.0,0.0
2025/05/20 13:02:16.457864319,1747738935,814938013,mA1/imu,0.6664361991891667,-0.7455613067033635,-0.0010427345605835856,-0.00020751314798068195,0.0,0.0,0.0,0.0,0.0,0.0,0.0,0.0,0.0,-0.0005518293490792626,-0.004679161342408953,0.0011274971174214923,0.0,0.0,0.0,0.0,0.0,0.0,0.0,0.0,0.0,0.020972064632700186,0.586226192443167,9.811346713282777,0.0,0.0,0.0,0.0,0.0,0.0,0.0,0.0,0.0
2025/05/20 13:02:16.458042697,1747738935,864823442,mA1/imu,0.6664159882629941,-0.7455792330268488,-0.0011216171549900318,-0.0002825624011867215,0.0,0.0,0.0,0.0,0.0,0.0,0.0,0.0,0.0,-0.0017863501887738996,-0.0040690454356456475,0.0010449448253994997,0.0,0.0,0.0,0.0,0.0,0.0,0.0,0.0,0.0,0.020380172456369656,0.5146745727386357,9.809972280479883,0.0,0.0,0.0,0.0,0.0,0.0,0.0,0.0,0.0
2025/05/20 13:02:17.417051183,1747738936,462607918,mA1/imu,0.6662811504799155,-0.7457001175038788,-0.0008588427647204147,0.0001601841671472424,0.0,0.0,0.0,0.0,0.0,0.0,0.0,0.0,0.0,-0.0006831821074123268,0.004550397770686883,0.00024087994693633075,0.0,0.0,0.0,0.0,0.0,0.0,0.0,0.0,0.0,0.021135907996746982,0.29648400839288885,9.810528811125616,0.0,0.0,0.0,0.0,0.0,0.0,0.0,0.0,0.0
2025/05/20 13:02:17.426828117,1747738936,515119225,mA1/imu,0.6662767086258312,-0.7457041453285613,-0.0007863252949661859,0.00023848492546011736,0.0,0.0,0.0,0.0,0.0,0.0,0.0,0.0,0.0,-0.0004241736409596536,0.004052369071407358,0.0002441649915352025,0.0,0.0,0.0,0.0,0.0,0.0,0.0,0.0,0.0,0.02259777383233295,-0.07017352988503395,9.810969203134128,0.0,0.0,0.0,0.0,0.0,0.0,0.0,0.0,0.0
2025/05/20 13:02:17.439905728,1747738936,564933933,mA1/imu,0.6662721319332652,-0.745708283333032,-0.0007168969056542342,0.0002973826337275682,0.0,0.0,0.0,0.0,0.0,0.0,0.0,0.0,0.0,0.0012093704961096438,0.003239781156662841,0.00026869894683051096,0.0,0.0,0.0,0.0,0.0,0.0,0.0,0.0,0.0,0.02729348138983206,-0.5659084820965572,9.810734077143081,0.0,0.0,0.0,0.0,0.0,0.0,0.0,0.0,0.0
2025/05/20 13:02:17.451032176,1747738936,615959271,mA1/imu,0.6662659481661742,-0.7457138411939914,-0.000662948187371389,0.00033743982002787365,0.0,0.0,0.0,0.0,0.0,0.0,0.0,0.0,0.0,0.0011549615569108797,0.002190943479764198,0.00037911739999254543,0.0,0.0,0.0,0.0,0.0,0.0,0.0,0.0,0.0,0.027342032858487828,0.05308112499713892,9.80929081492035,0.0,0.0,0.0,0.0,0.0,0.0,0.0,0.0,0.0
2025/05/20 13:02:17.460356203,1747738936,665752194,mA1/imu,0.6662585162897049,-0.7457204966883104,-0.0006325558984980284,0.0003607816735806947,0.0,0.0,0.0,0.0,0.0,0.0,0.0,0.0,0.0,-0.0003902679407702857,0.0010413571168737996,0.00039716232375884705,0.0,0.0,0.0,0.0,0.0,0.0,0.0,0.0,0.0,0.027152314124650953,0.567789126224309,9.8107890687826,0.0,0.0,0.0,0.0,0.0,0.0,0.0,0.0,0.0
2025/05/20 13:02:18.418085835,1747738937,466141693,mA1/imu,0.6661460510568942,-0.7458204104700545,-0.0011303301792643518,-0.0002762992413736771,0.0,0.0,0.0,0.0,0.0,0.0,0.0,0.0,0.0,-0.0006176497055542452,0.0026313683932136936,0.0003568771863851715,0.0,0.0,0.0,0.0,0.0,0.0,0.0,0.0,0.0,0.016196491651848798,0.5583195730897657,9.810537596050949,0.0,0.0,0.0,0.0,0.0,0.0,0.0,0.0,0.0
2025/05/20 13:02:18.421122525,1747738937,517182038,mA1/imu,0.6661393428291263,-0.7458264900415881,-0.0010851043905533262,-0.0002126872969551938,0.0,0.0,0.0,0.0,0.0,0.0,0.0,0.0,0.0,-0.0009718390567068513,0.003394386718550528,0.00036957129851910913,0.0,0.0,0.0,0.0,0.0,0.0,0.0,0.0,0.0,0.016950435481629,0.249542199785115,9.809438422109004,0.0,0.0,0.0,0.0,0.0,0.0,0.0,0.0,0.0
2025/05/20 13:02:18.428386241,1747738937,567071823,mA1/imu,0.6661327920660178,-0.7458324412193919,-0.0010268376733343942,-0.00013624773864666915,0.0,0.0,0.0,0.0,0.0,0.0,0.0,0.0,0.0,-0.0007683724341285195,0.0041098099279609605,0.00028464292434271906,0.0,0.0,0.0,0.0,0.0,0.0,0.0,0.0,0.0,0.016670546976001597,-0.047157864309548894,9.808531429965702,0.0,0.0,0.0,0.0,0.0,0.0,0.0,0.0,0.0
2025/05/20 13:02:19.368328211,1747738938,415885208,mA1/imu,0.6661184425833381,-0.7458457057222718,-0.0005806356944645385,0.0002580081101824968,0.0,0.0,0.0,0.0,0.0,0.0,0.0,0.0,0.0,0.0022031981157525087,-0.005732091271312635,0.0005816221355935584,0.0,0.0,0.0,0.0,0.0,0.0,0.0,0.0,0.0,-0.004466380589858147,-0.5107265956200896,9.807797813639683,0.0,0.0,0.0,0.0,0.0,0.0,0.0,0.0,0.0
2025/05/20 13:02:19.371047878,1747738938,465410969,mA1/imu,0.666106705960869,-0.7458561408655219,-0.0006717978691851396,0.00014864311042327773,0.0,0.0,0.0,0.0,0.0,0.0,0.0,0.0,0.0,0.00063907442335428,-0.005625452413106971,0.0006553434573378585,0.0,0.0,0.0,0.0,0.0,0.0,0.0,0.0,0.0,-0.004472443402185211,-0.1375335258805082,9.810371420193306,0.0,0.0,0.0,0.0,0.0,0.0,0.0,0.0,0.0
2025/05/20 13:02:19.377792143,1747738938,516372084,mA1/imu,0.6660936245286772,-0.7458677573613037,-0.0007550352368446455,4.2577698296781315e-05,0.0,0.0,0.0,0.0,0.0,0.0,0.0,0.0,0.0,-0.00016620323263979262,-0.005187391169392601,0.0007244238074671553,0.0,0.0,0.0,0.0,0.0,0.0,0.0,0.0,0.0,-0.005393443564329947,-0.1471391752481872,9.810306385169818,0.0,0.0,0.0,0.0,0.0,0.0,0.0,0.0,0.0
2025/05/20 13:02:19.392638931,1747738938,566285117,mA1/imu,0.6660786355949209,-0.7458810719162202,-0.0008215149998654979,-5.361179190024038e-05,0.0,0.0,0.0,0.0,0.0,0.0,0.0,0.0,0.0,0.0006755819556139656,-0.004169225392787842,0.0008539825803463404,0.0,0.0,0.0,0.0,0.0,0.0,0.0,0.0,0.0,-0.016077651528751808,-0.3040127137623991,9.807058851637365,0.0,0.0,0.0,0.0,0.0,0.0,0.0,0.0,0.0
2025/05/20 13:02:19.400107961,1747738938,618303885,mA1/imu,0.6660618399183432,-0.7458960069263326,-0.0008702409033830871,-0.00012221584997616216,0.0,0.0,0.0,0.0,0.0,0.0,0.0,0.0,0.0,0.000409135738419177,-0.0027568653357534123,0.0009218232033554409,0.0,0.0,0.0,0.0,0.0,0.0,0.0,0.0,0.0,-0.020071676017759162,0.3134339806320367,9.809435189195465,0.0,0.0,0.0,0.0,0.0,0.0,0.0,0.0,0.0
2025/05/20 13:02:19.409578171,1747738938,668205062,mA1/imu,0.6660459548072524,-0.7459101396075737,-0.0009086041738144053,-0.00015541544574212957,0.0,0.0,0.0,0.0,0.0,0.0,0.0,0.0,0.0,-0.0006820842693214392,-0.0015903883495962414,0.0007483902785114306,0.0,0.0,0.0,0.0,0.0,0.0,0.0,0.0,0.0,-0.0016896532595097463,-0.03293974759497454,9.809131382837315,0.0,0.0,0.0,0.0,0.0,0.0,0.0,0.0,0.0
2025/05/20 13:02:20.364689518,1747738939,415247731,mA1/imu,0.6662316632761835,-0.74574416571793,-1.4195470062665057e-05,0.0010049599031599547,0.0,0.0,0.0,0.0,0.0,0.0,0.0,0.0,0.0,-8.447494451065193e-05,0.000154224545352254,-0.0011049950462162646,0.0,0.0,0.0,0.0,0.0,0.0,0.0,0.0,0.0,-0.009094079621714319,-0.6320524894585601,9.810812782035741,0.0,0.0,0.0,0.0,0.0,0.0,0.0,0.0,0.0
2025/05/20 13:02:20.367104366,1747738939,467489382,mA1/imu,0.6662525069618999,-0.745725577828096,-2.0948177210212016e-05,0.0009793370768585096,0.0,0.0,0.0,0.0,0.0,0.0,0.0,0.0,0.0,0.0004243603133249055,-0.0016469008449400226,-0.0010745809997053117,0.0,0.0,0.0,0.0,0.0,0.0,0.0,0.0,0.0,-0.013651861027507138,-0.2608424172293084,9.811785037404295,0.0,0.0,0.0,0.0,0.0,0.0,0.0,0.0,0.0
2025/05/20 13:02:20.377416129,1747738939,518044187,mA1/imu,0.6662696779708862,-0.7457102958864613,-6.282767921917813e-05,0.0009310629305427958,0.0,0.0,0.0,0.0,0.0,0.0,0.0,0.0,0.0,-0.0011875595926414979,-0.0031393783660809645,-0.0008111878377985473,0.0,0.0,0.0,0.0,0.0,0.0,0.0,0.0,0.0,-0.01391792357385819,0.5369188199141212,9.809199960215878,0.0,0.0,0.0,0.0,0.0,0.0,0.0,0.0,0.0
2025/05/20 13:02:20.387019489,1747738939,569610304,mA1/imu,0.6662816323766686,-0.7456997077809956,-0.00011935637116204407,0.0008473056570046994,0.0,0.0,0.0,0.0,0.0,0.0,0.0,0.0,0.0,-0.00034554189250319547,-0.004495575059379425,-0.0005215560781278733,0.0,0.0,0.0,0.0,0.0,0.0,0.0,0.0,0.0,-0.016439251034195704,0.5967333122495174,9.811922883382572,0.0,0.0,0.0,0.0,0.0,0.0,0.0,0.0,0.0
2025/05/20 13:02:20.397199864,1747738939,612342786,mA1/imu,0.6662879743816157,-0.7456941323687545,-0.00020269405153807633,0.0007450237413782741,0.0,0.0,0.0,0.0,0.0,0.0,0.0,0.0,0.0,0.0016245347286585423,-0.005742359040076039,-0.00021004181731523614,0.0,0.0,0.0,0.0,0.0,0.0,0.0,0.0,0.0,-0.012302521721291058,-0.5298886774963999,9.809952429797388,0.0,0.0,0.0,0.0,0.0,0.0,0.0,0.0,0.0
2025/05/20 13:02:20.769892789,1747738939,813859712,mA1/imu,0.6662597754431054,-0.7457194047570086,-0.0006694230094933431,0.00018129586318508726,0.0,0.0,0.0,0.0,0.0,0.0,0.0,0.0,0.0,0.00019368786161779326,-0.008290098673751614,0.0005713024535508528,0.0,0.0,0.0,0.0,0.0,0.0,0.0,0.0,0.0,0.004079183685240606,0.364484567419107,9.80843556971845,0.0,0.0,0.0,0.0,0.0,0.0,0.0,0.0,0.0
2025/05/20 13:02:20.771090847,1747738939,863763575,mA1/imu,0.666249046003563,-0.7457288799408689,-0.0008035438819859288,2.527268730802577e-05,0.0,0.0,0.0,0.0,0.0,0.0,0.0,0.0,0.0,-0.0001656340685531572,-0.008111424998921923,0.0005646894957344783,0.0,0.0,0.0,0.0,0.0,0.0,0.0,0.0,0.0,0.0027953327009798247,0.04590741646272735,9.808241789045875,0.0,0.0,0.0,0.0,0.0,0.0,0.0,0.0,0.0
2025/05/20 13:02:20.780588467,1747738939,914751211,mA1/imu,0.6662384121646437,-0.7457382261529014,-0.0009278995893327674,-0.00012334103317027773,0.0,0.0,0.0,0.0,0.0,0.0,0.0,0.0,0.0,-4.319430177882117e-05,-0.007438338879006965,0.0005592120148489416,0.0,0.0,0.0,0.0,0.0,0.0,0.0,0.0,0.0,0.0009700908138528547,-0.014096771526008006,9.808068054299541,0.0,0.0,0.0,0.0,0.0,0.0,0.0,0.0,0.0
2025/05/20 13:02:20.792630716,1747738939,964914720,mA1/imu,0.6662278641918082,-0.7457474789036027,-0.0010311868631248727,-0.0002594937290322747,0.0,0.0,0.0,0.0,0.0,0.0,0.0,0.0,0.0,0.0015039842842839465,-0.006348001839260636,0.0005554084256398881,0.0,0.0,0.0,0.0,0.0,0.0,0.0,0.0,0.0,-1.7731991223048083e-05,-0.49869159207474395,9.807315205496788,0.0,0.0,0.0,0.0,0.0,0.0,0.0,0.0,0.0
2025/05/20 13:02:20.802369624,1747738940,15974983,mA1/imu,0.6662173907516447,-0.7457566617153777,-0.0011217804224432585,-0.0003624581217990245,0.0,0.0,0.0,0.0,0.0,0.0,0.0,0.0,0.0,-0.0005201149410405988,-0.004880646063053906,0.0005532103285686045,0.0,0.0,0.0,0.0,0.0,0.0,0.0,0.0,0.0,-0.0013945914791935986,0.4604226848516344,9.81063410818722,0.0,0.0,0.0,0.0,0.0,0.0,0.0,0.0,0.0
2025/05/20 13:02:20.814076206,1747738940,65786791,mA1/imu,0.6662069822273672,-0.7457658240857252,-0.0011840363736757033,-0.0004364803656161385,0.0,0.0,0.0,0.0,0.0,0.0,0.0,0.0,0.0,-0.0005101750310872412,-0.0031546059294039297,0.0005512961385612886,0.0,0.0,0.0,0.0,0.0,0.0,0.0,0.0,0.0,-0.0020349807331464104,-0.03662105105158781,9.809894295886597,0.0,0.0,0.0,0.0,0.0,0.0,0.0,0.0,0.0
2025/05/20 13:02:21.767808400,1747738940,818338732,mA1/imu,0.6659489025925472,-0.7459970378876164,-0.00044080477862996193,0.0005331883638791412,0.0,0.0,0.0,0.0,0.0,0.0,0.0,0.0,0.0,0.00020963036377776606,-0.00386277466958301,0.0012389862566899502,0.0,0.0,0.0,0.0,0.0,0.0,0.0,0.0,0.0,0.029984710249051152,0.11507824879644742,9.809586458700501,0.0,0.0,0.0,0.0,0.0,0.0,0.0,0.0,0.0
2025/05/20 13:02:21.780111662,1747738940,870666085,mA1/imu,0.6659263227469652,-0.7460171898456837,-0.0005315296576261373,0.00045011518185870546,0.0,0.0,0.0,0.0,0.0,0.0,0.0,0.0,0.0,-0.00040094361801570097,-0.005540405707425349,0.0011864440852793565,0.0,0.0,0.0,0.0,0.0,0.0,0.0,0.0,0.0,0.029322716493152077,0.2523092617570829,9.809375924115393,0.0,0.0,0.0,0.0,0.0,0.0,0.0,0.0,0.0
2025/05/20 13:02:21.789388347,1747738940,911572430,mA1/imu,0.665904653078326,-0.7460365045690056,-0.0006431934514452653,0.00033639452798912936,0.0,0.0,0.0,0.0,0.0,0.0,0.0,0.0,0.0,-0.00023571863675581468,-0.0068636820179649605,0.0011374573957580645,0.0,0.0,0.0,0.0,0.0,0.0,0.0,0.0,0.0,0.026842047104593217,0.005945055481196167,9.806875809633162,0.0,0.0,0.0,0.0,0.0,0.0,0.0,0.0,0.0
2025/05/20 13:02:21.803175736,1747738940,962021199,mA1/imu,0.665883830351251,-0.7460550196599595,-0.0007695536124795703,0.0001997602597841717,0.0,0.0,0.0,0.0,0.0,0.0,0.0,0.0,0.0,-5.9020574409808605e-05,-0.007773422275284585,0.0010904673472693456,0.0,0.0,0.0,0.0,0.0,0.0,0.0,0.0,0.0,0.025991830015292025,0.00838065813819284,9.806457431722444,0.0,0.0,0.0,0.0,0.0,0.0,0.0,0.0,0.0
2025/05/20 13:02:21.814674499,1747738941,13086756,mA1/imu,0.6658638152351611,-0.7460727632413118,-0.0008996600841805493,4.606171677818538e-05,0.0,0.0,0.0,0.0,0.0,0.0,0.0,0.0,0.0,0.0004926630603187771,-0.008173268190709349,0.0010458746747599547,0.0,0.0,0.0,0.0,0.0,0.0,0.0,0.0,0.0,0.021771376611666584,0.033874754054823125,9.809243382987285,0.0,0.0,0.0,0.0,0.0,0.0,0.0,0.0,0.0
2025/05/20 13:02:22.767549759,1747738941,817708754,mA1/imu,0.6656032848390174,-0.7463055553411435,-0.00041509373948995685,0.00033611849758124904,0.0,0.0,0.0,0.0,0.0,0.0,0.0,0.0,0.0,-0.0013503656117686274,0.007314839296378708,0.0010245049800644737,0.0,0.0,0.0,0.0,0.0,0.0,0.0,0.0,0.0,0.01812792786328852,0.3107014125892905,9.811890656774857,0.0,0.0,0.0,0.0,0.0,0.0,0.0,0.0,0.0
2025/05/20 13:02:22.772410252,1747738941,868624705,mA1/imu,0.6655834884536329,-0.7463231868849511,-0.0003174054784358694,0.0004689024902784647,0.0,0.0,0.0,0.0,0.0,0.0,0.0,0.0,0.0,-0.0014700238668083113,0.006021071039240713,0.0010902911851664845,0.0,0.0,0.0,0.0,0.0,0.0,0.0,0.0,0.0,0.01808244150945493,0.4421430740615772,9.809219931614322,0.0,0.0,0.0,0.0,0.0,0.0,0.0,0.0,0.0
2025/05/20 13:02:22.784380352,1747738941,919581406,mA1/imu,0.6655624532953921,-0.7463418924685492,-0.00025272607035135527,0.000580033978834987,0.0,0.0,0.0,0.0,0.0,0.0,0.0,0.0,0.0,-0.0002040733897483386,0.004345851567618075,0.0011541563555014036,0.0,0.0,0.0,0.0,0.0,0.0,0.0,0.0,0.0,0.01939579213681579,-0.5240174105178015,9.809149853393382,0.0,0.0,0.0,0.0,0.0,0.0,0.0,0.0,0.0
2025/05/20 13:02:22.786273330,1747738941,969749944,mA1/imu,0.6655402063408019,-0.7463616703368428,-0.00022510457661662687,0.0006634182470408365,0.0,0.0,0.0,0.0,0.0,0.0,0.0,0.0,0.0,-0.002426723491255386,0.00245914703408543,0.0012174162247315708,0.0,0.0,0.0,0.0,0.0,0.0,0.0,0.0,0.0,0.019787983772206245,0.528677326917755,9.80941747497912,0.0,0.0,0.0,0.0,0.0,0.0,0.0,0.0,0.0
2025/05/20 13:02:22.793269892,1747738942,11967151,mA1/imu,0.6655167839862098,-0.7463825212524217,-0.00022175820630124314,0.0007021572678827666,0.0,0.0,0.0,0.0,0.0,0.0,0.0,0.0,0.0,-0.0014943464454926162,0.00044396243599052683,0.0012796340485699495,0.0,0.0,0.0,0.0,0.0,0.0,0.0,0.0,0.0,0.019461259773980347,0.05653535357330988,9.808981328744862,0.0,0.0,0.0,0.0,0.0,0.0,0.0,0.0,0.0
2025/05/20 13:02:22.801226070,1747738942,61818465,mA1/imu,0.6654921747224479,-0.7464044478376537,-0.00025591418377278956,0.0007072052634407558,0.0,0.0,0.0,0.0,0.0,0.0,0.0,0.0,0.0,-0.0006631659942081469,-0.0015501696253283868,0.0013432467070491388,0.0,0.0,0.0,0.0,0.0,0.0,0.0,0.0,0.0,0.018218894213936576,-0.5853171383301857,9.808133695141805,0.0,0.0,0.0,0.0,0.0,0.0,0.0,0.0,0.0
2025/05/20 13:02:23.417914692,1747738942,461272548,mA1/imu,0.6652501027407313,-0.74661971034813,-0.0011307009864085643,-0.00017446604343273258,0.0,0.0,0.0,0.0,0.0,0.0,0.0,0.0,0.0,-0.0002654871003337575,-0.006440415226302581,0.001886247580465142,0.0,0.0,0.0,0.0,0.0,0.0,0.0,0.0,0.0,0.0059617924598975094,0.5914929893332715,9.809650909671385,0.0,0.0,0.0,0.0,0.0,0.0,0.0,0.0,0.0
2025/05/20 13:02:23.420762465,1747738942,512266484,mA1/imu,0.6652139333264413,-0.7466517696711149,-0.0012132801375635644,-0.00029275700661727524,0.0,0.0,0.0,0.0,0.0,0.0,0.0,0.0,0.0,0.002140806688400041,-0.005208896588530103,0.00195734293765374,0.0,0.0,0.0,0.0,0.0,0.0,0.0,0.0,0.0,0.003738725418180471,-0.5152334461993728,9.810000675048201,0.0,0.0,0.0,0.0,0.0,0.0,0.0,0.0,0.0
2025/05/20 13:02:23.428311084,1747738942,562222340,mA1/imu,0.6651763432692334,-0.7466851125239036,-0.001277135558816846,-0.00037949295239032897,0.0,0.0,0.0,0.0,0.0,0.0,0.0,0.0,0.0,0.00043825151690512647,-0.0036329094628681103,0.002043908627615882,0.0,0.0,0.0,0.0,0.0,0.0,0.0,0.0,0.0,0.001753522691250075,-0.01694297894820395,9.808847213762624,0.0,0.0,0.0,0.0,0.0,0.0,0.0,0.0,0.0
2025/05/20 13:02:23.439387943,1747738942,614572493,mA1/imu,0.6651370211765734,-0.746720062519532,-0.0013020773007884796,-0.0004425899722257621,0.0,0.0,0.0,0.0,0.0,0.0,0.0,0.0,0.0,0.0011810406165605196,-0.0018131210493182118,0.0021400778724679718,0.0,0.0,0.0,0.0,0.0,0.0,0.0,0.0,0.0,0.0013837046378463204,-0.602726638641186,9.81009333286871,0.0,0.0,0.0,0.0,0.0,0.0,0.0,0.0,0.0
2025/05/20 13:02:23.450761731,1747738942,663748729,mA1/imu,0.6650959610400334,-0.7467566319566802,-0.0012926909496749402,-0.0004734839579501592,0.0,0.0,0.0,0.0,0.0,0.0,0.0,0.0,0.0,0.0005399315857284488,8.894373127497726e-05,0.00223579007232423,0.0,0.0,0.0,0.0,0.0,0.0,0.0,0.0,0.0,0.0015861354147019245,-0.020902720970351025,9.812357757310382,0.0,0.0,0.0,0.0,0.0,0.0,0.0,0.0,0.0
2025/05/20 13:02:23.460581973,1747738942,714767650,mA1/imu,0.6650531719772389,-0.7467948106512368,-0.001253049647663738,-0.00046807475610877663,0.0,0.0,0.0,0.0,0.0,0.0,0.0,0.0,0.0,-0.00013431714080515487,0.0019599925715536935,0.002331510296475747,0.0,0.0,0.0,0.0,0.0,0.0,0.0,0.0,0.0,0.0024266090431279246,0.5028163836344756,9.81194417155564,0.0,0.0,0.0,0.0,0.0,0.0,0.0,0.0,0.0
2025/05/20 13:02:24.421160796,1747738943,465849640,mA1/imu,0.664305831195836,-0.7474605980346739,-0.00038831713517854805,0.0005159793210046791,0.0,0.0,0.0,0.0,0.0,0.0,0.0,0.0,0.0,-0.001335968568150227,-0.004854223891150526,0.0030232470187614782,0.0,0.0,0.0,0.0,0.0,0.0,0.0,0.0,0.0,0.003804094837250158,0.40341885804783095,9.808628902662674,0.0,0.0,0.0,0.0,0.0,0.0,0.0,0.0,0.0
2025/05/20 13:02:24.429365738,1747738943,516808771,mA1/imu,0.6642499789575416,-0.7475102265503217,-0.0004925609574530849,0.0004290003440444161,0.0,0.0,0.0,0.0,0.0,0.0,0.0,0.0,0.0,-0.0016583024915004625,-0.005643200453083909,0.0029612135179185603,0.0,0.0,0.0,0.0,0.0,0.0,0.0,0.0,0.0,-0.00017715207440566615,0.5882786352136875,9.808962283445425,0.0,0.0,0.0,0.0,0.0,0.0,0.0,0.0,0.0
2025/05/20 13:02:24.440092311,1747738943,566627413,mA1/imu,0.6641938965824807,-0.7475600188102014,-0.0006109203269526387,0.0003358503034145053,0.0,0.0,0.0,0.0,0.0,0.0,0.0,0.0,0.0,-0.0014502579140252278,-0.006065631401692932,0.003040112628344157,0.0,0.0,0.0,0.0,0.0,0.0,0.0,0.0,0.0,-0.0001632954454332848,0.608667663118296,9.80972469790345,0.0,0.0,0.0,0.0,0.0,0.0,0.0,0.0,0.0
2025/05/20 13:02:24.450103161,1747738943,617832031,mA1/imu,0.6641359606762398,-0.7476114152689441,-0.0007346888626041148,0.00024026753760650603,0.0,0.0,0.0,0.0,0.0,0.0,0.0,0.0,0.0,-0.0019172920705070164,-0.0061475402324658495,0.0031277126526235116,0.0,0.0,0.0,0.0,0.0,0.0,0.0,0.0,0.0,-0.0008020582262368127,0.5705100136325446,9.80920664241726,0.0,0.0,0.0,0.0,0.0,0.0,0.0,0.0,0.0
2025/05/20 13:02:24.460320811,1747738943,667455409,mA1/imu,0.6640763874820825,-0.7476642326661378,-0.0008521589766423705,0.00014354644108081004,0.0,0.0,0.0,0.0,0.0,0.0,0.0,0.0,0.0,-0.0013952368074020899,-0.005867707034676324,0.0032167660745204634,0.0,0.0,0.0,0.0,0.0,0.0,0.0,0.0,0.0,-0.0023141113108926404,-0.027812537980212153,9.808844002021354,0.0,0.0,0.0,0.0,0.0,0.0,0.0,0.0,0.0
2025/05/20 13:02:24.471974695,1747738943,718490626,mA1/imu,0.664015079371542,-0.7477185695949058,-0.0009552508320471397,5.045790925871976e-05,0.0,0.0,0.0,0.0,0.0,0.0,0.0,0.0,0.0,0.0003405899332745761,-0.00525094443568981,0.003310668168139255,0.0,0.0,0.0,0.0,0.0,0.0,0.0,0.0,0.0,-0.0036454203262869782,-0.5519167391141107,9.810424900501923,0.0,0.0,0.0,0.0,0.0,0.0,0.0,0.0,0.0
2025/05/20 13:02:25.119325156,1747738944,165918174,mA1/imu,0.663377954062671,-0.7482840008984896,-0.000861091319571689,5.084007764302804e-05,0.0,0.0,0.0,0.0,0.0,0.0,0.0,0.0,0.0,0.0013854600240689428,0.005135569949796438,0.004205429221652707,0.0,0.0,0.0,0.0,0.0,0.0,0.0,0.0,0.0,-9.183005175082692e-05,0.08883982272502704,9.809395965937831,0.0,0.0,0.0,0.0,0.0,0.0,0.0,0.0,0.0
2025/05/20 13:02:25.126598646,1747738944,217035174,mA1/imu,0.6632982325213791,-0.7483547713203004,-0.000756296273613014,0.00013781183441797373,0.0,0.0,0.0,0.0,0.0,0.0,0.0,0.0,0.0,0.00046668279236978643,0.005499192008550032,0.004308000337542553,0.0,0.0,0.0,0.0,0.0,0.0,0.0,0.0,0.0,0.0015308060507292238,0.5978671871552742,9.812133731071564,0.0,0.0,0.0,0.0,0.0,0.0,0.0,0.0,0.0
2025/05/20 13:02:25.138140151,1747738944,266730290,mA1/imu,0.6632166410931929,-0.7484271618312921,-0.0006472229434095108,0.0002269640529194201,0.0,0.0,0.0,0.0,0.0,0.0,0.0,0.0,0.0,0.0005119761326007951,0.005562754442932832,0.004404496985338476,0.0,0.0,0.0,0.0,0.0,0.0,0.0,0.0,0.0,0.0015733581121154692,-0.024435959078819333,9.81085924902196,0.0,0.0,0.0,0.0,0.0,0.0,0.0,0.0,0.0
2025/05/20 13:02:25.150116625,1747738944,317810349,mA1/imu,0.6631332181783839,-0.7485011330220444,-0.0005398087075924899,0.00031212121860245195,0.0,0.0,0.0,0.0,0.0,0.0,0.0,0.0,0.0,0.0013010217446407883,0.005242397783525056,0.004502583406314288,0.0,0.0,0.0,0.0,0.0,0.0,0.0,0.0,0.0,0.0046474977160379845,-0.5988361841052929,9.809203692695188,0.0,0.0,0.0,0.0,0.0,0.0,0.0,0.0,0.0
2025/05/20 13:02:25.152930247,1747738944,368246655,mA1/imu,0.663047922332675,-0.7485767213077184,-0.0004406892835760974,0.00038832906800987716,0.0,0.0,0.0,0.0,0.0,0.0,0.0,0.0,0.0,0.0016433150870411761,0.004631094885842479,0.00460285898785084,0.0,0.0,0.0,0.0,0.0,0.0,0.0,0.0,0.0,0.00501505965913956,-0.5664670195427874,9.808778707319041,0.0,0.0,0.0,0.0,0.0,0.0,0.0,0.0,0.0
2025/05/20 13:02:25.161354040,1747738944,419007903,mA1/imu,0.6629608026427489,-0.7486538898930634,-0.00035374487232679285,0.000449635221203173,0.0,0.0,0.0,0.0,0.0,0.0,0.0,0.0,0.0,0.0006044807500471872,0.003775862482087338,0.004694549900048906,0.0,0.0,0.0,0.0,0.0,0.0,0.0,0.0,0.0,0.0055371739884782015,0.4528408563997344,9.810471077370913,0.0,0.0,0.0,0.0,0.0,0.0,0.0,0.0,0.0
2025/05/20 13:02:26.121172833,1747738945,169328386,mA1/imu,0.6617552721940673,-0.749718850381108,-0.0012206263163895034,-0.00033937881694614326,0.0,0.0,0.0,0.0,0.0,0.0,0.0,0.0,0.0,-0.0005349532335503185,-0.0005366550773743623,0.0038369004691466485,0.0,0.0,0.0,0.0,0.0,0.0,0.0,0.0,0.0,0.00525151880588166,0.4181964455831384,9.812795542045631,0.0,0.0,0.0,0.0,0.0,0.0,0.0,0.0,0.0
2025/05/20 13:02:26.125950220,1747738945,220328884,mA1/imu,0.6616839637317989,-0.7497817869956485,-0.0012243330639637332,-0.0003240961830562404,0.0,0.0,0.0,0.0,0.0,0.0,0.0,0.0,0.0,-0.0008685882919573572,0.0009508498553698209,0.0037822509900559214,0.0,0.0,0.0,0.0,0.0,0.0,0.0,0.0,0.0,0.005608701003392447,0.18259988897546,9.812301794248635,0.0,0.0,0.0,0.0,0.0,0.0,0.0,0.0,0.0
2025/05/20 13:02:26.131916867,1747738945,270313214,mA1/imu,0.6616137680189362,-0.749843786310623,-0.0011982917643883688,-0.00028669841545616535,0.0,0.0,0.0,0.0,0.0,0.0,0.0,0.0,0.0,-4.486454355374781e-05,0.0023552169021135373,0.0037253194410809642,0.0,0.0,0.0,0.0,0.0,0.0,0.0,0.0,0.0,0.006212569964582351,0.020494514880558277,9.81243711866202,0.0,0.0,0.0,0.0,0.0,0.0,0.0,0.0,0.0
2025/05/20 13:02:26.142759694,1747738945,311043987,mA1/imu,0.6615447149210322,-0.7499048036645668,-0.0011511223147904364,-0.00022476270653102183,0.0,0.0,0.0,0.0,0.0,0.0,0.0,0.0,0.0,-0.0005300882576652322,0.003568387638450928,0.0036631421500927324,0.0,0.0,0.0,0.0,0.0,0.0,0.0,0.0,0.0,0.008588369517256512,-0.023913309725090856,9.810036134381546,0.0,0.0,0.0,0.0,0.0,0.0,0.0,0.0,0.0
2025/05/20 13:02:26.153481855,1747738945,361134943,mA1/imu,0.6614768779090597,-0.749964771936777,-0.0010761217210436284,-0.00015102166234278803,0.0,0.0,0.0,0.0,0.0,0.0,0.0,0.0,0.0,-0.0001294166942357725,0.004582322025533712,0.003601989815511072,0.0,0.0,0.0,0.0,0.0,0.0,0.0,0.0,0.0,0.007694266396116735,-0.008222428700479106,9.811520774346299,0.0,0.0,0.0,0.0,0.0,0.0,0.0,0.0,0.0
2025/05/20 13:02:26.165810180,1747738945,412341758,mA1/imu,0.6614102439633925,-0.750023670763964,-0.000989350083821628,-6.050162010324563e-05,0.0,0.0,0.0,0.0,0.0,0.0,0.0,0.0,0.0,0.0003797466966900418,0.005269187733825012,0.0035385873979765043,0.0,0.0,0.0,0.0,0.0,0.0,0.0,0.0,0.0,0.009562357461328917,0.01726309013541666,9.81036806539528,0.0,0.0,0.0,0.0,0.0,0.0,0.0,0.0,0.0
2025/05/20 13:02:27.122128938,1747738946,169474480,mA1/imu,0.6606912694329706,-0.7506574820971728,-0.0006146884269541513,0.00011499878373827721,0.0,0.0,0.0,0.0,0.0,0.0,0.0,0.0,0.0,-0.00010290684008100737,-0.004827843384705339,0.0020308519731903046,0.0,0.0,0.0,0.0,0.0,0.0,0.0,0.0,0.0,0.005746582757121212,-0.06055987425106054,9.810587084013655,0.0,0.0,0.0,0.0,0.0,0.0,0.0,0.0,0.0
2025/05/20 13:02:27.125349464,1747738946,220491390,mA1/imu,0.6606537328471831,-0.750690454183821,-0.0006974967915195198,2.7759635046989417e-05,0.0,0.0,0.0,0.0,0.0,0.0,0.0,0.0,0.0,-0.00022393110316589338,-0.004758951260182184,0.0019730346233663414,0.0,0.0,0.0,0.0,0.0,0.0,0.0,0.0,0.0,0.0037691550808342245,0.014215167930686645,9.810318106814389,0.0,0.0,0.0,0.0,0.0,0.0,0.0,0.0,0.0
2025/05/20 13:02:27.133204292,1747738946,261108183,mA1/imu,0.6606172494785756,-0.7507224762820435,-0.0007814700688422019,-5.099852803089127e-05,0.0,0.0,0.0,0.0,0.0,0.0,0.0,0.0,0.0,-0.0010334851010460556,-0.004439897362106377,0.0019173708285388422,0.0,0.0,0.0,0.0,0.0,0.0,0.0,0.0,0.0,0.0043392837699905065,0.491899645741037,9.812317482080129,0.0,0.0,0.0,0.0,0.0,0.0,0.0,0.0,0.0
2025/05/20 13:02:27.145641475,1747738946,311358751,mA1/imu,0.6605817932128325,-0.7507535855343412,-0.0008563803954444247,-0.00012204780908505738,0.0,0.0,0.0,0.0,0.0,0.0,0.0,0.0,0.0,-3.890311246343738e-05,-0.0038653214106440384,0.0018633219028855036,0.0,0.0,0.0,0.0,0.0,0.0,0.0,0.0,0.0,0.002070681288470525,-0.36404447308388427,9.810603606045905,0.0,0.0,0.0,0.0,0.0,0.0,0.0,0.0,0.0
2025/05/20 13:02:27.155813913,1747738946,361109506,mA1/imu,0.6605473389356493,-0.7507838090151808,-0.0009242825189919371,-0.00017563460374006497,0.0,0.0,0.0,0.0,0.0,0.0,0.0,0.0,0.0,-0.00016757588843240246,-0.0030685227421777617,0.001810897737290244,0.0,0.0,0.0,0.0,0.0,0.0,0.0,0.0,0.0,0.0018168350676447086,-0.33443152365056417,9.810604441494412,0.0,0.0,0.0,0.0,0.0,0.0,0.0,0.0,0.0
2025/05/20 13:02:28.120240573,1747738947,160336201,mA1/imu,0.6601478689327117,-0.7511352390110825,-0.00023804090612203457,0.0007662870808082904,0.0,0.0,0.0,0.0,0.0,0.0,0.0,0.0,0.0,-0.0011394556424496145,-0.00045029741280859287,0.0011163846217037735,0.0,0.0,0.0,0.0,0.0,0.0,0.0,0.0,0.0,0.0005983073609819121,0.5176789475401856,9.810194730967435,0.0,0.0,0.0,0.0,0.0,0.0,0.0,0.0,0.0
2025/05/20 13:02:28.124620977,1747738947,211431869,mA1/imu,0.6601270128520511,-0.7511536020577761,-0.00024700548889860087,0.0007293880614084656,0.0,0.0,0.0,0.0,0.0,0.0,0.0,0.0,0.0,0.000920203038558625,-0.00191422034279065,0.0011054326019592788,0.0,0.0,0.0,0.0,0.0,0.0,0.0,0.0,0.0,0.0010434186843951282,-0.6084085209787264,9.809318965215141,0.0,0.0,0.0,0.0,0.0,0.0,0.0,0.0,0.0
2025/05/20 13:02:28.414969631,1747738947,464813216,mA1/imu,0.6600256610936026,-0.7512428083751259,-0.0005592384445563198,0.00023835890715870168,0.0,0.0,0.0,0.0,0.0,0.0,0.0,0.0,0.0,0.001016196078849402,-0.006157892347595865,0.0011215595552850303,0.0,0.0,0.0,0.0,0.0,0.0,0.0,0.0,0.0,0.002311770711267153,0.026945307379735703,9.810008391057194,0.0,0.0,0.0,0.0,0.0,0.0,0.0,0.0,0.0
2025/05/20 13:02:28.417265797,1747738947,515763140,mA1/imu,0.6600013346231327,-0.7512641345282521,-0.0006524257893869338,0.00011317150482012317,0.0,0.0,0.0,0.0,0.0,0.0,0.0,0.0,0.0,0.0003003576644965949,-0.006256519251163955,0.001414982427070303,0.0,0.0,0.0,0.0,0.0,0.0,0.0,0.0,0.0,0.001345091792010174,0.19776587498295625,9.81351707423238,0.0,0.0,0.0,0.0,0.0,0.0,0.0,0.0,0.0
2025/05/20 13:02:28.426258998,1747738947,565573628,mA1/imu,0.6599731629510095,-0.7512887977654843,-0.0007526248964459009,-9.607241178198362e-06,0.0,0.0,0.0,0.0,0.0,0.0,0.0,0.0,0.0,0.00016587718650997824,-0.006403779988617892,0.0015117233453778801,0.0,0.0,0.0,0.0,0.0,0.0,0.0,0.0,0.0,0.01555581144512391,-0.010709329927735956,9.812505889442967,0.0,0.0,0.0,0.0,0.0,0.0,0.0,0.0,0.0
2025/05/20 13:02:28.436246651,1747738947,616500199,mA1/imu,0.6599447302547676,-0.7513136502430015,-0.0008570773701672145,-0.00013185552903089353,0.0,0.0,0.0,0.0,0.0,0.0,0.0,0.0,0.0,0.0007443352173013633,-0.006468880517478571,0.0014661246028234937,0.0,0.0,0.0,0.0,0.0,0.0,0.0,0.0,0.0,0.023984821160932843,-0.5847771781099462,9.809254239385846,0.0,0.0,0.0,0.0,0.0,0.0,0.0,0.0,0.0
2025/05/20 13:02:28.446450835,1747738947,668229045,mA1/imu,0.6599184994385774,-0.7513365313220185,-0.000963254427166274,-0.00025087973724256097,0.0,0.0,0.0,0.0,0.0,0.0,0.0,0.0,0.0,3.7932886917134694e-05,-0.006288011937077687,0.0013386371919615878,0.0,0.0,0.0,0.0,0.0,0.0,0.0,0.0,0.0,0.02378495113174678,-0.4684606859704214,9.810176501544813,0.0,0.0,0.0,0.0,0.0,0.0,0.0,0.0,0.0
2025/05/20 13:02:28.865280374,1747738947,915525655,mA1/imu,0.6598217698157844,-0.7514207311950077,-0.0013403860524758308,-0.0005658381007187176,0.0,0.0,0.0,0.0,0.0,0.0,0.0,0.0,0.0,-0.0020684996270673426,-0.0007207994756510082,0.0007379997894859298,0.0,0.0,0.0,0.0,0.0,0.0,0.0,0.0,0.0,0.01780209793274969,0.5405781282347727,9.81042499009163,0.0,0.0,0.0,0.0,0.0,0.0,0.0,0.0,0.0
2025/05/20 13:02:28.866843198,1747738947,965381886,mA1/imu,0.6598091854526854,-0.7514317738108423,-0.0013518464944903379,-0.0005482798651610572,0.0,0.0,0.0,0.0,0.0,0.0,0.0,0.0,0.0,-0.00043806732338821794,0.0008538341912956346,0.0006267639455344785,0.0,0.0,0.0,0.0,0.0,0.0,0.0,0.0,0.0,0.01692931608187593,-0.6018422460578697,9.80878450946267,0.0,0.0,0.0,0.0,0.0,0.0,0.0,0.0,0.0
2025/05/20 13:02:28.877711637,1747738948,18080988,mA1/imu,0.6597987533350914,-0.751440994678826,-0.0013349444411898397,-0.0005045164963116699,0.0,0.0,0.0,0.0,0.0,0.0,0.0,0.0,0.0,-0.0002641214897673943,0.0023476580881923175,0.0005124702853710877,0.0,0.0,0.0,0.0,0.0,0.0,0.0,0.0,0.0,0.018314325675346445,0.03493280382690672,9.809532452222397,0.0,0.0,0.0,0.0,0.0,0.0,0.0,0.0,0.0
2025/05/20 13:02:28.886871298,1747738948,67590207,mA1/imu,0.6597906323899931,-0.7514482399747074,-0.0012940131095669205,-0.0004354071652209487,0.0,0.0,0.0,0.0,0.0,0.0,0.0,0.0,0.0,-0.0006909572274051529,0.003681143816989521,0.00038781884926860174,0.0,0.0,0.0,0.0,0.0,0.0,0.0,0.0,0.0,0.019156859231308596,0.6288867573297123,9.81073263111997,0.0,0.0,0.0,0.0,0.0,0.0,0.0,0.0,0.0
2025/05/20 13:02:28.897207958,1747738948,118520748,mA1/imu,0.6597848105430444,-0.7514534915909816,-0.0012409586259214426,-0.00033730415092881195,0.0,0.0,0.0,0.0,0.0,0.0,0.0,0.0,0.0,-0.0003395726016231667,0.004749631740807985,0.0002680169116889723,0.0,0.0,0.0,0.0,0.0,0.0,0.0,0.0,0.0,0.020252251975118554,0.019427663094228345,9.809246959953363,0.0,0.0,0.0,0.0,0.0,0.0,0.0,0.0,0.0
2025/05/20 13:02:29.270569003,1747738948,311819239,mA1/imu,0.6597850389764899,-0.7514538588384787,-0.0008853016073855083,0.0001289209667474013,0.0,0.0,0.0,0.0,0.0,0.0,0.0,0.0,0.0,-0.0011801149892780825,0.0059427645862406035,-0.00023896828965445387,0.0,0.0,0.0,0.0,0.0,0.0,0.0,0.0,0.0,0.02718349415732333,-0.0834223767209,9.809250169667642,0.0,0.0,0.0,0.0,0.0,0.0,0.0,0.0,0.0
2025/05/20 13:02:29.276161870,1747738948,362316882,mA1/imu,0.6597910969579137,-0.7514486235725003,-0.0007882651058463409,0.00023053023717954787,0.0,0.0,0.0,0.0,0.0,0.0,0.0,0.0,0.0,-0.0006839296009422629,0.005373470254096833,-0.0003647176819149508,0.0,0.0,0.0,0.0,0.0,0.0,0.0,0.0,0.0,0.02507685317791665,-0.05751394183127556,9.809788261252365,0.0,0.0,0.0,0.0,0.0,0.0,0.0,0.0,0.0
2025/05/20 13:02:29.289103308,1747738948,413293609,mA1/imu,0.6597995431112108,-0.7514412601521642,-0.0007034782301476439,0.0003171270171649747,0.0,0.0,0.0,0.0,0.0,0.0,0.0,0.0,0.0,-0.0005496245104456226,0.004464755134928783,-0.0004946408701933479,0.0,0.0,0.0,0.0,0.0,0.0,0.0,0.0,0.0,0.026929749772033218,-0.06285600741560249,9.812055420711411,0.0,0.0,0.0,0.0,0.0,0.0,0.0,0.0,0.0
2025/05/20 13:02:29.298901558,1747738948,465430432,mA1/imu,0.6598119000603997,-0.7514304456670119,-0.0006315585154314094,0.0003781497092771259,0.0,0.0,0.0,0.0,0.0,0.0,0.0,0.0,0.0,-0.00016411224772294343,0.003081639754949232,-0.000926411921814683,0.0,0.0,0.0,0.0,0.0,0.0,0.0,0.0,0.0,0.05366972043908659,0.3828811623307571,9.81186384919268,0.0,0.0,0.0,0.0,0.0,0.0,0.0,0.0,0.0
2025/05/20 13:02:29.308271753,1747738948,516429172,mA1/imu,0.6598410154076757,-0.7514048918311481,-0.0005972790454158649,0.0004076465748823905,0.0,0.0,0.0,0.0,0.0,0.0,0.0,0.0,0.0,0.00040395417836684163,0.0009340437789023499,-0.001976289370767554,0.0,0.0,0.0,0.0,0.0,0.0,0.0,0.0,0.0,0.04947765812759078,-0.01369638353081109,9.812130052707902,0.0,0.0,0.0,0.0,0.0,0.0,0.0,0.0,0.0
2025/05/20 13:02:29.317781992,1747738948,566265654,mA1/imu,0.6598843090533327,-0.7513668737086799,-0.0005930705360388028,0.00040990948941654236,0.0,0.0,0.0,0.0,0.0,0.0,0.0,0.0,0.0,0.000984312095680265,-0.00013413080096132167,-0.0023884948185085245,0.0,0.0,0.0,0.0,0.0,0.0,0.0,0.0,0.0,0.007348406011246599,-0.584086854896714,9.808282624211945,0.0,0.0,0.0,0.0,0.0,0.0,0.0,0.0,0.0
2025/05/20 13:02:30.269145287,1747738949,320074254,mA1/imu,0.6606877128094067,-0.7506603437830529,-0.0008818519210420464,0.00012942709584277083,0.0,0.0,0.0,0.0,0.0,0.0,0.0,0.0,0.0,-0.0013366080746966909,0.0008908420831168754,-0.0032679325477914145,0.0,0.0,0.0,0.0,0.0,0.0,0.0,0.0,0.0,0.0016902330785509116,0.531530565970209,9.809516666939395,0.0,0.0,0.0,0.0,0.0,0.0,0.0,0.0,0.0
2025/05/20 13:02:30.271940657,1747738949,369874734,mA1/imu,0.6607496416114191,-0.7506058543327859,-0.0008607651575411948,0.0001470886580455701,0.0,0.0,0.0,0.0,0.0,0.0,0.0,0.0,0.0,4.025162768038565e-05,0.0012337242175680372,-0.0033199462704340856,0.0,0.0,0.0,0.0,0.0,0.0,0.0,0.0,0.0,0.001364111562892548,0.6238444496009223,9.809586367456141,0.0,0.0,0.0,0.0,0.0,0.0,0.0,0.0,0.0
2025/05/20 13:02:30.273070132,1747738949,420755229,mA1/imu,0.6608125562003065,-0.7505504830461407,-0.0008408153762820849,0.00017605886753227875,0.0,0.0,0.0,0.0,0.0,0.0,0.0,0.0,0.0,0.0006117213683982371,0.001496267100972782,-0.003371890612149672,0.0,0.0,0.0,0.0,0.0,0.0,0.0,0.0,0.0,0.002058130044902141,0.03136986008719927,9.809049368326178,0.0,0.0,0.0,0.0,0.0,0.0,0.0,0.0,0.0
2025/05/20 13:02:30.282827387,1747738949,461064416,mA1/imu,0.6608765177622947,-0.7504941824667726,-0.0008167406023679494,0.00020805937218170686,0.0,0.0,0.0,0.0,0.0,0.0,0.0,0.0,0.0,0.0002288635746975903,0.0015956935605927003,-0.003435154047262912,0.0,0.0,0.0,0.0,0.0,0.0,0.0,0.0,0.0,0.009054897805474126,-0.01556138363763491,9.808642411453087,0.0,0.0,0.0,0.0,0.0,0.0,0.0,0.0,0.0
2025/05/20 13:02:30.289550031,1747738949,512207087,mA1/imu,0.660937249447082,-0.750440718659337,-0.0007873273394057622,0.00024533047941187016,0.0,0.0,0.0,0.0,0.0,0.0,0.0,0.0,0.0,7.210809744156482e-05,0.0020485638128620175,-0.0030887408348875076,0.0,0.0,0.0,0.0,0.0,0.0,0.0,0.0,0.0,-0.009037788060578186,-0.6452197649583572,9.806657422567971,0.0,0.0,0.0,0.0,0.0,0.0,0.0,0.0,0.0
2025/05/20 13:02:30.289601513,1747738949,562051641,mA1/imu,0.6609938981896498,-0.7503908408985813,-0.000756385430063812,0.00028343015334055124,0.0,0.0,0.0,0.0,0.0,0.0,0.0,0.0,0.0,-0.0004988128241176461,0.0018192966547584686,-0.003032744804920914,0.0,0.0,0.0,0.0,0.0,0.0,0.0,0.0,0.0,0.01227979952200704,-0.04088479068084135,9.810244746304058,0.0,0.0,0.0,0.0,0.0,0.0,0.0,0.0,0.0
2025/05/20 13:02:30.300305309,1747738949,613624574,mA1/imu,0.6610512335818518,-0.7503403354547512,-0.0007385423714310287,0.0003195695996722717,0.0,0.0,0.0,0.0,0.0,0.0,0.0,0.0,0.0,-0.0003951118793477697,0.0013750963968333658,-0.0030704592995267036,0.0,0.0,0.0,0.0,0.0,0.0,0.0,0.0,0.0,0.012529613852831082,-0.0256748007388408,9.809638399642017,0.0,0.0,0.0,0.0,0.0,0.0,0.0,0.0,0.0
2025/05/20 13:02:30.300479707,1747738949,664173611,mA1/imu,0.6611092577346299,-0.750289217283307,-0.0007231604363062989,0.000341767395714199,0.0,0.0,0.0,0.0,0.0,0.0,0.0,0.0,0.0,0.00023793364907929006,0.0008677655481084923,-0.003107262466762826,0.0,0.0,0.0,0.0,0.0,0.0,0.0,0.0,0.0,0.012474019354038215,0.022201905262734804,9.811068476677978,0.0,0.0,0.0,0.0,0.0,0.0,0.0,0.0,0.0
2025/05/20 13:02:30.310797787,1747738949,715889421,mA1/imu,0.6611679517244535,-0.7502374866426232,-0.0007235548283726378,0.0003601625476740441,0.0,0.0,0.0,0.0,0.0,0.0,0.0,0.0,0.0,0.001007517182643285,0.00031390317561289107,-0.0031431722797532428,0.0,0.0,0.0,0.0,0.0,0.0,0.0,0.0,0.0,0.012083048259186213,-0.5490343298833344,9.810089833863607,0.0,0.0,0.0,0.0,0.0,0.0,0.0,0.0,0.0
2025/05/20 13:02:31.270653315,1747738950,316643293,mA1/imu,0.661922918798341,-0.749571170541299,-0.0010519502349066198,5.712736053878917e-05,0.0,0.0,0.0,0.0,0.0,0.0,0.0,0.0,0.0,0.0018109042746132216,-0.0006882315476724612,-0.0035581875795869205,0.0,0.0,0.0,0.0,0.0,0.0,0.0,0.0,0.0,0.007395787241306536,-0.21689172564739345,9.808557218137022,0.0,0.0,0.0,0.0,0.0,0.0,0.0,0.0,0.0
2025/05/20 13:02:31.274048126,1747738950,366493245,mA1/imu,0.6619899499890394,-0.7495119792975481,-0.0010475384198963167,4.081960281052154e-05,0.0,0.0,0.0,0.0,0.0,0.0,0.0,0.0,0.0,0.0014005801093631004,-0.00015901284405717218,-0.0035904139717142527,0.0,0.0,0.0,0.0,0.0,0.0,0.0,0.0,0.0,0.008213145461942588,0.21204096384728716,9.810287623926142,0.0,0.0,0.0,0.0,0.0,0.0,0.0,0.0,0.0
2025/05/20 13:02:31.284264613,1747738950,417466844,mA1/imu,0.6620575926922982,-0.7494522405332583,-0.0010399729866068963,3.9678015230170446e-05,0.0,0.0,0.0,0.0,0.0,0.0,0.0,0.0,0.0,0.000535418831016385,0.0003739356832251085,-0.0036232097974518217,0.0,0.0,0.0,0.0,0.0,0.0,0.0,0.0,0.0,0.008271083337611049,-0.0230702014970194,9.808900755963359,0.0,0.0,0.0,0.0,0.0,0.0,0.0,0.0,0.0
2025/05/20 13:02:31.296382965,1747738950,467237917,mA1/imu,0.6621237125549971,-0.749393858439299,-0.0010159055263600644,4.627968275508661e-05,0.0,0.0,0.0,0.0,0.0,0.0,0.0,0.0,0.0,-5.641591833915768e-05,0.0013776748266778813,-0.003274435368993637,0.0,0.0,0.0,0.0,0.0,0.0,0.0,0.0,0.0,-0.030685980758282567,-0.470908957369159,9.809374542720265,0.0,0.0,0.0,0.0,0.0,0.0,0.0,0.0,0.0
2025/05/20 13:02:31.304532943,1747738950,518212989,mA1/imu,0.6621786793858889,-0.7493453494316769,-0.0009688997351571467,7.131045974095618e-05,0.0,0.0,0.0,0.0,0.0,0.0,0.0,0.0,0.0,0.0013701213785722594,0.0021416037404725745,-0.0028892338619035287,0.0,0.0,0.0,0.0,0.0,0.0,0.0,0.0,0.0,0.01348733785468784,-0.6000006990443036,9.808863764823238,0.0,0.0,0.0,0.0,0.0,0.0,0.0,0.0,0.0
2025/05/20 13:02:31.315584606,1747738950,569140085,mA1/imu,0.6622327381534425,-0.7492976310536432,-0.0009218333766616975,0.00010410772293218307,0.0,0.0,0.0,0.0,0.0,0.0,0.0,0.0,0.0,0.0010508604779405017,0.0022689320664428777,-0.002878962906737209,0.0,0.0,0.0,0.0,0.0,0.0,0.0,0.0,0.0,0.014108017719694775,0.01737538483847148,9.810061493541047,0.0,0.0,0.0,0.0,0.0,0.0,0.0,0.0,0.0
2025/05/20 13:02:32.266352767,1747738951,319335431,mA1/imu,0.6630196663159618,-0.748601250375417,-0.0010301082044383478,0.00016997564590667287,0.0,0.0,0.0,0.0,0.0,0.0,0.0,0.0,0.0,0.00013823038176674594,-0.0018516846343487664,-0.0027226291194403797,0.0,0.0,0.0,0.0,0.0,0.0,0.0,0.0,0.0,0.012102589343344317,-0.6484754106230493,9.810696732466036,0.0,0.0,0.0,0.0,0.0,0.0,0.0,0.0,0.0
2025/05/20 13:02:32.269522432,1747738951,360501975,mA1/imu,0.6630709928754912,-0.7485557669785449,-0.001051221513521789,0.0001306277244437801,0.0,0.0,0.0,0.0,0.0,0.0,0.0,0.0,0.0,0.0017133904610683384,-0.0016740957085642735,-0.002811068047042343,0.0,0.0,0.0,0.0,0.0,0.0,0.0,0.0,0.0,0.012476268480701247,-0.5564245040776352,9.810731010627977,0.0,0.0,0.0,0.0,0.0,0.0,0.0,0.0,0.0
2025/05/20 13:02:32.869229161,1747738951,919379550,mA1/imu,0.6636019886517183,-0.7480852572938456,-0.0008629375414352066,0.0003222047256273788,0.0,0.0,0.0,0.0,0.0,0.0,0.0,0.0,0.0,-0.0001946185803552329,0.0022633658547644513,-0.0022136494133900143,0.0,0.0,0.0,0.0,0.0,0.0,0.0,0.0,0.0,0.009704933030141394,-0.04103301963821438,9.807704573802472,0.0,0.0,0.0,0.0,0.0,0.0,0.0,0.0,0.0
2025/05/20 13:02:32.873245314,1747738951,969178730,mA1/imu,0.6636427322731505,-0.7480491363510127,-0.0008267262159926675,0.00036059575069205947,0.0,0.0,0.0,0.0,0.0,0.0,0.0,0.0,0.0,0.0008664275136540963,0.001994291884122316,-0.0021513361518684807,0.0,0.0,0.0,0.0,0.0,0.0,0.0,0.0,0.0,0.009548301355660992,-0.37402937548390425,9.809363337236428,0.0,0.0,0.0,0.0,0.0,0.0,0.0,0.0,0.0
2025/05/20 13:02:32.883784779,1747738952,20355346,mA1/imu,0.6636823078710948,-0.7480140345800758,-0.0008005119314036,0.00039682588363939214,0.0,0.0,0.0,0.0,0.0,0.0,0.0,0.0,0.0,0.0005998363545896737,0.0016151606433111266,-0.002089996446381589,0.0,0.0,0.0,0.0,0.0,0.0,0.0,0.0,0.0,0.010113081955591623,-0.17595824427945,9.80993116996116,0.0,0.0,0.0,0.0,0.0,0.0,0.0,0.0,0.0
2025/05/20 13:02:32.889409345,1747738952,70035389,mA1/imu,0.6637207218137432,-0.7479799534124905,-0.0007820643694127902,0.00042556246829619836,0.0,0.0,0.0,0.0,0.0,0.0,0.0,0.0,0.0,-0.0010304218328040275,0.001165645212573716,-0.0020283906402076687,0.0,0.0,0.0,0.0,0.0,0.0,0.0,0.0,0.0,0.010108312943299867,-0.10169820907870342,9.81124370727703,0.0,0.0,0.0,0.0,0.0,0.0,0.0,0.0,0.0
2025/05/20 13:02:32.901050552,1747738952,111148930,mA1/imu,0.6637579761111155,-0.7479469032099807,-0.0007656659674718253,0.000439184587099425,0.0,0.0,0.0,0.0,0.0,0.0,0.0,0.0,0.0,-0.0010239676601696399,0.0006339799163028335,-0.001966958754308919,0.0,0.0,0.0,0.0,0.0,0.0,0.0,0.0,0.0,0.011327164784252854,-0.10788377689830084,9.810872895172738,0.0,0.0,0.0,0.0,0.0,0.0,0.0,0.0,0.0
2025/05/20 13:02:32.912689271,1747738952,160640643,mA1/imu,0.6637940823100845,-0.7479148687078263,-0.0007560550569625076,0.0004402688026005615,0.0,0.0,0.0,0.0,0.0,0.0,0.0,0.0,0.0,5.697079336583765e-05,6.463949960485966e-05,-0.0019064236297231525,0.0,0.0,0.0,0.0,0.0,0.0,0.0,0.0,0.0,0.010542564646441035,-0.03434980608989201,9.809587041675114,0.0,0.0,0.0,0.0,0.0,0.0,0.0,0.0,0.0
2025/05/20 13:02:32.912886903,1747738952,211610683,mA1/imu,0.663829061363184,-0.7478838244673368,-0.000758225575241715,0.0004329939502092484,0.0,0.0,0.0,0.0,0.0,0.0,0.0,0.0,0.0,0.00016807849124025415,-0.0004956734321057851,-0.0018474165772893994,0.0,0.0,0.0,0.0,0.0,0.0,0.0,0.0,0.0,0.010224421214844348,-0.030760020824713154,9.812640888752094,0.0,0.0,0.0,0.0,0.0,0.0,0.0,0.0,0.0
2025/05/20 13:02:33.869252199,1747738952,917686922,mA1/imu,0.6641441699960865,-0.7476038777280852,-0.0009412958513488242,0.00027825933876532134,0.0,0.0,0.0,0.0,0.0,0.0,0.0,0.0,0.0,-0.00020822571438840938,0.001650341572217537,-0.00027313006978056073,0.0,0.0,0.0,0.0,0.0,0.0,0.0,0.0,0.0,0.0009728818138964217,-0.020132846173946606,9.806739661657545,0.0,0.0,0.0,0.0,0.0,0.0,0.0,0.0,0.0
2025/05/20 13:02:33.873734101,1747738952,967547270,mA1/imu,0.6641476382403786,-0.7476008094994767,-0.0009182830932262389,0.0003178232449117697,0.0,0.0,0.0,0.0,0.0,0.0,0.0,0.0,0.0,0.000755284675098098,0.001873539169690012,-0.00012587889803503116,0.0,0.0,0.0,0.0,0.0,0.0,0.0,0.0,0.0,0.0012136434730283183,-0.40130379136841776,9.808404551315766,0.0,0.0,0.0,0.0,0.0,0.0,0.0,0.0,0.0
2025/05/20 13:02:33.885179547,1747738953,18874588,mA1/imu,0.664148497526899,-0.7476000560781351,-0.0008937677432174644,0.00036133634336730906,0.0,0.0,0.0,0.0,0.0,0.0,0.0,0.0,0.0,-0.00043494514544903205,0.0019759608378361482,9.525998891413443e-06,0.0,0.0,0.0,0.0,0.0,0.0,0.0,0.0,0.0,0.002876711906485663,0.22077079843055564,9.808347492505833,0.0,0.0,0.0,0.0,0.0,0.0,0.0,0.0,0.0
2025/05/20 13:02:33.891113776,1747738953,70005075,mA1/imu,0.664146885806284,-0.7476015057271019,-0.000862395537901557,0.00039872587222324816,0.0,0.0,0.0,0.0,0.0,0.0,0.0,0.0,0.0,-0.00040807729320300464,0.0019233505745948048,0.00014335677781710388,0.0,0.0,0.0,0.0,0.0,0.0,0.0,0.0,0.0,0.0030407882505878014,0.5717576388809004,9.808795116491417,0.0,0.0,0.0,0.0,0.0,0.0,0.0,0.0,0.0
2025/05/20 13:02:33.901505904,1747738953,113633923,mA1/imu,0.6641426664219537,-0.7476052662729773,-0.0008340287150455386,0.0004345974578820845,0.0,0.0,0.0,0.0,0.0,0.0,0.0,0.0,0.0,0.0007397889549098106,0.0017522448318342777,0.0002822717904546096,0.0,0.0,0.0,0.0,0.0,0.0,0.0,0.0,0.0,0.002825124090369535,0.016340595629045673,9.80896767138305,0.0,0.0,0.0,0.0,0.0,0.0,0.0,0.0,0.0
2025/05/20 13:02:33.902482019,1747738953,163537070,mA1/imu,0.6641359098935825,-0.7476112746912006,-0.0008101718581114858,0.00046772425834109286,0.0,0.0,0.0,0.0,0.0,0.0,0.0,0.0,0.0,5.232436584735411e-05,0.0015073604465527667,0.0004177798767554788,0.0,0.0,0.0,0.0,0.0,0.0,0.0,0.0,0.0,0.003991874659291016,-0.0439660457195345,9.810966609447435,0.0,0.0,0.0,0.0,0.0,0.0,0.0,0.0,0.0
2025/05/20 13:02:33.912939068,1747738953,214667117,mA1/imu,0.6641265198026988,-0.7476196275717549,-0.0007860233976266712,0.0004902361108011653,0.0,0.0,0.0,0.0,0.0,0.0,0.0,0.0,0.0,5.955233028579152e-05,0.0011674876791564325,0.0005654620173450224,0.0,0.0,0.0,0.0,0.0,0.0,0.0,0.0,0.0,0.0039397180048045925,-0.6822854563660858,9.810122528212915,0.0,0.0,0.0,0.0,0.0,0.0,0.0,0.0,0.0
2025/05/20 13:02:34.870073821,1747738953,917533564,mA1/imu,0.6638280108909358,-0.7478847295036146,-0.000865472251213943,0.00023300143967249772,0.0,0.0,0.0,0.0,0.0,0.0,0.0,0.0,0.0,-0.0013363145373096233,0.00033035844517855835,0.001521291163871638,0.0,0.0,0.0,0.0,0.0,0.0,0.0,0.0,0.0,-0.004530127306676717,0.5218723767823187,9.810271887099537,0.0,0.0,0.0,0.0,0.0,0.0,0.0,0.0,0.0
2025/05/20 13:02:34.877474030,1747738953,967732109,mA1/imu,0.663798706566835,-0.747910740155075,-0.0008604642610891872,0.0002480365706767075,0.0,0.0,0.0,0.0,0.0,0.0,0.0,0.0,0.0,-0.00030175700621445467,0.0007482227439860844,0.0015988937699224052,0.0,0.0,0.0,0.0,0.0,0.0,0.0,0.0,0.0,-0.004702185474875949,-0.02900880128340226,9.81000102329786,0.0,0.0,0.0,0.0,0.0,0.0,0.0,0.0,0.0
2025/05/20 13:02:34.881975445,1747738954,18704883,mA1/imu,0.6637679814063222,-0.7479380094429929,-0.0008522868130818334,0.0002729421511086012,0.0,0.0,0.0,0.0,0.0,0.0,0.0,0.0,0.0,0.0005475580882082805,0.0010934597358382412,0.0016741669162656581,0.0,0.0,0.0,0.0,0.0,0.0,0.0,0.0,0.0,-0.004248628671802528,-0.07728640315379746,9.80861403341083,0.0,0.0,0.0,0.0,0.0,0.0,0.0,0.0,0.0
2025/05/20 13:02:34.888114084,1747738954,69270240,mA1/imu,0.6637358789395492,-0.7479665015057596,-0.0008386754242212637,0.000303738557771659,0.0,0.0,0.0,0.0,0.0,0.0,0.0,0.0,0.0,-0.0003096475445608742,0.0013875945131221253,0.0017470635304417405,0.0,0.0,0.0,0.0,0.0,0.0,0.0,0.0,0.0,-0.0032828134863507816,0.05263569044881479,9.809317579514051,0.0,0.0,0.0,0.0,0.0,0.0,0.0,0.0,0.0
2025/05/20 13:02:34.898488163,1747738954,120634367,mA1/imu,0.6637024340107331,-0.7479961761557347,-0.000825744861486348,0.0003430598362612166,0.0,0.0,0.0,0.0,0.0,0.0,0.0,0.0,0.0,-0.0014165650277142227,0.001594371706684167,0.0018182802496107117,0.0,0.0,0.0,0.0,0.0,0.0,0.0,0.0,0.0,-0.0024822639705591046,0.4598447286140965,9.80903314631547,0.0,0.0,0.0,0.0,0.0,0.0,0.0,0.0,0.0
2025/05/20 13:02:34.908595955,1747738954,163162366,mA1/imu,0.6636676755432754,-0.7480270223267866,-0.0008039828521457478,0.0003793672101117829,0.0,0.0,0.0,0.0,0.0,0.0,0.0,0.0,0.0,8.213963804920577e-06,0.0016858575905839615,0.0018879134168026015,0.0,0.0,0.0,0.0,0.0,0.0,0.0,0.0,0.0,-0.002344127252580927,-0.3626886047158677,9.809199704095526,0.0,0.0,0.0,0.0,0.0,0.0,0.0,0.0,0.0
2025/05/20 13:02:34.918887065,1747738954,215355584,mA1/imu,0.6636316198598434,-0.7480589990386869,-0.0007915371095996038,0.0004249099224830497,0.0,0.0,0.0,0.0,0.0,0.0,0.0,0.0,0.0,-3.924374741182046e-06,0.0016660119837211126,0.001957128396116788,0.0,0.0,0.0,0.0,0.0,0.0,0.0,0.0,0.0,-0.001227739345351842,-0.6308079959457843,9.807617153904664,0.0,0.0,0.0,0.0,0.0,0.0,0.0,0.0,0.0
2025/05/20 13:02:35.868990535,1747738954,920149727,mA1/imu,0.6629367173777693,-0.7486748355655527,-0.0008909345282276978,0.00032492914127167725,0.0,0.0,0.0,0.0,0.0,0.0,0.0,0.0,0.0,-0.0002738713877413387,-0.002173103957508911,0.0032416356002023653,0.0,0.0,0.0,0.0,0.0,0.0,0.0,0.0,0.0,0.0008052957844732651,-0.06610845901767434,9.810042896306124,0.0,0.0,0.0,0.0,0.0,0.0,0.0,0.0,0.0
2025/05/20 13:02:35.871182490,1747738954,960988207,mA1/imu,0.6628752251453184,-0.748729258617224,-0.0009231952179705061,0.00028441103209147367,0.0,0.0,0.0,0.0,0.0,0.0,0.0,0.0,0.0,-2.856486500891218e-05,-0.001988895751212311,0.0033103287228751976,0.0,0.0,0.0,0.0,0.0,0.0,0.0,0.0,0.0,0.0006129716867504138,-0.1189981060461698,9.810115344553733,0.0,0.0,0.0,0.0,0.0,0.0,0.0,0.0,0.0
2025/05/20 13:02:36.21528176,1747738955,62929633,mA1/imu,0.6627484380262826,-0.7488414610059865,-0.0009639288788765006,0.00021216328292131915,0.0,0.0,0.0,0.0,0.0,0.0,0.0,0.0,0.0,0.00017421104183568638,-0.001266922830563315,0.0034444633173130027,0.0,0.0,0.0,0.0,0.0,0.0,0.0,0.0,0.0,0.00036245555929768913,0.5910289808647945,9.811016584763438,0.0,0.0,0.0,0.0,0.0,0.0,0.0,0.0,0.0
2025/05/20 13:02:36.33164207,1747738955,113934181,mA1/imu,0.6626831947119267,-0.7488991816654039,-0.0009805542162888699,0.00019406367958987847,0.0,0.0,0.0,0.0,0.0,0.0,0.0,0.0,0.0,-0.001299414002399109,-0.0007901762969842153,0.003509528144426923,0.0,0.0,0.0,0.0,0.0,0.0,0.0,0.0,0.0,0.00029382771794918966,0.4908735852780013,9.810036027460834,0.0,0.0,0.0,0.0,0.0,0.0,0.0,0.0,0.0
2025/05/20 13:02:36.43840597,1747738955,164128149,mA1/imu,0.6626167509798447,-0.7489579666914742,-0.0009859472756962222,0.00018264242934740984,0.0,0.0,0.0,0.0,0.0,0.0,0.0,0.0,0.0,0.000253922727878901,-0.0002856951757112207,0.0035737833628780224,0.0,0.0,0.0,0.0,0.0,0.0,0.0,0.0,0.0,-0.0004630605676698898,-0.6564136488582474,9.808506909856002,0.0,0.0,0.0,0.0,0.0,0.0,0.0,0.0,0.0
2025/05/20 13:02:36.54451896,1747738955,215307893,mA1/imu,0.6625491230070497,-0.749017806340394,-0.0009769552086316747,0.00017591513237920798,0.0,0.0,0.0,0.0,0.0,0.0,0.0,0.0,0.0,-0.0001765861874416838,0.00024529180118885237,0.0036371225847550695,0.0,0.0,0.0,0.0,0.0,0.0,0.0,0.0,0.0,0.0004530378988808065,-0.058901023929269755,9.808757295608693,0.0,0.0,0.0,0.0,0.0,0.0,0.0,0.0,0.0
2025/05/20 13:02:36.63772559,1747738955,265063283,mA1/imu,0.662480328867531,-0.7490786744680593,-0.0009598437606084119,0.000178943283013405,0.0,0.0,0.0,0.0,0.0,0.0,0.0,0.0,0.0,-0.0003744638079732456,0.0007505355090021063,0.0036993289660102015,0.0,0.0,0.0,0.0,0.0,0.0,0.0,0.0,0.0,0.00014867209242559395,0.5598146445383836,9.810000551441442,0.0,0.0,0.0,0.0,0.0,0.0,0.0,0.0,0.0
2025/05/20 13:02:37.21924360,1747738956,69858550,mA1/imu,0.6608378951460848,-0.7505278886545469,-0.001028052710819567,0.00032832645953538526,0.0,0.0,0.0,0.0,0.0,0.0,0.0,0.0,0.0,-0.0005410370529383539,-0.0039792551059017805,0.006402695991341814,0.0,0.0,0.0,0.0,0.0,0.0,0.0,0.0,0.0,0.00844207845837527,0.020172141035233536,9.809024748244124,0.0,0.0,0.0,0.0,0.0,0.0,0.0,0.0,0.0
2025/05/20 13:02:37.26866437,1747738956,120779499,mA1/imu,0.6607169985842346,-0.7506342546352206,-0.0010943738965942613,0.0002567018530713137,0.0,0.0,0.0,0.0,0.0,0.0,0.0,0.0,0.0,-0.00031037976563433165,-0.0038191788905293828,0.00645967777837674,0.0,0.0,0.0,0.0,0.0,0.0,0.0,0.0,0.0,0.007509080367979806,0.5833979029967423,9.810268262978802,0.0,0.0,0.0,0.0,0.0,0.0,0.0,0.0,0.0
2025/05/20 13:02:37.225071976,1747738956,268720976,mA1/imu,0.6603479065868766,-0.7509587909368516,-0.0012371182758626417,7.822636045323142e-05,0.0,0.0,0.0,0.0,0.0,0.0,0.0,0.0,0.0,0.000988617018408647,-0.0021471751845946524,0.00662954190006568,0.0,0.0,0.0,0.0,0.0,0.0,0.0,0.0,0.0,0.006507706395986204,-0.623771386322001,9.809049059175736,0.0,0.0,0.0,0.0,0.0,0.0,0.0,0.0,0.0
2025/05/20 13:02:37.234516381,1747738956,319671441,mA1/imu,0.660222733840055,-0.7510688131585948,-0.0012561552235966214,4.1174725010008676e-05,0.0,0.0,0.0,0.0,0.0,0.0,0.0,0.0,0.0,-0.0020585211924853703,-0.0012719609318087603,0.006686736982641726,0.0,0.0,0.0,0.0,0.0,0.0,0.0,0.0,0.0,0.0071225295839938835,0.36742733607102257,9.811075026280466,0.0,0.0,0.0,0.0,0.0,0.0,0.0,0.0,0.0
2025/05/20 13:02:37.244808934,1747738956,362920155,mA1/imu,0.6600965125773944,-0.751179777055647,-0.001239605622264682,1.9213492824892136e-06,0.0,0.0,0.0,0.0,0.0,0.0,0.0,0.0,0.0,0.000842565430506297,-0.0003557499123899114,0.006742673468684352,0.0,0.0,0.0,0.0,0.0,0.0,0.0,0.0,0.0,0.005221293689022358,0.6080987777925977,9.809909101272252,0.0,0.0,0.0,0.0,0.0,0.0,0.0,0.0,0.0
2025/05/20 13:02:37.913651746,1747738956,965230401,mA1/imu,0.6584510512602751,-0.7526230188809621,-0.0007907210554148779,0.00042344416145248336,0.0,0.0,0.0,0.0,0.0,0.0,0.0,0.0,0.0,-0.00047226721790165967,0.0006808196961648152,0.007722087327400686,0.0,0.0,0.0,0.0,0.0,0.0,0.0,0.0,0.0,0.014550503460157668,-0.6456704183969515,9.80927198690881,0.0,0.0,0.0,0.0,0.0,0.0,0.0,0.0,0.0
2025/05/20 13:02:37.919308541,1747738957,16421241,mA1/imu,0.6583050656662344,-0.7527507040115656,-0.0007931233893013039,0.0004348373913073434,0.0,0.0,0.0,0.0,0.0,0.0,0.0,0.0,0.0,0.0007266659642986611,-1.2692413081621585e-06,0.007782145626249942,0.0,0.0,0.0,0.0,0.0,0.0,0.0,0.0,0.0,0.014321508048775357,-0.4767739931002516,9.809054152174667,0.0,0.0,0.0,0.0,0.0,0.0,0.0,0.0,0.0
2025/05/20 13:02:37.930400952,1747738957,66401201,mA1/imu,0.6581579163820551,-0.7528793390112746,-0.0008147886653220801,0.0004405825791436731,0.0,0.0,0.0,0.0,0.0,0.0,0.0,0.0,0.0,-0.0007079505127661297,-0.0006690688379004156,0.007841591553338452,0.0,0.0,0.0,0.0,0.0,0.0,0.0,0.0,0.0,0.014948262138518848,0.5075782488465512,9.811245798027263,0.0,0.0,0.0,0.0,0.0,0.0,0.0,0.0,0.0
2025/05/20 13:02:37.940693446,1747738957,117405267,mA1/imu,0.6580095954912987,-0.7530089375115868,-0.0008494709907570352,0.00043665556738193146,0.0,0.0,0.0,0.0,0.0,0.0,0.0,0.0,0.0,-0.0022362047865579853,-0.001272607222083737,0.007901729139231798,0.0,0.0,0.0,0.0,0.0,0.0,0.0,0.0,0.0,0.014216710416414063,0.49700671537697977,9.810645714813335,0.0,0.0,0.0,0.0,0.0,0.0,0.0,0.0,0.0
2025/05/20 13:02:37.955014962,1747738957,168295814,mA1/imu,0.6578601222781864,-0.7531394968232854,-0.0008859918200614998,0.00041576362628371693,0.0,0.0,0.0,0.0,0.0,0.0,0.0,0.0,0.0,4.248599913243509e-05,-0.0018053022475979306,0.007960899406167373,0.0,0.0,0.0,0.0,0.0,0.0,0.0,0.0,0.0,0.01316008776419864,-0.6053539085873273,9.80903493327324,0.0,0.0,0.0,0.0,0.0,0.0,0.0,0.0,0.0
2025/05/20 13:02:38.913823701,1747738957,962400783,mA1/imu,0.6553385542814603,-0.7553346989201839,-0.0008003167679642609,0.00048101196590572947,0.0,0.0,0.0,0.0,0.0,0.0,0.0,0.0,0.0,0.0017432663472677495,0.003150121931411033,0.008770320833698695,0.0,0.0,0.0,0.0,0.0,0.0,0.0,0.0,0.0,0.0032304219583430536,-0.5631499243396624,9.810082742676487,0.0,0.0,0.0,0.0,0.0,0.0,0.0,0.0,0.0
2025/05/20 13:02:38.917009553,1747738958,14655987,mA1/imu,0.6551722977420205,-0.7554789285314517,-0.0007502938999474993,0.0005346732409425866,0.0,0.0,0.0,0.0,0.0,0.0,0.0,0.0,0.0,0.0005163946801944205,0.002733962828076025,0.008830740583416097,0.0,0.0,0.0,0.0,0.0,0.0,0.0,0.0,0.0,0.003410212939648878,-0.13850507755457386,9.808953174685701,0.0,0.0,0.0,0.0,0.0,0.0,0.0,0.0,0.0
2025/05/20 13:02:38.924403140,1747738958,66648210,mA1/imu,0.655004848073553,-0.7556241322501297,-0.0007015644827331536,0.0005723361395473373,0.0,0.0,0.0,0.0,0.0,0.0,0.0,0.0,0.0,-0.00024118085372961025,0.002164248870107245,0.008891686120351816,0.0,0.0,0.0,0.0,0.0,0.0,0.0,0.0,0.0,0.004367427016364367,0.5646944122877255,9.810536269894552,0.0,0.0,0.0,0.0,0.0,0.0,0.0,0.0,0.0
2025/05/20 13:02:38.938958457,1747738958,111546110,mA1/imu,0.6548362145571769,-0.7557702804153341,-0.0006713197878555796,0.0006038833470683575,0.0,0.0,0.0,0.0,0.0,0.0,0.0,0.0,0.0,0.00031272162196340533,0.00143824535101235,0.008951218341720319,0.0,0.0,0.0,0.0,0.0,0.0,0.0,0.0,0.0,0.004439468957186061,-0.48574982709617953,9.809334727434795,0.0,0.0,0.0,0.0,0.0,0.0,0.0,0.0,0.0
2025/05/20 13:02:38.939040284,1747738958,161311337,mA1/imu,0.6546664253667628,-0.7559173666212528,-0.0006511150082305592,0.0006183745963189348,0.0,0.0,0.0,0.0,0.0,0.0,0.0,0.0,0.0,0.0005040814539665539,0.0006257542954984877,0.009009485759196273,0.0,0.0,0.0,0.0,0.0,0.0,0.0,0.0,0.0,0.004903374542208017,-0.0037766090052897914,9.80988587110182,0.0,0.0,0.0,0.0,0.0,0.0,0.0,0.0,0.0
2025/05/20 13:02:38.950022865,1747738958,214742872,mA1/imu,0.6544954930614872,-0.7560653761802394,-0.0006443195764270639,0.0006175402150243096,0.0,0.0,0.0,0.0,0.0,0.0,0.0,0.0,0.0,8.140793688793608e-05,-0.0001732987069479563,0.00906737569245337,0.0,0.0,0.0,0.0,0.0,0.0,0.0,0.0,0.0,0.0037526067588796374,0.4224221321709174,9.810729545390803,0.0,0.0,0.0,0.0,0.0,0.0,0.0,0.0,0.0
2025/05/20 13:02:39.817059140,1747738958,860557309,mA1/imu,0.6522997922746845,-0.7579603066370542,-0.0010429386787611664,0.0002585342890419583,0.0,0.0,0.0,0.0,0.0,0.0,0.0,0.0,0.0,0.0005198098077310332,0.0018222206953986855,0.008199402635070602,0.0,0.0,0.0,0.0,0.0,0.0,0.0,0.0,0.0,-0.02337829218185654,0.0211366570745391,9.811131349189555,0.0,0.0,0.0,0.0,0.0,0.0,0.0,0.0,0.0
2025/05/20 13:02:39.824610128,1747738958,911556816,mA1/imu,0.6521440517403266,-0.7580943335579904,-0.0010094128938845485,0.0003135164849426443,0.0,0.0,0.0,0.0,0.0,0.0,0.0,0.0,0.0,-0.001181949564901215,0.0029768525696508125,0.008236004363699777,0.0,0.0,0.0,0.0,0.0,0.0,0.0,0.0,0.0,-0.021557125444569183,0.5299588922647489,9.809954534402648,0.0,0.0,0.0,0.0,0.0,0.0,0.0,0.0,0.0
2025/05/20 13:02:40.169403372,1747738959,215235402,mA1/imu,0.6511969207059035,-0.7589081576472371,-0.0005594978806473533,0.0008158932204396128,0.0,0.0,0.0,0.0,0.0,0.0,0.0,0.0,0.0,0.0006632094580079878,0.004145781306334962,0.008402790033798553,0.0,0.0,0.0,0.0,0.0,0.0,0.0,0.0,0.0,-0.012226268746000617,-0.14895441454105632,9.811275732022626,0.0,0.0,0.0,0.0,0.0,0.0,0.0,0.0,0.0
2025/05/20 13:02:40.171568652,1747738959,264972586,mA1/imu,0.6510372999221711,-0.7590450643009857,-0.0004956326407432329,0.0008825070237218136,0.0,0.0,0.0,0.0,0.0,0.0,0.0,0.0,0.0,0.00028581359285396345,0.0033329673401701,0.008422842775670632,0.0,0.0,0.0,0.0,0.0,0.0,0.0,0.0,0.0,-0.011568897870371912,-0.04134044119654168,9.810289430752109,0.0,0.0,0.0,0.0,0.0,0.0,0.0,0.0,0.0
2025/05/20 13:02:40.181110857,1747738959,316168753,mA1/imu,0.6508772742466495,-0.7591822737749448,-0.00043987867783117383,0.0009249658940090485,0.0,0.0,0.0,0.0,0.0,0.0,0.0,0.0,0.0,0.0018276899292364584,0.0023089194552338376,0.008441881523804,0.0,0.0,0.0,0.0,0.0,0.0,0.0,0.0,0.0,-0.01087691911272244,-0.5550072516112592,9.808481699286336,0.0,0.0,0.0,0.0,0.0,0.0,0.0,0.0,0.0
2025/05/20 13:02:40.615960752,1747738959,662200942,mA1/imu,0.6496968257552769,-0.7601928746522771,-0.0005893373914627757,0.0006932624781877865,0.0,0.0,0.0,0.0,0.0,0.0,0.0,0.0,0.0,-0.001274230176316007,-0.00488206456116872,0.009369958085562277,0.0,0.0,0.0,0.0,0.0,0.0,0.0,0.0,0.0,-0.004173995013925999,0.5163478990075506,9.809188428373206,0.0,0.0,0.0,0.0,0.0,0.0,0.0,0.0,0.0
2025/05/20 13:02:40.621665943,1747738959,716409605,mA1/imu,0.6495181348530474,-0.7603455701224222,-0.0006746208890751868,0.000592772201694167,0.0,0.0,0.0,0.0,0.0,0.0,0.0,0.0,0.0,-0.0005726723809121173,-0.005481163471039968,0.009414996285101767,0.0,0.0,0.0,0.0,0.0,0.0,0.0,0.0,0.0,-0.005539568211658562,0.5683813654431026,9.810911652685311,0.0,0.0,0.0,0.0,0.0,0.0,0.0,0.0,0.0
2025/05/20 13:02:40.632208121,1747738959,764626336,mA1/imu,0.6493385113793533,-0.7604989580365449,-0.0007708102958119739,0.0004881766717561549,0.0,0.0,0.0,0.0,0.0,0.0,0.0,0.0,0.0,0.0003363569580331966,-0.00577712027798861,0.009460714865325555,0.0,0.0,0.0,0.0,0.0,0.0,0.0,0.0,0.0,-0.006074307897444892,0.09502428060599456,9.809881979311903,0.0,0.0,0.0,0.0,0.0,0.0,0.0,0.0,0.0
2025/05/20 13:02:40.643344929,1747738959,815686437,mA1/imu,0.6491579726890928,-0.7606530236742987,-0.0008698945927334921,0.0003838655123081174,0.0,0.0,0.0,0.0,0.0,0.0,0.0,0.0,0.0,0.0012286451812555817,-0.005705880738174432,0.009506589083143651,0.0,0.0,0.0,0.0,0.0,0.0,0.0,0.0,0.0,-0.008276788969575535,-0.5540421544762896,9.808186368898115,0.0,0.0,0.0,0.0,0.0,0.0,0.0,0.0,0.0
2025/05/20 13:02:40.654453224,1747738959,865731398,mA1/imu,0.6489765281373856,-0.7608077559899509,-0.0009700452585616265,0.0002887290719754693,0.0,0.0,0.0,0.0,0.0,0.0,0.0,0.0,0.0,-0.00020187817238924216,-0.005341343369719325,0.009552202525175149,0.0,0.0,0.0,0.0,0.0,0.0,0.0,0.0,0.0,-0.007250069296400496,-0.023029310064079284,9.811095730169544,0.0,0.0,0.0,0.0,0.0,0.0,0.0,0.0,0.0
2025/05/20 13:02:40.665220569,1747738959,916674268,mA1/imu,0.6487942084884673,-0.7609631473617644,-0.0010593362254163886,0.00020296763879673824,0.0,0.0,0.0,0.0,0.0,0.0,0.0,0.0,0.0,-0.0003069836977239141,-0.004643810574808434,0.009595865859985637,0.0,0.0,0.0,0.0,0.0,0.0,0.0,0.0,0.0,-0.0087456664092271,-0.656076879750334,9.810375705719137,0.0,0.0,0.0,0.0,0.0,0.0,0.0,0.0,0.0
2025/05/20 13:02:41.623002831,1747738960,665482253,mA1/imu,0.6458831041419556,-0.7634356573724503,-0.000607427173242874,0.0008024141544613566,0.0,0.0,0.0,0.0,0.0,0.0,0.0,0.0,0.0,0.0014896965831367528,0.002157109791530448,0.012038959318423914,0.0,0.0,0.0,0.0,0.0,0.0,0.0,0.0,0.0,0.006162357570068876,-0.5675423110688944,9.808386891833964,0.0,0.0,0.0,0.0,0.0,0.0,0.0,0.0,0.0
2025/05/20 13:02:41.623036947,1747738960,718903631,mA1/imu,0.645653425631762,-0.76362990613227,-0.0005898123240978909,0.0008200925641422186,0.0,0.0,0.0,0.0,0.0,0.0,0.0,0.0,0.0,-0.00031200953722334657,0.00017039060940762053,0.012030098299625912,0.0,0.0,0.0,0.0,0.0,0.0,0.0,0.0,0.0,0.024989092601206353,-0.6857269393844456,9.810830591337607,0.0,0.0,0.0,0.0,0.0,0.0,0.0,0.0,0.0
2025/05/20 13:02:41.638374926,1747738960,767110662,mA1/imu,0.6454238114411337,-0.763824001711103,-0.0006020119679314893,0.0007972555597119873,0.0,0.0,0.0,0.0,0.0,0.0,0.0,0.0,0.0,0.00021607872040895715,-0.001800297282213117,0.01202279925892376,0.0,0.0,0.0,0.0,0.0,0.0,0.0,0.0,0.0,0.02334182006935226,-0.2780744777971116,9.809725677330436,0.0,0.0,0.0,0.0,0.0,0.0,0.0,0.0,0.0
2025/05/20 13:02:41.648550758,1747738960,818143752,mA1/imu,0.6451942071875807,-0.764017966581596,-0.0006524011347521928,0.000745737803577348,0.0,0.0,0.0,0.0,0.0,0.0,0.0,0.0,0.0,0.0007853569119011564,-0.003590610964168415,0.012017284989641682,0.0,0.0,0.0,0.0,0.0,0.0,0.0,0.0,0.0,0.02092605558949464,-0.6039571388177352,9.80922045560573,0.0,0.0,0.0,0.0,0.0,0.0,0.0,0.0,0.0
2025/05/20 13:02:41.657587390,1747738960,869353905,mA1/imu,0.6449645911795169,-0.7642118332339736,-0.0007210193790038249,0.0006558969911626327,0.0,0.0,0.0,0.0,0.0,0.0,0.0,0.0,0.0,-8.946475736579061e-06,-0.005112923903129974,0.01201466338345454,0.0,0.0,0.0,0.0,0.0,0.0,0.0,0.0,0.0,0.0200001775781408,-0.02977994118228569,9.810404482911274,0.0,0.0,0.0,0.0,0.0,0.0,0.0,0.0,0.0
2025/05/20 13:02:41.665127875,1747738960,920536696,mA1/imu,0.6447348978305271,-0.7644056273851623,-0.0008103017322185391,0.0005401411470506157,0.0,0.0,0.0,0.0,0.0,0.0,0.0,0.0,0.0,0.0009390018265616996,-0.006291282353300639,0.012014976344831722,0.0,0.0,0.0,0.0,0.0,0.0,0.0,0.0,0.0,0.016527692180231132,0.03609714945831809,9.809701108382843,0.0,0.0,0.0,0.0,0.0,0.0,0.0,0.0,0.0
2025/05/20 13:02:42.618878503,1747738961,671867028,mA1/imu,0.6412867918904424,-0.7673004684092452,-0.0011022960186261486,0.00016330739314495004,0.0,0.0,0.0,0.0,0.0,0.0,0.0,0.0,0.0,0.0006904097397052275,0.006724790756270035,0.011802485194003697,0.0,0.0,0.0,0.0,0.0,0.0,0.0,0.0,0.0,0.012701735501150203,-0.5967486345882312,9.808946968351872,0.0,0.0,0.0,0.0,0.0,0.0,0.0,0.0,0.0
2025/05/20 13:02:42.628336959,1747738961,715046557,mA1/imu,0.6410608826742543,-0.7674893218411761,-0.0009991697432361175,0.0002953379450112019,0.0,0.0,0.0,0.0,0.0,0.0,0.0,0.0,0.0,0.0005822332556157529,0.0065933603475675584,0.011772770957865265,0.0,0.0,0.0,0.0,0.0,0.0,0.0,0.0,0.0,0.015076856821596334,-0.6007454331388931,9.809317165972942,0.0,0.0,0.0,0.0,0.0,0.0,0.0,0.0,0.0
2025/05/20 13:02:42.634723957,1747738961,766418703,mA1/imu,0.64083546218735,-0.7676776107226267,-0.0009045197084289534,0.0004221876620352738,0.0,0.0,0.0,0.0,0.0,0.0,0.0,0.0,0.0,0.00019210676171063854,0.006079901347126213,0.011742458712142752,0.0,0.0,0.0,0.0,0.0,0.0,0.0,0.0,0.0,0.015076694710027835,-0.33258464416313505,9.80969188096431,0.0,0.0,0.0,0.0,0.0,0.0,0.0,0.0,0.0
2025/05/20 13:02:42.641503388,1747738961,817940222,mA1/imu,0.6406105538770243,-0.7678653214795568,-0.0008232229331638353,0.0005372471232296917,0.0,0.0,0.0,0.0,0.0,0.0,0.0,0.0,0.0,-0.0015286150010003386,0.005247919074442384,0.011710594692656357,0.0,0.0,0.0,0.0,0.0,0.0,0.0,0.0,0.0,0.017457008963868457,0.5160234889350961,9.810548916545752,0.0,0.0,0.0,0.0,0.0,0.0,0.0,0.0,0.0
2025/05/20 13:02:42.651811367,1747738961,870583713,mA1/imu,0.640386149713908,-0.7680524779746732,-0.0007564073670740738,0.0006310146238116068,0.0,0.0,0.0,0.0,0.0,0.0,0.0,0.0,0.0,-0.0013564794160613005,0.004111919399310907,0.011679712124663781,0.0,0.0,0.0,0.0,0.0,0.0,0.0,0.0,0.0,0.017248166198853436,0.5282836207829937,9.810815260796707,0.0,0.0,0.0,0.0,0.0,0.0,0.0,0.0,0.0
2025/05/20 13:02:42.661881081,1747738961,912257846,mA1/imu,0.6401622598518862,-0.7682390859578708,-0.0007074729570416152,0.0006981045451991527,0.0,0.0,0.0,0.0,0.0,0.0,0.0,0.0,0.0,-0.0007635764893999568,0.002759760064669479,0.01165045523066874,0.0,0.0,0.0,0.0,0.0,0.0,0.0,0.0,0.0,0.017557388622764878,0.32519026872472345,9.810381272449233,0.0,0.0,0.0,0.0,0.0,0.0,0.0,0.0,0.0
2025/05/20 13:02:43.615625811,1747738962,668556662,mA1/imu,0.6371137629782009,-0.7707688889731252,-0.0011710710252399244,3.7517257422018855e-05,0.0,0.0,0.0,0.0,0.0,0.0,0.0,0.0,0.0,0.0005202264216103098,0.0017830065280354352,0.010296839005998214,0.0,0.0,0.0,0.0,0.0,0.0,0.0,0.0,0.0,-0.0019216249393390339,-0.023994999457943613,9.810922396154718,0.0,0.0,0.0,0.0,0.0,0.0,0.0,0.0,0.0
2025/05/20 13:02:43.622658530,1747738962,719586287,mA1/imu,0.6369155385063738,-0.7709327577119462,-0.0011286814663681768,7.729124601178045e-05,0.0,0.0,0.0,0.0,0.0,0.0,0.0,0.0,0.0,0.0003185594240319955,0.002616284623315587,0.010284286426751355,0.0,0.0,0.0,0.0,0.0,0.0,0.0,0.0,0.0,-0.0003837535345374513,-0.03345982829587874,9.80887173076635,0.0,0.0,0.0,0.0,0.0,0.0,0.0,0.0,0.0
2025/05/20 13:02:43.633685851,1747738962,769442358,mA1/imu,0.636717524420743,-0.7710963800387449,-0.0010724050741813694,0.00012936004307223558,0.0,0.0,0.0,0.0,0.0,0.0,0.0,0.0,0.0,0.0001846098638981902,0.00328252633400892,0.01027176280889722,0.0,0.0,0.0,0.0,0.0,0.0,0.0,0.0,0.0,3.683881336841166e-06,-0.036937003159035184,9.80868869793211,0.0,0.0,0.0,0.0,0.0,0.0,0.0,0.0,0.0
2025/05/20 13:02:43.643812983,1747738962,820666683,mA1/imu,0.6365197396760778,-0.7712597247787432,-0.0010101554856701102,0.00019370805478514963,0.0,0.0,0.0,0.0,0.0,0.0,0.0,0.0,0.0,0.0006531756748755297,0.00371591237706462,0.010258284923125423,0.0,0.0,0.0,0.0,0.0,0.0,0.0,0.0,0.0,0.0017646828062591428,-0.19677904734332816,9.81096697944815,0.0,0.0,0.0,0.0,0.0,0.0,0.0,0.0,0.0
2025/05/20 13:02:43.656593650,1747738962,870260762,mA1/imu,0.6363222004017383,-0.771422777090131,-0.00094187983482761,0.0002629159881880592,0.0,0.0,0.0,0.0,0.0,0.0,0.0,0.0,0.0,0.0007536598727110564,0.003926121804947185,0.010243082491823307,0.0,0.0,0.0,0.0,0.0,0.0,0.0,0.0,0.0,0.002634214896592148,0.01203864901345221,9.810858589463596,0.0,0.0,0.0,0.0,0.0,0.0,0.0,0.0,0.0
2025/05/20 13:02:43.667208247,1747738962,912469917,mA1/imu,0.6361249302650468,-0.7715854967776814,-0.0008820239415141583,0.00034101524087935315,0.0,0.0,0.0,0.0,0.0,0.0,0.0,0.0,0.0,-0.0007864154497082081,0.0038882598645972118,0.01022552322891246,0.0,0.0,0.0,0.0,0.0,0.0,0.0,0.0,0.0,0.0041994722705662344,0.5136040967142719,9.809758177574357,0.0,0.0,0.0,0.0,0.0,0.0,0.0,0.0,0.0
2025/05/20 13:02:44.622597604,1747738963,664904102,mA1/imu,0.6332900111618783,-0.7739137240462621,-0.0010962521752716685,0.00032821730997808346,0.0,0.0,0.0,0.0,0.0,0.0,0.0,0.0,0.0,0.0010825814151027345,-0.0023899687844540778,0.009703101497706597,0.0,0.0,0.0,0.0,0.0,0.0,0.0,0.0,0.0,-0.0018033808319198302,-0.6001724831497736,9.810479334680014,0.0,0.0,0.0,0.0,0.0,0.0,0.0,0.0,0.0
2025/05/20 13:02:44.629511914,1747738963,715861182,mA1/imu,0.6331022643706214,-0.7740672924967207,-0.001126337834027006,0.0002844269176399251,0.0,0.0,0.0,0.0,0.0,0.0,0.0,0.0,0.0,6.861830550522097e-05,-0.0019514844626240563,0.009698642568382543,0.0,0.0,0.0,0.0,0.0,0.0,0.0,0.0,0.0,-0.001837641127409348,-0.19972262052454925,9.811636891700532,0.0,0.0,0.0,0.0,0.0,0.0,0.0,0.0,0.0
2025/05/20 13:02:44.638955792,1747738963,765991120,mA1/imu,0.6329145773234185,-0.7742207494134454,-0.0011439279557560876,0.00024580080049762545,0.0,0.0,0.0,0.0,0.0,0.0,0.0,0.0,0.0,-0.0011305623050069935,-0.0014330469532807225,0.009693602991954027,0.0,0.0,0.0,0.0,0.0,0.0,0.0,0.0,0.0,-0.001639236369451345,0.4836427634780977,9.810422127145761,0.0,0.0,0.0,0.0,0.0,0.0,0.0,0.0,0.0
2025/05/20 13:02:44.652218510,1747738963,816845260,mA1/imu,0.6327269468953652,-0.7743740992077083,-0.0011486052498737346,0.00021413710566660875,0.0,0.0,0.0,0.0,0.0,0.0,0.0,0.0,0.0,-0.0012293400626817981,-0.0008656675619374408,0.009688890750391513,0.0,0.0,0.0,0.0,0.0,0.0,0.0,0.0,0.0,-0.0012398787150144069,0.4671767763699493,9.809905816728593,0.0,0.0,0.0,0.0,0.0,0.0,0.0,0.0,0.0
2025/05/20 13:02:44.658031628,1747738963,867284338,mA1/imu,0.6325393967402022,-0.7745273445313549,-0.001127641847015985,0.0001804677639137554,0.0,0.0,0.0,0.0,0.0,0.0,0.0,0.0,0.0,0.0016814201583479316,-0.0002654759009567821,0.009684530682455244,0.0,0.0,0.0,0.0,0.0,0.0,0.0,0.0,0.0,-0.0016930886761515485,0.6612871637934739,9.811500288249556,0.0,0.0,0.0,0.0,0.0,0.0,0.0,0.0,0.0
2025/05/20 13:02:44.665198325,1747738963,918276407,mA1/imu,0.6323519192548643,-0.7746804235463367,-0.00112224840182039,0.00017929663256037752,0.0,0.0,0.0,0.0,0.0,0.0,0.0,0.0,0.0,0.0023147969296768325,0.0003063148022268295,0.009678833091461956,0.0,0.0,0.0,0.0,0.0,0.0,0.0,0.0,0.0,-0.0015858147377358633,-0.5546448819984717,9.807706445421468,0.0,0.0,0.0,0.0,0.0,0.0,0.0,0.0,0.0
2025/05/20 13:02:45.627979772,1747738964,670599958,mA1/imu,0.629446358710431,-0.7770432706380739,-0.0009321414359499014,0.00041009097501190243,0.0,0.0,0.0,0.0,0.0,0.0,0.0,0.0,0.0,-0.0019017514935775863,-0.001633916782285404,0.009993699185187043,0.0,0.0,0.0,0.0,0.0,0.0,0.0,0.0,0.0,0.004765516809881775,0.5102480513656213,9.810112342177648,0.0,0.0,0.0,0.0,0.0,0.0,0.0,0.0,0.0
2025/05/20 13:02:45.635477759,1747738964,722474058,mA1/imu,0.6292521662898355,-0.7772005063315485,-0.0009684601328075257,0.0003824428127398641,0.0,0.0,0.0,0.0,0.0,0.0,0.0,0.0,0.0,-0.0001918279130913986,-0.0018520359860610912,0.009991082243660429,0.0,0.0,0.0,0.0,0.0,0.0,0.0,0.0,0.0,0.004316666479432104,-0.006660824447333905,9.80963255026697,0.0,0.0,0.0,0.0,0.0,0.0,0.0,0.0,0.0
2025/05/20 13:02:46.212998588,1747738965,265132401,mA1/imu,0.6270812378819797,-0.7789531013807895,-0.0010659425487064037,0.00022519355371589296,0.0,0.0,0.0,0.0,0.0,0.0,0.0,0.0,0.0,-0.000312334942635478,0.0012802411120446534,0.01066820368235025,0.0,0.0,0.0,0.0,0.0,0.0,0.0,0.0,0.0,0.010980619454062136,0.5388032846489604,9.80991312349411,0.0,0.0,0.0,0.0,0.0,0.0,0.0,0.0,0.0
2025/05/20 13:02:46.217909474,1747738965,317565773,mA1/imu,0.6268734656081705,-0.7791203493458754,-0.0010392588801678311,0.00024350060149720622,0.0,0.0,0.0,0.0,0.0,0.0,0.0,0.0,0.0,0.0010355469177101013,0.0011965301498999125,0.010672001630822658,0.0,0.0,0.0,0.0,0.0,0.0,0.0,0.0,0.0,0.010976033131773519,0.003913889609698726,9.810130290365699,0.0,0.0,0.0,0.0,0.0,0.0,0.0,0.0,0.0
2025/05/20 13:02:46.223189311,1747738965,361175973,mA1/imu,0.6266655397292245,-0.7792876207869464,-0.0010179431551319907,0.00026305100876844873,0.0,0.0,0.0,0.0,0.0,0.0,0.0,0.0,0.0,-0.0005770248092689384,0.0010768131055918398,0.010675421874799126,0.0,0.0,0.0,0.0,0.0,0.0,0.0,0.0,0.0,0.011106406973649894,-0.10425576667490521,9.808188983202239,0.0,0.0,0.0,0.0,0.0,0.0,0.0,0.0,0.0
2025/05/20 13:02:46.416789992,1747738965,464412567,mA1/imu,0.6262493734058687,-0.7796221562441484,-0.0009684996152019411,0.0002789452936193311,0.0,0.0,0.0,0.0,0.0,0.0,0.0,0.0,0.0,0.0001728672509309457,0.0006551877987587682,0.01068165610905837,0.0,0.0,0.0,0.0,0.0,0.0,0.0,0.0,0.0,0.011385337925214475,-0.04718922688461651,9.80964501700094,0.0,0.0,0.0,0.0,0.0,0.0,0.0,0.0,0.0
2025/05/20 13:02:46.425082420,1747738965,518745225,mA1/imu,0.6260411325998251,-0.7797893994060462,-0.0009549976406177138,0.00028433535217550423,0.0,0.0,0.0,0.0,0.0,0.0,0.0,0.0,0.0,-0.000372151894173822,0.00038535849707251204,0.010684343225226448,0.0,0.0,0.0,0.0,0.0,0.0,0.0,0.0,0.0,0.011654283430230134,-0.1184126168497175,9.809379148141105,0.0,0.0,0.0,0.0,0.0,0.0,0.0,0.0,0.0
2025/05/20 13:02:46.435859191,1747738965,568468497,mA1/imu,0.6258327961246551,-0.7799566300273978,-0.0009421114997455171,0.00028106409020639317,0.0,0.0,0.0,0.0,0.0,0.0,0.0,0.0,0.0,0.001148942974203025,8.922430714843938e-05,0.01068719991031251,0.0,0.0,0.0,0.0,0.0,0.0,0.0,0.0,0.0,0.010988571906517138,-0.5975560067593468,9.808363067113659,0.0,0.0,0.0,0.0,0.0,0.0,0.0,0.0,0.0
2025/05/20 13:02:46.435920635,1747738965,614864389,mA1/imu,0.6256243606274474,-0.7801238440577333,-0.0009342877944822509,0.000272815689584505,0.0,0.0,0.0,0.0,0.0,0.0,0.0,0.0,0.0,0.0010125356430065347,-0.00018157603320879164,0.010690081503407048,0.0,0.0,0.0,0.0,0.0,0.0,0.0,0.0,0.0,0.010599629189658927,0.029372985400814466,9.810337954625462,0.0,0.0,0.0,0.0,0.0,0.0,0.0,0.0,0.0
2025/05/20 13:02:46.446452450,1747738965,666052894,mA1/imu,0.6254158229434281,-0.7802910300324127,-0.0009408994758653516,0.0002675278068876729,0.0,0.0,0.0,0.0,0.0,0.0,0.0,0.0,0.0,-0.0005181789756736265,-0.00044065778794094747,0.010691730504377528,0.0,0.0,0.0,0.0,0.0,0.0,0.0,0.0,0.0,0.011068947303272283,0.5583374283234201,9.811004053268983,0.0,0.0,0.0,0.0,0.0,0.0,0.0,0.0,0.0
2025/05/20 13:02:46.457559169,1747738965,716634334,mA1/imu,0.6252071882605177,-0.780458197443687,-0.0009524211841180567,0.00025823287227930326,0.0,0.0,0.0,0.0,0.0,0.0,0.0,0.0,0.0,-0.0011341330227990826,-0.0006715402272439794,0.010693901743898084,0.0,0.0,0.0,0.0,0.0,0.0,0.0,0.0,0.0,0.010700741718043007,0.4623446940248441,9.810997136251878,0.0,0.0,0.0,0.0,0.0,0.0,0.0,0.0,0.0
2025/05/20 13:02:47.422480267,1747738966,465873672,mA1/imu,0.6220953425677737,-0.78294069400941,-0.0010942590275006057,0.00023878175892834874,0.0,0.0,0.0,0.0,0.0,0.0,0.0,0.0,0.0,-0.0007046681576345861,0.0013165639492823359,0.01061775612242433,0.0,0.0,0.0,0.0,0.0,0.0,0.0,0.0,0.0,0.007217498414221091,0.5553437022986495,9.810718063257239,0.0,0.0,0.0,0.0,0.0,0.0,0.0,0.0,0.0
2025/05/20 13:02:47.422775081,1747738966,517077519,mA1/imu,0.621887324006443,-0.7831059478187892,-0.0010764323025866753,0.00026837369303691353,0.0,0.0,0.0,0.0,0.0,0.0,0.0,0.0,0.0,-0.0013390204781919995,0.0013816659621189178,0.010635356877288057,0.0,0.0,0.0,0.0,0.0,0.0,0.0,0.0,0.0,0.007784703380325107,0.18175087194548045,9.810603849809208,0.0,0.0,0.0,0.0,0.0,0.0,0.0,0.0,0.0
2025/05/20 13:02:47.433453968,1747738966,566960833,mA1/imu,0.6216789254477506,-0.7832714206913031,-0.0010529721682204834,0.0002939931480043398,0.0,0.0,0.0,0.0,0.0,0.0,0.0,0.0,0.0,-0.00039852544255426276,0.0013652686286967325,0.010652496759186413,0.0,0.0,0.0,0.0,0.0,0.0,0.0,0.0,0.0,0.006927397437640346,-0.36784800488149494,9.809240394008247,0.0,0.0,0.0,0.0,0.0,0.0,0.0,0.0,0.0
2025/05/20 13:02:47.443792950,1747738966,617919455,mA1/imu,0.6214701379933163,-0.7834371141970065,-0.0010275471278867038,0.0003159559065509904,0.0,0.0,0.0,0.0,0.0,0.0,0.0,0.0,0.0,0.00039433440516632246,0.001264004903087987,0.010669644413410066,0.0,0.0,0.0,0.0,0.0,0.0,0.0,0.0,0.0,0.007766080199236852,-0.336501063815245,9.80976361519819,0.0,0.0,0.0,0.0,0.0,0.0,0.0,0.0,0.0
2025/05/20 13:02:47.456402041,1747738966,667869738,mA1/imu,0.6212609727652899,-0.783603007878603,-0.001007783894075727,0.00033783717166011837,0.0,0.0,0.0,0.0,0.0,0.0,0.0,0.0,0.0,-0.0011040864477459126,0.0010966358509929093,0.01068644166183488,0.0,0.0,0.0,0.0,0.0,0.0,0.0,0.0,0.0,0.008277454224642329,0.5059588917424762,9.810411904489744,0.0,0.0,0.0,0.0,0.0,0.0,0.0,0.0,0.0
2025/05/20 13:02:48.418251873,1747738967,463776113,mA1/imu,0.6178794212155525,-0.786272156230731,-0.0010428664826740443,0.00017205845006682208,0.0,0.0,0.0,0.0,0.0,0.0,0.0,0.0,0.0,-0.00015457774684751187,0.00025894581796504174,0.010944278112333625,0.0,0.0,0.0,0.0,0.0,0.0,0.0,0.0,0.0,0.0027552823358695158,-0.6358561607208095,9.809641862224474,0.0,0.0,0.0,0.0,0.0,0.0,0.0,0.0,0.0
2025/05/20 13:02:48.429528484,1747738967,514677037,mA1/imu,0.6176638987664154,-0.7864414705154081,-0.0010427099885797798,0.0001853917834410388,0.0,0.0,0.0,0.0,0.0,0.0,0.0,0.0,0.0,-0.0009174539512271104,0.0005076396902797491,0.010975945876276896,0.0,0.0,0.0,0.0,0.0,0.0,0.0,0.0,0.0,0.0039470854145688085,-0.05947452681627376,9.810311425391298,0.0,0.0,0.0,0.0,0.0,0.0,0.0,0.0,0.0
2025/05/20 13:02:49.317263724,1747738968,365228725,mA1/imu,0.6140332521291555,-0.7892794813260758,-0.0010154433045295693,0.00018577467263612674,0.0,0.0,0.0,0.0,0.0,0.0,0.0,0.0,0.0,0.0018557085881882698,-0.00012511277747289133,0.010138381327045967,0.0,0.0,0.0,0.0,0.0,0.0,0.0,0.0,0.0,-0.006693327556476676,-0.5706640280194839,9.80924658755876,0.0,0.0,0.0,0.0,0.0,0.0,0.0,0.0,0.0
2025/05/20 13:02:49.321254099,1747738968,416191103,mA1/imu,0.6138327625765966,-0.789435439566158,-0.0009972337118255299,0.00017852029160522016,0.0,0.0,0.0,0.0,0.0,0.0,0.0,0.0,0.0,0.0010435543575635436,0.00041950596380933326,0.010174987808766717,0.0,0.0,0.0,0.0,0.0,0.0,0.0,0.0,0.0,-0.006036629876135929,0.10253139464038863,9.810979812022554,0.0,0.0,0.0,0.0,0.0,0.0,0.0,0.0,0.0
2025/05/20 13:02:49.327728514,1747738968,466333234,mA1/imu,0.6136315364228597,-0.7895918862865027,-0.000977803342842122,0.0001857914584098847,0.0,0.0,0.0,0.0,0.0,0.0,0.0,0.0,0.0,0.001295849754175473,0.0008695697761987228,0.010209918929312653,0.0,0.0,0.0,0.0,0.0,0.0,0.0,0.0,0.0,-0.005163113473197874,0.026835109923712838,9.810445731638636,0.0,0.0,0.0,0.0,0.0,0.0,0.0,0.0,0.0
2025/05/20 13:02:49.338447791,1747738968,517880241,mA1/imu,0.6134296064598563,-0.7897488005856345,-0.0009533645897452402,0.00020245497419395041,0.0,0.0,0.0,0.0,0.0,0.0,0.0,0.0,0.0,0.0015406340002921165,0.0012596049109909694,0.010242433816683407,0.0,0.0,0.0,0.0,0.0,0.0,0.0,0.0,0.0,-0.004618001723364903,-0.5778246537251752,9.809208059125757,0.0,0.0,0.0,0.0,0.0,0.0,0.0,0.0,0.0
2025/05/20 13:02:50.114986713,1747738969,162863197,mA1/imu,0.6107694549064365,-0.7918078687817762,-0.0009000034323287863,0.0004023460915613062,0.0,0.0,0.0,0.0,0.0,0.0,0.0,0.0,0.0,-0.00264653038112835,-0.001802725836977464,0.010105430992419031,0.0,0.0,0.0,0.0,0.0,0.0,0.0,0.0,0.0,-0.006833084706867808,0.4497307986543984,9.809619306789061,0.0,0.0,0.0,0.0,0.0,0.0,0.0,0.0,0.0
2025/05/20 13:02:50.119631451,1747738969,213805558,mA1/imu,0.610568774424964,-0.7919626125598361,-0.0009261751834822444,0.00036633881244171624,0.0,0.0,0.0,0.0,0.0,0.0,0.0,0.0,0.0,-0.0015121843348009315,-0.0017396438316730502,0.01015300900100648,0.0,0.0,0.0,0.0,0.0,0.0,0.0,0.0,0.0,-0.006741586879099264,0.5347539255037396,9.80927796373848,0.0,0.0,0.0,0.0,0.0,0.0,0.0,0.0,0.0
2025/05/20 13:02:50.124475779,1747738969,265482105,mA1/imu,0.6103671236444496,-0.7921179991804864,-0.0009651686721084127,0.00034379898012392465,0.0,0.0,0.0,0.0,0.0,0.0,0.0,0.0,0.0,-0.0009374419970803523,-0.001607699831690307,0.010200159099475128,0.0,0.0,0.0,0.0,0.0,0.0,0.0,0.0,0.0,-0.006649555249143651,0.570614692109609,9.810267066535783,0.0,0.0,0.0,0.0,0.0,0.0,0.0,0.0,0.0
2025/05/20 13:02:50.818523065,1747738969,866211977,mA1/imu,0.6078782410081797,-0.7940296775038761,-0.0008989442383569496,0.0003274922111661472,0.0,0.0,0.0,0.0,0.0,0.0,0.0,0.0,0.0,0.0015472923023877013,0.0011376484569413847,0.010808171716775263,0.0,0.0,0.0,0.0,0.0,0.0,0.0,0.0,0.0,-0.00017656896807657398,-0.5919830098140457,9.809913808973548,0.0,0.0,0.0,0.0,0.0,0.0,0.0,0.0,0.0
2025/05/20 13:02:50.826132361,1747738969,917245392,mA1/imu,0.6076631945828013,-0.7941942946360312,-0.0008668902535882948,0.0003358843396367288,0.0,0.0,0.0,0.0,0.0,0.0,0.0,0.0,0.0,0.0013871925952183902,0.0009537450142076203,0.01085004303427549,0.0,0.0,0.0,0.0,0.0,0.0,0.0,0.0,0.0,0.0006150336048301383,0.02950461604696585,9.80937702923099,0.0,0.0,0.0,0.0,0.0,0.0,0.0,0.0,0.0
2025/05/20 13:02:50.836354328,1747738969,967430002,mA1/imu,0.6074472716567879,-0.7943594765870367,-0.0008455042818758575,0.00034530508678363406,0.0,0.0,0.0,0.0,0.0,0.0,0.0,0.0,0.0,-0.0002605025990198085,0.0007100564476702398,0.010890855317932933,0.0,0.0,0.0,0.0,0.0,0.0,0.0,0.0,0.0,0.0012595142354463011,0.5482108411695436,9.809952514291668,0.0,0.0,0.0,0.0,0.0,0.0,0.0,0.0,0.0
2025/05/20 13:02:50.847013639,1747738970,20221036,mA1/imu,0.607230514007055,-0.7945251996280942,-0.0008292671597158414,0.0003497579773599767,0.0,0.0,0.0,0.0,0.0,0.0,0.0,0.0,0.0,-0.00020609332422793673,0.00040420395047882244,0.01093014607253322,0.0,0.0,0.0,0.0,0.0,0.0,0.0,0.0,0.0,0.0015051554322854594,-0.07324446480051293,9.810711854592835,0.0,0.0,0.0,0.0,0.0,0.0,0.0,0.0,0.0
2025/05/20 13:02:51.317856191,1747738970,365005116,mA1/imu,0.605674925467145,-0.7957116313552228,-0.0009139562582062779,0.00022151825259107677,0.0,0.0,0.0,0.0,0.0,0.0,0.0,0.0,0.0,-0.0012562640127834904,-0.002054452401484209,0.011209683826697967,0.0,0.0,0.0,0.0,0.0,0.0,0.0,0.0,0.0,0.005820083572784861,0.5477399114140659,9.809801088199933,0.0,0.0,0.0,0.0,0.0,0.0,0.0,0.0,0.0
2025/05/20 13:02:51.325379924,1747738970,418243378,mA1/imu,0.6054518661623909,-0.7958813257905972,-0.0009578206732024854,0.00018867389184120206,0.0,0.0,0.0,0.0,0.0,0.0,0.0,0.0,0.0,-0.0012149218329619248,-0.002138619356868711,0.011209122523056312,0.0,0.0,0.0,0.0,0.0,0.0,0.0,0.0,0.0,0.005019092091470216,-0.0734415673349875,9.810766826586892,0.0,0.0,0.0,0.0,0.0,0.0,0.0,0.0,0.0
2025/05/20 13:02:52.265998809,1747738971,316476137,mA1/imu,0.6013812903891105,-0.7989615756685883,-0.0009274576336100714,0.0002898231064227562,0.0,0.0,0.0,0.0,0.0,0.0,0.0,0.0,0.0,0.00031667413542157627,8.149026305152919e-05,0.011921991855310295,0.0,0.0,0.0,0.0,0.0,0.0,0.0,0.0,0.0,0.01890524443531209,-0.2241767791601245,9.809853596990843,0.0,0.0,0.0,0.0,0.0,0.0,0.0,0.0,0.0
2025/05/20 13:02:52.267516714,1747738971,369193270,mA1/imu,0.6011433510531525,-0.7991406237669426,-0.0009261737848926116,0.00027772664316041165,0.0,0.0,0.0,0.0,0.0,0.0,0.0,0.0,0.0,-2.319181880199465e-05,-0.0006583641466599398,0.011903596280789701,0.0,0.0,0.0,0.0,0.0,0.0,0.0,0.0,0.0,0.01819676085535768,-0.28441553456016655,9.809969568691354,0.0,0.0,0.0,0.0,0.0,0.0,0.0,0.0,0.0
2025/05/20 13:02:52.286153705,1747738971,419619551,mA1/imu,0.6009057230704563,-0.7993193151186497,-0.000938134885062338,0.00025369738342614386,0.0,0.0,0.0,0.0,0.0,0.0,0.0,0.0,0.0,0.0001139483641618048,-0.0013351658811726766,0.011885135727313692,0.0,0.0,0.0,0.0,0.0,0.0,0.0,0.0,0.0,0.017643740591204007,-0.6722616151871819,9.81024959908936,0.0,0.0,0.0,0.0,0.0,0.0,0.0,0.0,0.0
2025/05/20 13:02:52.294543914,1747738971,462250548,mA1/imu,0.6006683748419719,-0.7994976925607756,-0.000948383492041509,0.00020886227992711993,0.0,0.0,0.0,0.0,0.0,0.0,0.0,0.0,0.0,0.0011764421724650702,-0.0019065385210573285,0.011867137250528263,0.0,0.0,0.0,0.0,0.0,0.0,0.0,0.0,0.0,0.01651878149928609,-0.5076431998979474,9.808356170853228,0.0,0.0,0.0,0.0,0.0,0.0,0.0,0.0,0.0
2025/05/20 13:02:52.817566544,1747738971,862431763,mA1/imu,0.5987785108319176,-0.8009137218828457,-0.0012185562712486422,-0.0001420784732975637,0.0,0.0,0.0,0.0,0.0,0.0,0.0,0.0,0.0,-0.00016705238382480486,-0.0010518405967158192,0.011753446197441153,0.0,0.0,0.0,0.0,0.0,0.0,0.0,0.0,0.0,0.011782554399998944,-0.01307186810132734,9.808877836313188,0.0,0.0,0.0,0.0,0.0,0.0,0.0,0.0,0.0
2025/05/20 13:02:52.820803236,1747738971,916421847,mA1/imu,0.5985432692586526,-0.8010895129249176,-0.001234597385800787,-0.00015124872678345708,0.0,0.0,0.0,0.0,0.0,0.0,0.0,0.0,0.0,-0.0005248631173385566,-0.00044292633839090526,0.01174174543118273,0.0,0.0,0.0,0.0,0.0,0.0,0.0,0.0,0.0,0.01180934412441817,0.07383100313634508,9.811514112900182,0.0,0.0,0.0,0.0,0.0,0.0,0.0,0.0,0.0
2025/05/20 13:02:53.172901817,1747738972,213224514,mA1/imu,0.5971075676109366,-0.8021603479822437,-0.0011517800057662744,4.7218371032047447e-05,0.0,0.0,0.0,0.0,0.0,0.0,0.0,0.0,0.0,-0.0005330484058144288,0.002317546191471896,0.01217377323756451,0.0,0.0,0.0,0.0,0.0,0.0,0.0,0.0,0.0,0.020780666458638263,-0.038182497537704946,9.810461410835812,0.0,0.0,0.0,0.0,0.0,0.0,0.0,0.0,0.0
