time,header_stamp_secs,header_stamp_nsecs,header_frame_id,orientation_x,orientation_y,orientation_z,orientation_w,orientation_covariance_0,orientation_covariance_1,orientation_covariance_2,orientation_covariance_3,orientation_covariance_4,orientation_covariance_5,orientation_covariance_6,orientation_covariance_7,orientation_covariance_8,angular_velocity_x,angular_velocity_y,angular_velocity_z,angular_velocity_covariance_0,angular_velocity_covariance_1,angular_velocity_covariance_2,angular_velocity_covariance_3,angular_velocity_covariance_4,angular_velocity_covariance_5,angular_velocity_covariance_6,angular_velocity_covariance_7,angular_velocity_covariance_8,linear_acceleration_x,linear_acceleration_y,linear_acceleration_z,linear_acceleration_covariance_0,linear_acceleration_covariance_1,linear_acceleration_covariance_2,linear_acceleration_covariance_3,linear_acceleration_covariance_4,linear_acceleration_covariance_5,linear_acceleration_covariance_6,linear_acceleration_covariance_7,linear_acceleration_covariance_8
2025/05/06 15:20:05.569538196,1746537605,568577945,mA1/imu,0.7767231629436091,-0.6298415160676841,-0.0008125763313461135,0.00036401118456817126,0.0,0.0,0.0,0.0,0.0,0.0,0.0,0.0,0.0,2.0133164035166362e-05,6.183526421588103e-06,-2.7076439250936927e-08,0.0,0.0,0.0,0.0,0.0,0.0,0.0,0.0,0.0,0.007898352011713593,-0.015322778684666517,9.809055726860187,0.0,0.0,0.0,0.0,0.0,0.0,0.0,0.0,0.0
2025/05/06 15:20:05.633531103,1746537605,620599735,mA1/imu,0.7767231636485727,-0.6298415158566041,-0.0008121828711162564,0.0003637501773014614,0.0,0.0,0.0,0.0,0.0,0.0,0.0,0.0,0.0,1.749017255530789e-05,5.271832467009329e-06,-2.76287386129697e-08,0.0,0.0,0.0,0.0,0.0,0.0,0.0,0.0,0.0,0.007895211965629341,-0.015331068116387056,9.80870439095922,0.0,0.0,0.0,0.0,0.0,0.0,0.0,0.0,0.0
2025/05/06 15:20:05.669424000,1746537605,664708615,mA1/imu,0.7767231642724721,-0.6298415155773516,-0.0008118867406325502,0.00036356251644476987,0.0,0.0,0.0,0.0,0.0,0.0,0.0,0.0,0.0,1.130032340605925e-05,3.851531862585271e-06,-2.571469502841711e-08,0.0,0.0,0.0,0.0,0.0,0.0,0.0,0.0,0.0,0.007899923643600029,-0.015939009862042948,9.811201884317677,0.0,0.0,0.0,0.0,0.0,0.0,0.0,0.0,0.0
2025/05/06 15:20:05.721886426,1746537605,719351430,mA1/imu,0.7767231648105135,-0.6298415153032344,-0.0008116573141145508,0.0003634001513611679,0.0,0.0,0.0,0.0,0.0,0.0,0.0,0.0,0.0,8.68277388290026e-06,2.569616277060685e-06,-2.216180594639298e-08,0.0,0.0,0.0,0.0,0.0,0.0,0.0,0.0,0.0,0.007892324636601908,-0.01565984768869447,9.810852317027601,0.0,0.0,0.0,0.0,0.0,0.0,0.0,0.0,0.0
2025/05/06 15:20:05.768891940,1746537605,767202783,mA1/imu,0.7767231652296452,-0.6298415149786769,-0.0008115423494181359,0.000363323576553307,0.0,0.0,0.0,0.0,0.0,0.0,0.0,0.0,0.0,2.309749007576402e-06,9.689341997406967e-07,-2.074174354857453e-08,0.0,0.0,0.0,0.0,0.0,0.0,0.0,0.0,0.0,0.007900007768865252,-0.015217367215032734,9.809037805781484,0.0,0.0,0.0,0.0,0.0,0.0,0.0,0.0,0.0
2025/05/06 15:20:05.823258133,1746537605,818123395,mA1/imu,0.7767231655237815,-0.6298415145641653,-0.0008115697057038561,0.0003633522361935643,0.0,0.0,0.0,0.0,0.0,0.0,0.0,0.0,0.0,-3.1044149075205486e-06,-8.700480016549159e-07,-1.9371438321204584e-08,0.0,0.0,0.0,0.0,0.0,0.0,0.0,0.0,0.0,0.007900494253754836,-0.01529331264173267,9.808693138762127,0.0,0.0,0.0,0.0,0.0,0.0,0.0,0.0,0.0
2025/05/06 15:20:05.861321245,1746537605,859107460,mA1/imu,0.776723165691045,-0.6298415140711597,-0.0008117347786662725,0.00036348050801645254,0.0,0.0,0.0,0.0,0.0,0.0,0.0,0.0,0.0,-1.0546353550741826e-05,-2.5499686715057804e-06,-1.691121902390023e-08,0.0,0.0,0.0,0.0,0.0,0.0,0.0,0.0,0.0,0.007896894564332686,-0.015922597115820204,9.811220875751232,0.0,0.0,0.0,0.0,0.0,0.0,0.0,0.0,0.0
2025/05/06 15:20:05.919241266,1746537605,915394707,mA1/imu,0.7767231657366862,-0.6298415135160953,-0.0008120254984991264,0.00036369537278266203,0.0,0.0,0.0,0.0,0.0,0.0,0.0,0.0,0.0,-1.7161929152964587e-05,-4.33102929644533e-06,-1.4264366818348053e-08,0.0,0.0,0.0,0.0,0.0,0.0,0.0,0.0,0.0,0.007900384596739484,-0.015924585715488417,9.810877786084905,0.0,0.0,0.0,0.0,0.0,0.0,0.0,0.0,0.0
2025/05/06 15:20:05.957219664,1746537605,956909115,mA1/imu,0.7767231656708732,-0.6298415129320782,-0.0008124168167899656,0.0003639733006943919,0.0,0.0,0.0,0.0,0.0,0.0,0.0,0.0,0.0,-2.0138162780048066e-05,-5.683453315116728e-06,-1.1969322858525889e-08,0.0,0.0,0.0,0.0,0.0,0.0,0.0,0.0,0.0,0.007900366603129826,-0.015324143642131745,9.809062504813406,0.0,0.0,0.0,0.0,0.0,0.0,0.0,0.0,0.0
2025/05/06 15:20:06.28585544,1746537606,10702432,mA1/imu,0.7767231654989074,-0.6298415123467928,-0.0008128876340828331,0.0003643017380039587,0.0,0.0,0.0,0.0,0.0,0.0,0.0,0.0,0.0,-2.222846820898523e-05,-6.6820717533194876e-06,-9.039416971968875e-09,0.0,0.0,0.0,0.0,0.0,0.0,0.0,0.0,0.0,0.007894486956191953,-0.01533572483709001,9.80872325705177,0.0,0.0,0.0,0.0,0.0,0.0,0.0,0.0,0.0
2025/05/06 15:20:06.93971022,1746537606,63425093,mA1/imu,0.7767231652175316,-0.6298415117904598,-0.000813417421407208,0.0003646807724455387,0.0,0.0,0.0,0.0,0.0,0.0,0.0,0.0,0.0,-2.6024960918436107e-05,-7.054528310210537e-06,-4.054173968369664e-09,0.0,0.0,0.0,0.0,0.0,0.0,0.0,0.0,0.0,0.007889664810708992,-0.015937084911793277,9.811262675715215,0.0,0.0,0.0,0.0,0.0,0.0,0.0,0.0,0.0
2025/05/06 15:20:06.117246549,1746537606,113995813,mA1/imu,0.7767231649101273,-0.6298415113967959,-0.0008138817264907678,0.0003649793563659453,0.0,0.0,0.0,0.0,0.0,0.0,0.0,0.0,0.0,-2.431948645006663e-05,-6.804957533191419e-06,-2.5682840772739404e-11,0.0,0.0,0.0,0.0,0.0,0.0,0.0,0.0,0.0,0.007890610528590445,-0.015639627239704537,9.810916223622081,0.0,0.0,0.0,0.0,0.0,0.0,0.0,0.0,0.0
2025/05/06 15:20:06.164195112,1746537606,160800528,mA1/imu,0.7767231645348283,-0.629841510975316,-0.0008143969717288755,0.0003653558615613597,0.0,0.0,0.0,0.0,0.0,0.0,0.0,0.0,0.0,-2.5393926708664744e-05,-6.319475985891524e-06,1.9539116394518057e-09,0.0,0.0,0.0,0.0,0.0,0.0,0.0,0.0,0.0,0.007891418664704913,-0.01520737683291269,9.809109265407596,0.0,0.0,0.0,0.0,0.0,0.0,0.0,0.0,0.0
2025/05/06 15:20:06.217234560,1746537606,213500965,mA1/imu,0.7767231641395297,-0.6298415105641466,-0.0008149119895028553,0.0003657564775876415,0.0,0.0,0.0,0.0,0.0,0.0,0.0,0.0,0.0,-2.4255038861544866e-05,-5.497481851260844e-06,2.8290032503350597e-09,0.0,0.0,0.0,0.0,0.0,0.0,0.0,0.0,0.0,0.00788452979013925,-0.015287296409470992,9.808764249402666,0.0,0.0,0.0,0.0,0.0,0.0,0.0,0.0,0.0
2025/05/06 15:20:06.290322928,1746537606,268970089,mA1/imu,0.7767231637449444,-0.629841510189346,-0.0008153964764566312,0.000366159848320091,0.0,0.0,0.0,0.0,0.0,0.0,0.0,0.0,0.0,-2.402645338629088e-05,-4.439552747008202e-06,4.825467339827359e-09,0.0,0.0,0.0,0.0,0.0,0.0,0.0,0.0,0.0,0.00788816670554057,-0.0159106566682958,9.811262915493359,0.0,0.0,0.0,0.0,0.0,0.0,0.0,0.0,0.0
2025/05/06 15:20:06.328445490,1746537606,309865685,mA1/imu,0.7767231633789489,-0.6298415098660612,-0.0008158238796220304,0.0003665400886189816,0.0,0.0,0.0,0.0,0.0,0.0,0.0,0.0,0.0,-2.238280640653877e-05,-3.2090470765320017e-06,6.11965909009079e-09,0.0,0.0,0.0,0.0,0.0,0.0,0.0,0.0,0.0,0.007888857154284334,-0.015913138775987632,9.810913965645055,0.0,0.0,0.0,0.0,0.0,0.0,0.0,0.0,0.0
2025/05/06 15:20:06.383952698,1746537606,366205844,mA1/imu,0.7767231630775945,-0.629841509608043,-0.0008161623602630794,0.0003668683684718758,0.0,0.0,0.0,0.0,0.0,0.0,0.0,0.0,0.0,-1.7021446775326182e-05,-1.5958939106672675e-06,5.149710748002922e-09,0.0,0.0,0.0,0.0,0.0,0.0,0.0,0.0,0.0,0.007887592567633401,-0.015319999510725876,9.809114615753774,0.0,0.0,0.0,0.0,0.0,0.0,0.0,0.0,0.0
2025/05/06 15:20:06.455075777,1746537606,413615352,mA1/imu,0.7767231628702463,-0.6298415094079484,-0.0008163963224125351,0.0003671302262045415,0.0,0.0,0.0,0.0,0.0,0.0,0.0,0.0,0.0,-1.1024175649948232e-05,-1.1994442806617836e-07,3.0397017826975326e-09,0.0,0.0,0.0,0.0,0.0,0.0,0.0,0.0,0.0,0.007890233397666707,-0.01533109462416734,9.808765545611813,0.0,0.0,0.0,0.0,0.0,0.0,0.0,0.0,0.0
2025/05/06 15:20:06.481181996,1746537606,457320881,mA1/imu,0.7767231627648273,-0.6298415092576439,-0.0008165261394752746,0.00036732236567581846,0.0,0.0,0.0,0.0,0.0,0.0,0.0,0.0,0.0,-7.145029490194405e-06,1.480061978440331e-06,1.6621639668096009e-09,0.0,0.0,0.0,0.0,0.0,0.0,0.0,0.0,0.0,0.007882021802201121,-0.015926631669929546,9.811248617938132,0.0,0.0,0.0,0.0,0.0,0.0,0.0,0.0,0.0
2025/05/06 15:20:06.515435522,1746537606,514205628,mA1/imu,0.7767231627710571,-0.6298415091601797,-0.0008165438067758151,0.0003674370218518397,0.0,0.0,0.0,0.0,0.0,0.0,0.0,0.0,0.0,-2.8303318886711566e-06,2.846113884128925e-06,-4.676646793429892e-10,0.0,0.0,0.0,0.0,0.0,0.0,0.0,0.0,0.0,0.007887342364929018,-0.015916183261561342,9.810899499666926,0.0,0.0,0.0,0.0,0.0,0.0,0.0,0.0,0.0
2025/05/06 15:20:06.562963734,1746537606,562118671,mA1/imu,0.7767231629029534,-0.629841509117394,-0.0008164425221894619,0.0003674566149311562,0.0,0.0,0.0,0.0,0.0,0.0,0.0,0.0,0.0,4.285216463888833e-06,4.1859659415934044e-06,-3.622444375071662e-09,0.0,0.0,0.0,0.0,0.0,0.0,0.0,0.0,0.0,0.00788536697367965,-0.015317287022454081,9.809097020096072,0.0,0.0,0.0,0.0,0.0,0.0,0.0,0.0,0.0
2025/05/06 15:20:06.625301600,1746537606,610835051,mA1/imu,0.7767231631616354,-0.6298415091251806,-0.0008162246239099636,0.0003673805409118043,0.0,0.0,0.0,0.0,0.0,0.0,0.0,0.0,0.0,1.1139458595594282e-05,5.123852977637978e-06,-7.408791561355796e-09,0.0,0.0,0.0,0.0,0.0,0.0,0.0,0.0,0.0,0.007893812636139363,-0.015324270286045017,9.808742160134955,0.0,0.0,0.0,0.0,0.0,0.0,0.0,0.0,0.0
2025/05/06 15:20:06.764175837,1746537606,665853634,mA1/imu,0.7767231635406766,-0.6298415091514429,-0.0008159188808872847,0.00036721325678355945,0.0,0.0,0.0,0.0,0.0,0.0,0.0,0.0,0.0,1.4849693245681788e-05,5.406884874877077e-06,-1.1347811847010523e-08,0.0,0.0,0.0,0.0,0.0,0.0,0.0,0.0,0.0,0.007888641830895604,-0.01592400062323001,9.811222100648932,0.0,0.0,0.0,0.0,0.0,0.0,0.0,0.0,0.0
2025/05/06 15:20:06.826906328,1746537606,711230002,mA1/imu,0.7767231640365307,-0.6298415091806769,-0.000815536295362291,0.00036696408390467564,0.0,0.0,0.0,0.0,0.0,0.0,0.0,0.0,0.0,1.8018571625094097e-05,5.66208570149483e-06,-1.553366788943655e-08,0.0,0.0,0.0,0.0,0.0,0.0,0.0,0.0,0.0,0.007892640701594785,-0.015914024287736726,9.810868704078041,0.0,0.0,0.0,0.0,0.0,0.0,0.0,0.0,0.0
2025/05/06 15:20:06.848196434,1746537606,768882945,mA1/imu,0.7767231646470585,-0.6298415092007955,-0.0008150885082496643,0.00036663203137348604,0.0,0.0,0.0,0.0,0.0,0.0,0.0,0.0,0.0,2.2959767324829176e-05,5.471428947680368e-06,-2.0762279550394e-08,0.0,0.0,0.0,0.0,0.0,0.0,0.0,0.0,0.0,0.007896308308368839,-0.015318590226415447,9.809060248363108,0.0,0.0,0.0,0.0,0.0,0.0,0.0,0.0,0.0
2025/05/06 15:20:06.861482837,1746537606,809433878,mA1/imu,0.7767231653553275,-0.629841509222235,-0.0008145845301601137,0.00036621455636541,0.0,0.0,0.0,0.0,0.0,0.0,0.0,0.0,0.0,2.737667652365231e-05,4.918086686549594e-06,-2.5567291532436023e-08,0.0,0.0,0.0,0.0,0.0,0.0,0.0,0.0,0.0,0.007895015562262632,-0.015283438606727838,9.80870568476929,0.0,0.0,0.0,0.0,0.0,0.0,0.0,0.0,0.0
2025/05/06 15:20:06.919332368,1746537606,870551654,mA1/imu,0.7767231661018312,-0.6298415092139593,-0.0008140797544982604,0.00036576766187683017,0.0,0.0,0.0,0.0,0.0,0.0,0.0,0.0,0.0,2.6836691231552633e-05,4.083127688242529e-06,-2.7173107099786472e-08,0.0,0.0,0.0,0.0,0.0,0.0,0.0,0.0,0.0,0.007899547443644345,-0.01591556655870921,9.811199560453261,0.0,0.0,0.0,0.0,0.0,0.0,0.0,0.0,0.0
2025/05/06 15:20:06.946551040,1746537606,909322199,mA1/imu,0.7767231668562682,-0.6298415091822919,-0.000813591645740468,0.0003653058674200816,0.0,0.0,0.0,0.0,0.0,0.0,0.0,0.0,0.0,2.5409052878515355e-05,3.2456793386305655e-06,-2.766009409085961e-08,0.0,0.0,0.0,0.0,0.0,0.0,0.0,0.0,0.0,0.007892091704863265,-0.015915308723440207,9.81085096981198,0.0,0.0,0.0,0.0,0.0,0.0,0.0,0.0,0.0
2025/05/06 15:20:06.984606657,1746537606,969660644,mA1/imu,0.7767231675993312,-0.6298415091348931,-0.0008131278597194593,0.0003648399993134916,0.0,0.0,0.0,0.0,0.0,0.0,0.0,0.0,0.0,2.563194147656146e-05,2.2865652512783415e-06,-2.8617815523011527e-08,0.0,0.0,0.0,0.0,0.0,0.0,0.0,0.0,0.0,0.007898225214113154,-0.015319348707594344,9.809057275324033,0.0,0.0,0.0,0.0,0.0,0.0,0.0,0.0,0.0
2025/05/06 15:20:07.101693578,1746537607,8744895,mA1/imu,0.7767231683026368,-0.6298415090670402,-0.0008127107732091638,0.00036438889444046857,0.0,0.0,0.0,0.0,0.0,0.0,0.0,0.0,0.0,2.4605268900502785e-05,1.0801943339647245e-06,-2.8662473731037262e-08,0.0,0.0,0.0,0.0,0.0,0.0,0.0,0.0,0.0,0.007899451388471267,-0.015328959861149285,9.808707061203886,0.0,0.0,0.0,0.0,0.0,0.0,0.0,0.0,0.0
2025/05/06 15:20:07.125534557,1746537607,60450374,mA1/imu,0.7767231689613742,-0.6298415090098138,-0.0008123291877229021,0.0003639342413792212,0.0,0.0,0.0,0.0,0.0,0.0,0.0,0.0,0.0,2.5456271490905107e-05,-5.48179819151329e-08,-2.7105098986863768e-08,0.0,0.0,0.0,0.0,0.0,0.0,0.0,0.0,0.0,0.007892522919742814,-0.015547190981224082,9.811195750677468,0.0,0.0,0.0,0.0,0.0,0.0,0.0,0.0,0.0
2025/05/06 15:20:07.160449140,1746537607,105551579,mA1/imu,0.7767231695448438,-0.629841508929384,-0.0008120165684370847,0.00036352559913226443,0.0,0.0,0.0,0.0,0.0,0.0,0.0,0.0,0.0,1.6617477273573284e-05,-1.0019490089303878e-06,-2.4921364357751537e-08,0.0,0.0,0.0,0.0,0.0,0.0,0.0,0.0,0.0,0.007896324332265904,-0.01576031714985361,9.81086969169144,0.0,0.0,0.0,0.0,0.0,0.0,0.0,0.0,0.0
2025/05/06 15:20:07.198839091,1746537607,165067434,mA1/imu,0.7767231700161575,-0.6298415087623948,-0.0008118277756675733,0.00036322943738512423,0.0,0.0,0.0,0.0,0.0,0.0,0.0,0.0,0.0,1.1394178156090967e-05,-1.9942298975293315e-06,-2.3006510589543426e-08,0.0,0.0,0.0,0.0,0.0,0.0,0.0,0.0,0.0,0.007892624460310627,-0.015262542265135568,9.809068006562848,0.0,0.0,0.0,0.0,0.0,0.0,0.0,0.0,0.0
2025/05/06 15:20:07.222486114,1746537607,207407721,mA1/imu,0.7767231703709191,-0.62984150853201,-0.0008117520596168705,0.00036303947987963294,0.0,0.0,0.0,0.0,0.0,0.0,0.0,0.0,0.0,6.340505286631437e-06,-2.6489139901992106e-06,-1.9970976126833833e-08,0.0,0.0,0.0,0.0,0.0,0.0,0.0,0.0,0.0,0.007889435815856145,-0.015311686790490022,9.808724353946591,0.0,0.0,0.0,0.0,0.0,0.0,0.0,0.0,0.0
2025/05/06 15:20:07.261952407,1746537607,261212849,mA1/imu,0.7767231705922477,-0.629841508245331,-0.0008117972524962274,0.0003629622478314593,0.0,0.0,0.0,0.0,0.0,0.0,0.0,0.0,0.0,-1.2783198090063562e-06,-3.831821414726122e-06,-1.6356683994573084e-08,0.0,0.0,0.0,0.0,0.0,0.0,0.0,0.0,0.0,0.007900309570722493,-0.015925403324024468,9.81124852832129,0.0,0.0,0.0,0.0,0.0,0.0,0.0,0.0,0.0
2025/05/06 15:20:07.361204804,1746537607,313379314,mA1/imu,0.7767231706787194,-0.6298415079041632,-0.0008119663723309997,0.00036299093239940377,0.0,0.0,0.0,0.0,0.0,0.0,0.0,0.0,0.0,-8.610659087336825e-06,-4.954427285176506e-06,-1.2610967800983985e-08,0.0,0.0,0.0,0.0,0.0,0.0,0.0,0.0,0.0,0.00789994530035605,-0.015923578346589477,9.81090759840185,0.0,0.0,0.0,0.0,0.0,0.0,0.0,0.0,0.0
2025/05/06 15:20:07.468787540,1746537607,366070862,mA1/imu,0.7767231706348742,-0.6298415075392919,-0.000812233830365307,0.0003631194635079422,0.0,0.0,0.0,0.0,0.0,0.0,0.0,0.0,0.0,-1.2906171535276287e-05,-5.070721524178374e-06,-7.759501443143093e-09,0.0,0.0,0.0,0.0,0.0,0.0,0.0,0.0,0.0,0.007889468636942466,-0.015331345891464655,9.809100170240086,0.0,0.0,0.0,0.0,0.0,0.0,0.0,0.0,0.0
2025/05/06 15:20:07.502844378,1746537607,408155867,mA1/imu,0.7767231704578444,-0.6298415071810635,-0.0008125783670392167,0.0003633485901351166,0.0,0.0,0.0,0.0,0.0,0.0,0.0,0.0,0.0,-1.6681892359377636e-05,-4.888958033625481e-06,-2.783767697284577e-09,0.0,0.0,0.0,0.0,0.0,0.0,0.0,0.0,0.0,0.007893505444401417,-0.015341829038356458,9.808755070119748,0.0,0.0,0.0,0.0,0.0,0.0,0.0,0.0,0.0
2025/05/06 15:20:07.567142430,1746537607,469611916,mA1/imu,0.7767231701522587,-0.6298415068350017,-0.0008129920021490394,0.0003636762904853866,0.0,0.0,0.0,0.0,0.0,0.0,0.0,0.0,0.0,-2.224246990094521e-05,-4.387714504862792e-06,3.664253158809319e-09,0.0,0.0,0.0,0.0,0.0,0.0,0.0,0.0,0.0,0.007889977992336702,-0.01593910431330282,9.811280551294809,0.0,0.0,0.0,0.0,0.0,0.0,0.0,0.0,0.0
2025/05/06 15:20:07.599385768,1746537607,513245603,mA1/imu,0.7767231688304151,-0.6298415077702467,-0.0008132849465400623,0.0003642242941423267,0.0,0.0,0.0,0.0,0.0,0.0,0.0,0.0,0.0,-2.6624083384784762e-05,1.80554398821995e-05,1.8035628481142535e-07,0.0,0.0,0.0,0.0,0.0,0.0,0.0,0.0,0.0,0.006838960325017225,-0.015912886078689494,9.810934227824122,0.0,0.0,0.0,0.0,0.0,0.0,0.0,0.0,0.0
2025/05/06 15:20:07.623411762,1746537607,562979586,mA1/imu,0.7767231637447299,-0.6298415138402735,-0.0008129325091311548,0.00036535805113177805,0.0,0.0,0.0,0.0,0.0,0.0,0.0,0.0,0.0,-2.687832419698949e-05,5.318877826090748e-05,4.732215193091114e-07,0.0,0.0,0.0,0.0,0.0,0.0,0.0,0.0,0.0,0.006901535920906352,-0.015302459049235028,9.809107571881999,0.0,0.0,0.0,0.0,0.0,0.0,0.0,0.0,0.0
2025/05/06 15:20:07.638800046,1746537607,607174093,mA1/imu,0.7767231549138753,-0.6298415250192424,-0.0008119611823646329,0.00036701649743679153,0.0,0.0,0.0,0.0,0.0,0.0,0.0,0.0,0.0,-2.601448901480147e-05,8.378972283891963e-05,7.456565334833786e-07,0.0,0.0,0.0,0.0,0.0,0.0,0.0,0.0,0.0,0.006925865722248707,-0.015313053178293857,9.808760059247248,0.0,0.0,0.0,0.0,0.0,0.0,0.0,0.0,0.0
2025/05/06 15:20:07.670313335,1746537607,658141283,mA1/imu,0.7767231424721271,-0.6298415410700373,-0.0008104667466899869,0.0003690994400016304,0.0,0.0,0.0,0.0,0.0,0.0,0.0,0.0,0.0,-2.6696445570464076e-05,0.00010817247110093924,1.0034784688060226e-06,0.0,0.0,0.0,0.0,0.0,0.0,0.0,0.0,0.0,0.00697470018512049,-0.01591827615316991,9.811268879499428,0.0,0.0,0.0,0.0,0.0,0.0,0.0,0.0,0.0
2025/05/06 15:20:07.716789192,1746537607,712811383,mA1/imu,0.776723126543174,-0.6298415617704192,-0.000808555642692235,0.00037147997055165345,0.0,0.0,0.0,0.0,0.0,0.0,0.0,0.0,0.0,-2.6055719227767767e-05,0.00012572763912251358,1.2454218557617994e-06,0.0,0.0,0.0,0.0,0.0,0.0,0.0,0.0,0.0,0.00700523358095684,-0.0159088247295175,9.810917667862753,0.0,0.0,0.0,0.0,0.0,0.0,0.0,0.0,0.0
2025/05/06 15:20:07.787116865,1746537607,761426779,mA1/imu,0.7767231072576368,-0.6298415868840708,-0.0008063551983704833,0.00037399825020621827,0.0,0.0,0.0,0.0,0.0,0.0,0.0,0.0,0.0,-2.1403590801286807e-05,0.00013482674933297238,1.4682762174449015e-06,0.0,0.0,0.0,0.0,0.0,0.0,0.0,0.0,0.0,0.007077059893316821,-0.015299082246113803,9.80908872937537,0.0,0.0,0.0,0.0,0.0,0.0,0.0,0.0,0.0
2025/05/06 15:20:07.828228578,1746537607,813018726,mA1/imu,0.7767230847238681,-0.6298416161776085,-0.0008040081813573712,0.0003765085143095845,0.0,0.0,0.0,0.0,0.0,0.0,0.0,0.0,0.0,-1.6029368195712396e-05,0.0001357813760202108,1.6747764005297016e-06,0.0,0.0,0.0,0.0,0.0,0.0,0.0,0.0,0.0,0.007106672954612017,-0.01530905281555995,9.808729681246861,0.0,0.0,0.0,0.0,0.0,0.0,0.0,0.0,0.0
2025/05/06 15:20:07.868457739,1746537607,867566211,mA1/imu,0.7767230590764383,-0.6298416494890087,-0.0008016144998827892,0.0003787903086984487,0.0,0.0,0.0,0.0,0.0,0.0,0.0,0.0,0.0,-8.854315299890768e-06,0.00012823464949287338,1.8652214453702886e-06,0.0,0.0,0.0,0.0,0.0,0.0,0.0,0.0,0.0,0.007152140677448904,-0.015654532750086766,9.811236027616207,0.0,0.0,0.0,0.0,0.0,0.0,0.0,0.0,0.0
2025/05/06 15:20:07.925706021,1746537607,918728801,mA1/imu,0.7767230303554173,-0.6298416864938693,-0.0007994022319837292,0.00038082296050047647,0.0,0.0,0.0,0.0,0.0,0.0,0.0,0.0,0.0,-7.128028004999287e-06,0.00011337246223256685,2.0417641826718254e-06,0.0,0.0,0.0,0.0,0.0,0.0,0.0,0.0,0.0,0.007170738422424152,-0.01579439783714172,9.810876961408946,0.0,0.0,0.0,0.0,0.0,0.0,0.0,0.0,0.0
2025/05/06 15:20:07.961470485,1746537607,960016270,mA1/imu,0.7767229986374408,-0.6298417270224194,-0.0007975015741485425,0.0003824660998880819,0.0,0.0,0.0,0.0,0.0,0.0,0.0,0.0,0.0,-1.271903687766279e-06,9.097627323199965e-05,2.203850815490451e-06,0.0,0.0,0.0,0.0,0.0,0.0,0.0,0.0,0.0,0.007226978167327788,-0.015258804449123106,9.809058779842195,0.0,0.0,0.0,0.0,0.0,0.0,0.0,0.0,0.0
2025/05/06 15:20:08.107014236,1746537608,12595643,mA1/imu,0.776722963991176,-0.6298417709262861,-0.0007960234663201371,0.00038360375779889237,0.0,0.0,0.0,0.0,0.0,0.0,0.0,0.0,0.0,4.983062582651075e-06,6.30646732754321e-05,2.3555309426171274e-06,0.0,0.0,0.0,0.0,0.0,0.0,0.0,0.0,0.0,0.007239574715718422,-0.015294600594032716,9.808700337182902,0.0,0.0,0.0,0.0,0.0,0.0,0.0,0.0,0.0
2025/05/06 15:20:08.176854476,1746537608,65343510,mA1/imu,0.7767229264735538,-0.6298418180601227,-0.0007950655531744387,0.00038416642728528514,0.0,0.0,0.0,0.0,0.0,0.0,0.0,0.0,0.0,8.594442677708515e-06,3.082559367142819e-05,2.4989706602427495e-06,0.0,0.0,0.0,0.0,0.0,0.0,0.0,0.0,0.0,0.007269689377354302,-0.015907992731224285,9.811196632549875,0.0,0.0,0.0,0.0,0.0,0.0,0.0,0.0,0.0
2025/05/06 15:20:08.216618381,1746537608,113768033,mA1/imu,0.7767228861330394,-0.6298418683213398,-0.0007946845170603909,0.000384113477697438,0.0,0.0,0.0,0.0,0.0,0.0,0.0,0.0,0.0,1.1994652529866652e-05,-3.198891829594321e-06,2.637246949297042e-06,0.0,0.0,0.0,0.0,0.0,0.0,0.0,0.0,0.0,0.0072817335754828865,-0.015903073888612812,9.81085110553341,0.0,0.0,0.0,0.0,0.0,0.0,0.0,0.0,0.0
2025/05/06 15:20:08.245521579,1746537608,158964765,mA1/imu,0.7767228430120956,-0.6298419216484138,-0.0007948936499653662,0.0003834338609303336,0.0,0.0,0.0,0.0,0.0,0.0,0.0,0.0,0.0,1.7451049059574836e-05,-3.70084339083733e-05,2.772722369647014e-06,0.0,0.0,0.0,0.0,0.0,0.0,0.0,0.0,0.0,0.007276105351365219,-0.015306679314165388,9.80904866337156,0.0,0.0,0.0,0.0,0.0,0.0,0.0,0.0,0.0
2025/05/06 15:20:08.282297508,1746537608,208818242,mA1/imu,0.7767227971313694,-0.629841978009501,-0.0007956789746591426,0.0003821628842305943,0.0,0.0,0.0,0.0,0.0,0.0,0.0,0.0,0.0,2.204885865357324e-05,-6.904255191491855e-05,2.909129262588046e-06,0.0,0.0,0.0,0.0,0.0,0.0,0.0,0.0,0.0,0.007285649362170906,-0.015315622949760839,9.80870308810803,0.0,0.0,0.0,0.0,0.0,0.0,0.0,0.0,0.0
2025/05/06 15:20:08.335823318,1746537608,257529857,mA1/imu,0.7767227485000979,-0.6298420373843489,-0.0007970085462978855,0.00038037266350277017,0.0,0.0,0.0,0.0,0.0,0.0,0.0,0.0,0.0,2.292479516394284e-05,-9.72855454430222e-05,3.0494153340612798e-06,0.0,0.0,0.0,0.0,0.0,0.0,0.0,0.0,0.0,0.007270047985816342,-0.0159241630802649,9.811202009380237,0.0,0.0,0.0,0.0,0.0,0.0,0.0,0.0,0.0
2025/05/06 15:20:08.359410379,1746537608,310855867,mA1/imu,0.7767226990045352,-0.629842097910371,-0.0007982568467217815,0.00037859870498470403,0.0,0.0,0.0,0.0,0.0,0.0,0.0,0.0,0.0,2.3189075629193847e-05,-2.688122295102617e-05,2.9127818909895586e-06,0.0,0.0,0.0,0.0,0.0,0.0,0.0,0.0,0.0,0.0005792855023863536,-0.015834386711372342,9.81086295844665,0.0,0.0,0.0,0.0,0.0,0.0,0.0,0.0,0.0
2025/05/06 15:20:08.403319838,1746537608,370807993,mA1/imu,0.7767226606451082,-0.6298421475271475,-0.0007959379066136208,0.0003796335387796904,0.0,0.0,0.0,0.0,0.0,0.0,0.0,0.0,0.0,2.6608318973336395e-05,0.00017984745003538663,2.350341600416957e-06,0.0,0.0,0.0,0.0,0.0,0.0,0.0,0.0,0.0,0.0007978852930088463,-0.015175291574085216,9.809073581582693,0.0,0.0,0.0,0.0,0.0,0.0,0.0,0.0,0.0
2025/05/06 15:20:08.428887037,1746537608,413672241,mA1/imu,0.7767226352063153,-0.6298421841711099,-0.0007897407307955857,0.0003838050296672825,0.0,0.0,0.0,0.0,0.0,0.0,0.0,0.0,0.0,2.7338590279025567e-05,0.00037462650844221284,1.774692709255979e-06,0.0,0.0,0.0,0.0,0.0,0.0,0.0,0.0,0.0,0.0007420670394860922,-0.015222887235554493,9.80872748307683,0.0,0.0,0.0,0.0,0.0,0.0,0.0,0.0,0.0
2025/05/06 15:20:08.500857211,1746537608,463313828,mA1/imu,0.776722622611667,-0.6298422074387008,-0.0007800570700780146,0.00039084903201585375,0.0,0.0,0.0,0.0,0.0,0.0,0.0,0.0,0.0,2.4379397415275074e-05,0.0005429462065853799,1.162321757970774e-06,0.0,0.0,0.0,0.0,0.0,0.0,0.0,0.0,0.0,0.0011043019845045736,-0.015850517811719943,9.811243967394057,0.0,0.0,0.0,0.0,0.0,0.0,0.0,0.0,0.0
2025/05/06 15:20:08.620101980,1746537608,511672113,mA1/imu,0.7767226228473101,-0.6298422166003689,-0.0007675561845162101,0.00040025321090570354,0.0,0.0,0.0,0.0,0.0,0.0,0.0,0.0,0.0,2.0568558440029554e-05,0.0006746851750767684,4.96597124574178e-07,0.0,0.0,0.0,0.0,0.0,0.0,0.0,0.0,0.0,0.001271808580129658,-0.01584759861945805,9.810909675169412,0.0,0.0,0.0,0.0,0.0,0.0,0.0,0.0,0.0
2025/05/06 15:20:08.695006007,1746537608,563660764,mA1/imu,0.7767226359468594,-0.6298422107741324,-0.0007530772676379269,0.00041135087814000797,0.0,0.0,0.0,0.0,0.0,0.0,0.0,0.0,0.0,1.8568238804286613e-05,0.0007595254743917384,-2.3746450813316084e-07,0.0,0.0,0.0,0.0,0.0,0.0,0.0,0.0,0.0,0.0016883740149408136,-0.015248282835656992,9.809118271938585,0.0,0.0,0.0,0.0,0.0,0.0,0.0,0.0,0.0
2025/05/06 15:20:08.732793097,1746537608,613375714,mA1/imu,0.776722662034277,-0.6298421891496144,-0.0007374677485223597,0.00042330949361159937,0.0,0.0,0.0,0.0,0.0,0.0,0.0,0.0,0.0,1.9386457858205238e-05,0.0007973111288783967,-1.0383035713113342e-06,0.0,0.0,0.0,0.0,0.0,0.0,0.0,0.0,0.0,0.001841069043656501,-0.015001660596715349,9.80877363413132,0.0,0.0,0.0,0.0,0.0,0.0,0.0,0.0,0.0
2025/05/06 15:20:08.755953170,1746537608,655522927,mA1/imu,0.7767227011422966,-0.6298421506668399,-0.0007218683579340414,0.0004355222818836615,0.0,0.0,0.0,0.0,0.0,0.0,0.0,0.0,0.0,1.0719681922960825e-05,0.0007821774036740861,-1.9116114708158595e-06,0.0,0.0,0.0,0.0,0.0,0.0,0.0,0.0,0.0,0.0022736018612070147,-0.015760879220918587,9.811291996320914,0.0,0.0,0.0,0.0,0.0,0.0,0.0,0.0,0.0
2025/05/06 15:20:08.782611733,1746537608,706971933,mA1/imu,0.7767227534519549,-0.6298420945920328,-0.0007072358734439763,0.0004471770943479461,0.0,0.0,0.0,0.0,0.0,0.0,0.0,0.0,0.0,2.877457254125956e-06,0.0007192998090574604,-2.848121691134037e-06,0.0,0.0,0.0,0.0,0.0,0.0,0.0,0.0,0.0,0.0024060788470590196,-0.015813425509470347,9.8109504490759,0.0,0.0,0.0,0.0,0.0,0.0,0.0,0.0,0.0
2025/05/06 15:20:08.812099948,1746537608,761961123,mA1/imu,0.776722819159483,-0.6298420203395808,-0.0006944745829218952,0.0004575112606512205,0.0,0.0,0.0,0.0,0.0,0.0,0.0,0.0,0.0,-1.989113483940189e-06,0.0006094592619861883,-3.844209473137441e-06,0.0,0.0,0.0,0.0,0.0,0.0,0.0,0.0,0.0,0.0027597589966558006,-0.015241719071194279,9.80911621830125,0.0,0.0,0.0,0.0,0.0,0.0,0.0,0.0,0.0
2025/05/06 15:20:08.841157272,1746537608,809745841,mA1/imu,0.7767228984315485,-0.629841927503863,-0.000684378475624626,0.0004658716724119656,0.0,0.0,0.0,0.0,0.0,0.0,0.0,0.0,0.0,-6.656011985537686e-06,0.00046309298033399954,-4.882697074840545e-06,0.0,0.0,0.0,0.0,0.0,0.0,0.0,0.0,0.0,0.002853425779590301,-0.015261769179284726,9.808760992953724,0.0,0.0,0.0,0.0,0.0,0.0,0.0,0.0,0.0
2025/05/06 15:20:08.860366869,1746537608,856037652,mA1/imu,0.7767229913492978,-0.6298418158904912,-0.0006775834435731409,0.00047174764871397903,0.0,0.0,0.0,0.0,0.0,0.0,0.0,0.0,0.0,-1.3580848498922064e-05,0.0002867610071728376,-5.949588147195392e-06,0.0,0.0,0.0,0.0,0.0,0.0,0.0,0.0,0.0,0.0030652307619681036,-0.015869582063669004,9.81128681702398,0.0,0.0,0.0,0.0,0.0,0.0,0.0,0.0,0.0
2025/05/06 15:20:08.912239875,1746537608,911445935,mA1/imu,0.7767230978909272,-0.62984168552083,-0.0006745153813003772,0.00047477573792369446,0.0,0.0,0.0,0.0,0.0,0.0,0.0,0.0,0.0,-1.978703322985719e-05,9.307560948636781e-05,-7.025053738707521e-06,0.0,0.0,0.0,0.0,0.0,0.0,0.0,0.0,0.0,0.003129833888193042,-0.0158630428177801,9.810922447804563,0.0,0.0,0.0,0.0,0.0,0.0,0.0,0.0,0.0
2025/05/06 15:20:08.960776149,1746537608,959600065,mA1/imu,0.776723217902915,-0.6298415366328102,-0.0006753652790602396,0.00047474656497382246,0.0,0.0,0.0,0.0,0.0,0.0,0.0,0.0,0.0,-2.151293736651022e-05,-0.0001071324728330928,-8.090564641637002e-06,0.0,0.0,0.0,0.0,0.0,0.0,0.0,0.0,0.0,0.0031890740316202833,-0.01519977615343851,9.809078048863295,0.0,0.0,0.0,0.0,0.0,0.0,0.0,0.0,0.0
2025/05/06 15:20:09.7296728,1746537609,6448722,mA1/imu,0.7767233510713506,-0.6298413696292727,-0.0006801016233465397,0.00047166279828761437,0.0,0.0,0.0,0.0,0.0,0.0,0.0,0.0,0.0,-2.367513065536591e-05,-0.0003018124473774474,-9.129271579563266e-06,0.0,0.0,0.0,0.0,0.0,0.0,0.0,0.0,0.0,0.0032137815274117794,-0.015244925514368832,9.808721069245085,0.0,0.0,0.0,0.0,0.0,0.0,0.0,0.0,0.0
2025/05/06 15:20:09.63253020,1746537609,59027782,mA1/imu,0.7767234969253559,-0.6298411850829396,-0.0006884764298912467,0.00046572263251021457,0.0,0.0,0.0,0.0,0.0,0.0,0.0,0.0,0.0,-2.7213752783974853e-05,-0.0004787961299387824,-1.0119965501654459e-05,0.0,0.0,0.0,0.0,0.0,0.0,0.0,0.0,0.0,0.003129156982250355,-0.015863975331150026,9.811240019132839,0.0,0.0,0.0,0.0,0.0,0.0,0.0,0.0,0.0
2025/05/06 15:20:09.111784323,1746537609,111521979,mA1/imu,0.7767236549498137,-0.6298409838020779,-0.0006999564908503693,0.00045719311499090075,0.0,0.0,0.0,0.0,0.0,0.0,0.0,0.0,0.0,-2.6690336972896876e-05,-0.000629127495729955,-1.1050675126277975e-05,0.0,0.0,0.0,0.0,0.0,0.0,0.0,0.0,0.0,0.0031219400902975287,-0.01568041052906636,9.810872008187088,0.0,0.0,0.0,0.0,0.0,0.0,0.0,0.0,0.0
2025/05/06 15:20:09.164854147,1746537609,164230196,mA1/imu,0.7767238244653081,-0.6298407665792146,-0.0007139644385771184,0.00044667401217211904,0.0,0.0,0.0,0.0,0.0,0.0,0.0,0.0,0.0,-2.6266208325575153e-05,-0.0007422058210062006,-1.1905702274825299e-05,0.0,0.0,0.0,0.0,0.0,0.0,0.0,0.0,0.0,0.0029507556053918037,-0.015184655139974686,9.809045203649488,0.0,0.0,0.0,0.0,0.0,0.0,0.0,0.0,0.0
2025/05/06 15:20:09.208729164,1746537609,208493101,mA1/imu,0.7767240048648985,-0.6298405344307554,-0.0007296918335725064,0.00043474641083371103,0.0,0.0,0.0,0.0,0.0,0.0,0.0,0.0,0.0,-2.4094913013145353e-05,-0.0008144833954788165,-1.2683329276297142e-05,0.0,0.0,0.0,0.0,0.0,0.0,0.0,0.0,0.0,0.002946641946311834,-0.015241116279937756,9.80869242109215,0.0,0.0,0.0,0.0,0.0,0.0,0.0,0.0,0.0
2025/05/06 15:20:09.259731783,1746537609,258446580,mA1/imu,0.7767241955733692,-0.6298402884549811,-0.0007462467067203491,0.0004220967914079681,0.0,0.0,0.0,0.0,0.0,0.0,0.0,0.0,0.0,-2.3040491277265928e-05,-0.0008389573970138547,-1.3373198671086996e-05,0.0,0.0,0.0,0.0,0.0,0.0,0.0,0.0,0.0,0.002731459085997343,-0.015859664701126007,9.811189526721078,0.0,0.0,0.0,0.0,0.0,0.0,0.0,0.0,0.0
2025/05/06 15:20:09.310879028,1746537609,310303954,mA1/imu,0.7767243961149104,-0.6298400297891603,-0.0007627055949739099,0.0004094328919030018,0.0,0.0,0.0,0.0,0.0,0.0,0.0,0.0,0.0,-2.0790849505124136e-05,-0.0008185067099392444,-1.3982041798406585e-05,0.0,0.0,0.0,0.0,0.0,0.0,0.0,0.0,0.0,0.0027421462674064646,-0.015857977072134127,9.810843197287252,0.0,0.0,0.0,0.0,0.0,0.0,0.0,0.0,0.0
2025/05/06 15:20:09.368114399,1746537609,366587537,mA1/imu,0.7767246061337687,-0.6298397595797051,-0.0007781462916986343,0.0003974509654938156,0.0,0.0,0.0,0.0,0.0,0.0,0.0,0.0,0.0,-1.481325453957092e-05,-0.0007511169916946252,-1.4509445455424905e-05,0.0,0.0,0.0,0.0,0.0,0.0,0.0,0.0,0.0,0.002568805881279025,-0.015257754022915926,9.809029819337063,0.0,0.0,0.0,0.0,0.0,0.0,0.0,0.0,0.0
2025/05/06 15:20:09.405753255,1746537609,405303886,mA1/imu,0.7767248245340972,-0.6298394797539583,-0.0007919813439424359,0.0003866022372846669,0.0,0.0,0.0,0.0,0.0,0.0,0.0,0.0,0.0,-8.221463701816473e-06,-0.0006768070707114239,-1.4875595769271792e-05,0.0,0.0,0.0,0.0,0.0,0.0,0.0,0.0,0.0,0.004152212432854816,-0.015251930210779488,9.808678483013068,0.0,0.0,0.0,0.0,0.0,0.0,0.0,0.0,0.0
2025/05/06 15:20:09.463126309,1746537609,460346561,mA1/imu,0.7767250485668511,-0.6298391938649336,-0.0008042148819488723,0.00037688037521223656,0.0,0.0,0.0,0.0,0.0,0.0,0.0,0.0,0.0,-3.877936948986584e-06,-0.000585782105809101,-1.5115172465011395e-05,0.0,0.0,0.0,0.0,0.0,0.0,0.0,0.0,0.0,0.004017964139777654,-0.015860565990917706,9.811199372944905,0.0,0.0,0.0,0.0,0.0,0.0,0.0,0.0,0.0
2025/05/06 15:20:09.513292390,1746537609,512980719,mA1/imu,0.776725277986075,-0.6298389028740953,-0.0008142273298634016,0.0003687786132456998,0.0,0.0,0.0,0.0,0.0,0.0,0.0,0.0,0.0,7.12856519529754e-07,-0.0004644067460876627,-1.5305073275093495e-05,0.0,0.0,0.0,0.0,0.0,0.0,0.0,0.0,0.0,0.0040487710774044835,-0.015851262781260565,9.810863845783983,0.0,0.0,0.0,0.0,0.0,0.0,0.0,0.0,0.0
2025/05/06 15:20:09.568389164,1746537609,567471390,mA1/imu,0.7767255127668166,-0.6298386074383872,-0.0008214846223376978,0.0003627123024851379,0.0,0.0,0.0,0.0,0.0,0.0,0.0,0.0,0.0,7.970552117526374e-06,-0.0003182902573907899,-1.545648420788072e-05,0.0,0.0,0.0,0.0,0.0,0.0,0.0,0.0,0.0,0.004001617824860507,-0.01524862426249504,9.809073525209639,0.0,0.0,0.0,0.0,0.0,0.0,0.0,0.0,0.0
2025/05/06 15:20:09.614546631,1746537609,614249511,mA1/imu,0.7767257529293999,-0.6298383079828324,-0.000825631364888906,0.00035897970578860827,0.0,0.0,0.0,0.0,0.0,0.0,0.0,0.0,0.0,1.4781473727813313e-05,-0.00015786715158970082,-1.5588466505089702e-05,0.0,0.0,0.0,0.0,0.0,0.0,0.0,0.0,0.0,0.004064611692950094,-0.015257162701421037,9.808736972979283,0.0,0.0,0.0,0.0,0.0,0.0,0.0,0.0,0.0
2025/05/06 15:20:09.662357977,1746537609,660734999,mA1/imu,0.7767259985090098,-0.6298380046844445,-0.0008265059708188741,0.000357747368490826,0.0,0.0,0.0,0.0,0.0,0.0,0.0,0.0,0.0,1.803096407487001e-05,8.2632568095878e-06,-1.571411322935009e-05,0.0,0.0,0.0,0.0,0.0,0.0,0.0,0.0,0.0,0.004157381769330251,-0.015870969408133626,9.811253155650245,0.0,0.0,0.0,0.0,0.0,0.0,0.0,0.0,0.0
2025/05/06 15:20:09.712857583,1746537609,709709364,mA1/imu,0.776726249542321,-0.6298376974995157,-0.0008241235765461786,0.0003590275186405933,0.0,0.0,0.0,0.0,0.0,0.0,0.0,0.0,0.0,2.057737334616194e-05,0.00017044775891509318,-1.584664283843965e-05,0.0,0.0,0.0,0.0,0.0,0.0,0.0,0.0,0.0,0.004235904713008417,-0.015861218558618176,9.810924597718852,0.0,0.0,0.0,0.0,0.0,0.0,0.0,0.0,0.0
2025/05/06 15:20:09.761832391,1746537609,760890479,mA1/imu,0.7767265061000389,-0.6298373862082268,-0.0008186381446975114,0.00036261219412354645,0.0,0.0,0.0,0.0,0.0,0.0,0.0,0.0,0.0,2.7800996618099734e-05,0.00031839620310005585,-1.6003192316289744e-05,0.0,0.0,0.0,0.0,0.0,0.0,0.0,0.0,0.0,0.004425019196270263,-0.015063432407456575,9.809126133172434,0.0,0.0,0.0,0.0,0.0,0.0,0.0,0.0,0.0
2025/05/06 15:20:09.811980860,1746537609,811601951,mA1/imu,0.7767267681917249,-0.6298370702061101,-0.0008105073651054931,0.000368302094742927,0.0,0.0,0.0,0.0,0.0,0.0,0.0,0.0,0.0,2.9198866534033385e-05,0.0004441443753701395,-1.6197206173886426e-05,0.0,0.0,0.0,0.0,0.0,0.0,0.0,0.0,0.0,0.004533555295651111,-0.015187633594844867,9.808778428422459,0.0,0.0,0.0,0.0,0.0,0.0,0.0,0.0,0.0
2025/05/06 15:20:09.863410514,1746537609,859799865,mA1/imu,0.7767270358551187,-0.6298367488157964,-0.0008002895521713463,0.0003756986834786653,0.0,0.0,0.0,0.0,0.0,0.0,0.0,0.0,0.0,2.7342675918906352e-05,0.0005392874742545558,-1.6439492467339213e-05,0.0,0.0,0.0,0.0,0.0,0.0,0.0,0.0,0.0,0.004803402567840494,-0.015846666431391813,9.81129960130353,0.0,0.0,0.0,0.0,0.0,0.0,0.0,0.0,0.0
2025/05/06 15:20:09.917739167,1746537609,911673755,mA1/imu,0.7767273091452158,-0.6298364213088039,-0.0007886261269904333,0.0003843042842451409,0.0,0.0,0.0,0.0,0.0,0.0,0.0,0.0,0.0,2.476787987439562e-05,0.0006008337882280065,-1.6731458127653282e-05,0.0,0.0,0.0,0.0,0.0,0.0,0.0,0.0,0.0,0.004910858047290745,-0.015855685953723414,9.810959062858048,0.0,0.0,0.0,0.0,0.0,0.0,0.0,0.0,0.0
2025/05/06 15:20:09.962803793,1746537609,962620846,mA1/imu,0.7767275881513361,-0.6298360869081007,-0.0007762461639227294,0.00039354134820941,0.0,0.0,0.0,0.0,0.0,0.0,0.0,0.0,0.0,2.3949992803111176e-05,0.0006231894320481391,-1.7081219876782364e-05,0.0,0.0,0.0,0.0,0.0,0.0,0.0,0.0,0.0,0.005213992897292427,-0.01526271043141217,9.809133591817274,0.0,0.0,0.0,0.0,0.0,0.0,0.0,0.0,0.0
2025/05/06 15:20:10.11070320,1746537610,7440625,mA1/imu,0.7767278729857656,-0.6298357448566947,-0.0007639089789913673,0.0004028286145291729,0.0,0.0,0.0,0.0,0.0,0.0,0.0,0.0,0.0,2.1998539609940287e-05,0.000608347275229139,-1.748658220251546e-05,0.0,0.0,0.0,0.0,0.0,0.0,0.0,0.0,0.0,0.005294643165695375,-0.015274827514200473,9.808785716991151,0.0,0.0,0.0,0.0,0.0,0.0,0.0,0.0,0.0
2025/05/06 15:20:10.59318883,1746537610,56968565,mA1/imu,0.7767281637897071,-0.6298353944927838,-0.0007523554414009465,0.0004115595690266455,0.0,0.0,0.0,0.0,0.0,0.0,0.0,0.0,0.0,1.7910223380510056e-05,0.0005546727488399515,-1.7947228432201106e-05,0.0,0.0,0.0,0.0,0.0,0.0,0.0,0.0,0.0,0.005547585421916439,-0.01577691376625236,9.811297362937532,0.0,0.0,0.0,0.0,0.0,0.0,0.0,0.0,0.0
2025/05/06 15:20:10.108272380,1746537610,107930147,mA1/imu,0.7767284606588813,-0.6298350352333596,-0.0007423106194289991,0.00041924935447442346,0.0,0.0,0.0,0.0,0.0,0.0,0.0,0.0,0.0,1.0658089876715206e-05,0.0004690049110402503,-1.8448647685885803e-05,0.0,0.0,0.0,0.0,0.0,0.0,0.0,0.0,0.0,0.005618416622536329,-0.015831099379472753,9.810939551739878,0.0,0.0,0.0,0.0,0.0,0.0,0.0,0.0,0.0
2025/05/06 15:20:10.179808194,1746537610,172989489,mA1/imu,0.7767287636992025,-0.629834666689309,-0.0007343733322986884,0.00042541095940381115,0.0,0.0,0.0,0.0,0.0,0.0,0.0,0.0,0.0,6.185685420330046e-06,0.00035379873438096327,-1.8985829463768848e-05,0.0,0.0,0.0,0.0,0.0,0.0,0.0,0.0,0.0,0.0058114745486242715,-0.015254831303471304,9.809101294301964,0.0,0.0,0.0,0.0,0.0,0.0,0.0,0.0,0.0
2025/05/06 15:20:10.216780031,1746537610,209074666,mA1/imu,0.7767290729734161,-0.6298342886212366,-0.0007290136175582793,0.00042966729450102584,0.0,0.0,0.0,0.0,0.0,0.0,0.0,0.0,0.0,1.5252099399410313e-06,0.00021814748672731717,-1.954681399572035e-05,0.0,0.0,0.0,0.0,0.0,0.0,0.0,0.0,0.0,0.005844239549698758,-0.015275062402995901,9.808739061913933,0.0,0.0,0.0,0.0,0.0,0.0,0.0,0.0,0.0
2025/05/06 15:20:10.267153298,1746537610,264925444,mA1/imu,0.77672938845888,-0.6298339009603566,-0.0007265494343188429,0.0004317768794579454,0.0,0.0,0.0,0.0,0.0,0.0,0.0,0.0,0.0,-5.859989909459446e-06,6.96945023549195e-05,-2.0116955097973375e-05,0.0,0.0,0.0,0.0,0.0,0.0,0.0,0.0,0.0,0.005899745056410981,-0.015889592690443956,9.811227536774265,0.0,0.0,0.0,0.0,0.0,0.0,0.0,0.0,0.0
2025/05/06 15:20:10.311182074,1746537610,308016799,mA1/imu,0.7767297100441156,-0.6298335038255337,-0.0007271141317082997,0.00043162330240747765,0.0,0.0,0.0,0.0,0.0,0.0,0.0,0.0,0.0,-1.283461285297939e-05,-8.201936857298064e-05,-2.0679016752776717e-05,0.0,0.0,0.0,0.0,0.0,0.0,0.0,0.0,0.0,0.00590333987220743,-0.015882847620353042,9.810864659742856,0.0,0.0,0.0,0.0,0.0,0.0,0.0,0.0,0.0
2025/05/06 15:20:10.361394880,1746537610,359436760,mA1/imu,0.7767300375326734,-0.6298330975025428,-0.0007306555556437619,0.00042921708149576366,0.0,0.0,0.0,0.0,0.0,0.0,0.0,0.0,0.0,-1.6385570601962564e-05,-0.0002284483282210697,-2.1219736641525605e-05,0.0,0.0,0.0,0.0,0.0,0.0,0.0,0.0,0.0,0.005868799913623135,-0.01527111520100744,9.809031597392487,0.0,0.0,0.0,0.0,0.0,0.0,0.0,0.0,0.0
2025/05/06 15:20:10.413248539,1746537610,410750673,mA1/imu,0.7767303692524619,-0.6298326840616769,-0.0007372226484969407,0.00042434816429830024,0.0,0.0,0.0,0.0,0.0,0.0,0.0,0.0,0.0,-1.3086900394818225e-05,-0.00041834020905296625,-2.1489620557421974e-05,0.0,0.0,0.0,0.0,0.0,0.0,0.0,0.0,0.0,0.009960797599271223,-0.014920160741488917,9.808679246680015,0.0,0.0,0.0,0.0,0.0,0.0,0.0,0.0,0.0
2025/05/06 15:20:10.465276488,1746537610,464357440,mA1/imu,0.776730695564349,-0.6298322739906353,-0.0007485749026515604,0.0004157445404527996,0.0,0.0,0.0,0.0,0.0,0.0,0.0,0.0,0.0,-2.0227335931441547e-05,-0.0006651324152805782,-2.1345070710704534e-05,0.0,0.0,0.0,0.0,0.0,0.0,0.0,0.0,0.0,0.009657498608718531,-0.015598863722188742,9.811159618909548,0.0,0.0,0.0,0.0,0.0,0.0,0.0,0.0,0.0
2025/05/06 15:20:10.513328333,1746537610,512287418,mA1/imu,0.7767310144730182,-0.6298318695571649,-0.000764349679513507,0.0004037516687178725,0.0,0.0,0.0,0.0,0.0,0.0,0.0,0.0,0.0,-2.8298322704030496e-05,-0.0008705412327173468,-2.1128842372507894e-05,0.0,0.0,0.0,0.0,0.0,0.0,0.0,0.0,0.0,0.009548334365027533,-0.015805195150499024,9.810805350725628,0.0,0.0,0.0,0.0,0.0,0.0,0.0,0.0,0.0
2025/05/06 15:20:10.565817666,1746537610,563412719,mA1/imu,0.7767313254145024,-0.6298314717047658,-0.0007835474243038148,0.0003891316911496254,0.0,0.0,0.0,0.0,0.0,0.0,0.0,0.0,0.0,-3.071580050535374e-05,-0.0010194756907517236,-2.0820212312045305e-05,0.0,0.0,0.0,0.0,0.0,0.0,0.0,0.0,0.0,0.009124528940409429,-0.01529761658797053,9.809003937937215,0.0,0.0,0.0,0.0,0.0,0.0,0.0,0.0,0.0
2025/05/06 15:20:10.614923249,1746537610,612127393,mA1/imu,0.7767316278832086,-0.6298310815640561,-0.0008049694618066931,0.0003727813270317188,0.0,0.0,0.0,0.0,0.0,0.0,0.0,0.0,0.0,-3.1181839450329234e-05,-0.0011074218842308432,-2.0418050255613154e-05,0.0,0.0,0.0,0.0,0.0,0.0,0.0,0.0,0.0,0.009001320767446936,-0.015344720444716162,9.808663320661129,0.0,0.0,0.0,0.0,0.0,0.0,0.0,0.0,0.0
2025/05/06 15:20:10.666218050,1746537610,664165289,mA1/imu,0.7767319214901004,-0.6298307004006244,-0.0008273072306027951,0.0003557160407339705,0.0,0.0,0.0,0.0,0.0,0.0,0.0,0.0,0.0,-3.244638763922082e-05,-0.0011258020162013352,-1.991133636023057e-05,0.0,0.0,0.0,0.0,0.0,0.0,0.0,0.0,0.0,0.00855388448779384,-0.01595353410829057,9.811168663711593,0.0,0.0,0.0,0.0,0.0,0.0,0.0,0.0,0.0
2025/05/06 15:20:10.707719753,1746537610,706811428,mA1/imu,0.7767322060288425,-0.6298303295568571,-0.0008492308833902044,0.00033896131798328216,0.0,0.0,0.0,0.0,0.0,0.0,0.0,0.0,0.0,-3.203089711310701e-05,-0.0010793323660990154,-1.9308340850905455e-05,0.0,0.0,0.0,0.0,0.0,0.0,0.0,0.0,0.0,0.00845368254292242,-0.015950024726617,9.810838876216774,0.0,0.0,0.0,0.0,0.0,0.0,0.0,0.0,0.0
2025/05/06 15:20:10.769737636,1746537610,768685260,mA1/imu,0.7767324815066199,-0.6298299704006128,-0.0008694215437336809,0.0003235180227734792,0.0,0.0,0.0,0.0,0.0,0.0,0.0,0.0,0.0,-2.740180896083673e-05,-0.0009663146807679487,-1.8611893915274365e-05,0.0,0.0,0.0,0.0,0.0,0.0,0.0,0.0,0.0,0.00806206733976241,-0.015350825494315252,9.809067608830027,0.0,0.0,0.0,0.0,0.0,0.0,0.0,0.0,0.0
2025/05/06 15:20:10.811763724,1746537610,809094662,mA1/imu,0.776732748118902,-0.6298296241642924,-0.0008867014959649862,0.0003102985357039396,0.0,0.0,0.0,0.0,0.0,0.0,0.0,0.0,0.0,-2.168801106114003e-05,-0.0007986091478678862,-1.784487446743067e-05,0.0,0.0,0.0,0.0,0.0,0.0,0.0,0.0,0.0,0.007997779803987377,-0.015361014453389318,9.8087338466108,0.0,0.0,0.0,0.0,0.0,0.0,0.0,0.0,0.0
2025/05/06 15:20:10.866858799,1746537610,863437366,mA1/imu,0.7767330061958332,-0.6298292918690088,-0.000900075348159153,0.00030009021045850043,0.0,0.0,0.0,0.0,0.0,0.0,0.0,0.0,0.0,-1.7530480659042553e-05,-0.0005835914777778717,-1.702146387667687e-05,0.0,0.0,0.0,0.0,0.0,0.0,0.0,0.0,0.0,0.007787251481016664,-0.015958101184909455,9.811254588331758,0.0,0.0,0.0,0.0,0.0,0.0,0.0,0.0,0.0
2025/05/06 15:20:10.916351078,1746537610,912521326,mA1/imu,0.7767332561381677,-0.6298289742192509,-0.0009088021195843142,0.00029346487551758867,0.0,0.0,0.0,0.0,0.0,0.0,0.0,0.0,0.0,-1.251837225734977e-05,-0.0003375714414471927,-1.6165672876797766e-05,0.0,0.0,0.0,0.0,0.0,0.0,0.0,0.0,0.0,0.0077791845404533025,-0.0159479595464091,9.810929294342609,0.0,0.0,0.0,0.0,0.0,0.0,0.0,0.0,0.0
2025/05/06 15:20:10.961870308,1746537610,960315787,mA1/imu,0.7767334983644437,-0.6298286715389972,-0.0009124015323276411,0.0002907737929955204,0.0,0.0,0.0,0.0,0.0,0.0,0.0,0.0,0.0,-4.256062026321497e-06,-7.313421846446078e-05,-1.530100159289063e-05,0.0,0.0,0.0,0.0,0.0,0.0,0.0,0.0,0.0,0.007744327633275987,-0.015347791696184053,9.809153441992402,0.0,0.0,0.0,0.0,0.0,0.0,0.0,0.0,0.0
2025/05/06 15:20:11.13267948,1746537611,10243102,mA1/imu,0.7767337332430406,-0.6298283836879837,-0.0009107136538384338,0.00029213687153616065,0.0,0.0,0.0,0.0,0.0,0.0,0.0,0.0,0.0,4.0699162327765465e-06,0.00019261111579757504,-1.4454775216327977e-05,0.0,0.0,0.0,0.0,0.0,0.0,0.0,0.0,0.0,0.007790100325349571,-0.015355211161851522,9.808804523971142,0.0,0.0,0.0,0.0,0.0,0.0,0.0,0.0,0.0
2025/05/06 15:20:11.61421371,1746537611,59687521,mA1/imu,0.7767339610637726,-0.629828110058195,-0.0009039035832415026,0.0002974374155074324,0.0,0.0,0.0,0.0,0.0,0.0,0.0,0.0,0.0,9.556202633239872e-06,0.0004437685928756916,-1.3651638790319067e-05,0.0,0.0,0.0,0.0,0.0,0.0,0.0,0.0,0.0,0.00795945875441011,-0.015956682424840943,9.811302870962004,0.0,0.0,0.0,0.0,0.0,0.0,0.0,0.0,0.0
2025/05/06 15:20:11.109690205,1746537611,109274886,mA1/imu,0.7767341894665554,-0.6298278411020203,-0.0008921982354297402,0.00030572669179780766,0.0,0.0,0.0,0.0,0.0,0.0,0.0,0.0,0.0,9.530764970302411e-05,0.0006407572301426738,-1.4480420626274671e-05,0.0,0.0,0.0,0.0,0.0,0.0,0.0,0.0,0.0,0.009915759784689272,0.006180002510311398,9.81098649037142,0.0,0.0,0.0,0.0,0.0,0.0,0.0,0.0,0.0
2025/05/06 15:20:11.162533426,1746537611,160281425,mA1/imu,0.7767344655972878,-0.6298275235221109,-0.0008738942368231222,0.00031124935890709923,0.0,0.0,0.0,0.0,0.0,0.0,0.0,0.0,0.0,0.0003713896067610647,0.0007454901171460857,-1.768217437384521e-05,0.0,0.0,0.0,0.0,0.0,0.0,0.0,0.0,0.0,0.010758186746988037,0.00910465436635448,9.809092386100073,0.0,0.0,0.0,0.0,0.0,0.0,0.0,0.0,0.0
2025/05/06 15:20:11.211910189,1746537611,211515945,mA1/imu,0.7767347955150798,-0.6298271491837398,-0.0008497129146833658,0.00031237028121966053,0.0,0.0,0.0,0.0,0.0,0.0,0.0,0.0,0.0,0.0006822297784758802,0.0007967417474301152,-2.0881843523819765e-05,0.0,0.0,0.0,0.0,0.0,0.0,0.0,0.0,0.0,0.010851422425195911,0.015803930579925657,9.808856074250373,0.0,0.0,0.0,0.0,0.0,0.0,0.0,0.0,0.0
2025/05/06 15:20:11.263947369,1746537611,262435857,mA1/imu,0.7767351812446373,-0.6298267046656328,-0.0008255345087114726,0.0003143241401439729,0.0,0.0,0.0,0.0,0.0,0.0,0.0,0.0,0.0,0.0016212993910145485,0.0007890576550246494,-2.4688177961526844e-05,0.0,0.0,0.0,0.0,0.0,0.0,0.0,0.0,0.0,0.011368037139889361,-0.5623154140419928,9.810090234390717,0.0,0.0,0.0,0.0,0.0,0.0,0.0,0.0,0.0
2025/05/06 15:20:11.312785395,1746537611,312522449,mA1/imu,0.7767356273017699,-0.6298261918945258,-0.0007978325619695974,0.00031104174773972123,0.0,0.0,0.0,0.0,0.0,0.0,0.0,0.0,0.0,7.49436788687578e-05,0.0007954845216980889,-2.826521360007431e-05,0.0,0.0,0.0,0.0,0.0,0.0,0.0,0.0,0.0,0.005480730513053847,0.5792427793760119,9.81116989242614,0.0,0.0,0.0,0.0,0.0,0.0,0.0,0.0,0.0
2025/05/06 15:20:11.366764621,1746537611,365441821,mA1/imu,0.776736122720961,-0.6298256259235075,-0.000764289615561345,0.000304058963881918,0.0,0.0,0.0,0.0,0.0,0.0,0.0,0.0,0.0,0.0011312383945936704,0.0009144789987234984,-3.097139032913537e-05,0.0,0.0,0.0,0.0,0.0,0.0,0.0,0.0,0.0,0.0052800434714918056,0.0177776436929898,9.809779122704857,0.0,0.0,0.0,0.0,0.0,0.0,0.0,0.0,0.0
2025/05/06 15:20:11.408615468,1746537611,405482897,mA1/imu,0.7767366656499599,-0.6298250034089448,-0.0007275459911672243,0.00029663569596250785,0.0,0.0,0.0,0.0,0.0,0.0,0.0,0.0,0.0,0.0011095981120817042,0.0009821561433188083,-3.393039778577811e-05,0.0,0.0,0.0,0.0,0.0,0.0,0.0,0.0,0.0,0.005425710428264007,0.6408891819962328,9.810742659861617,0.0,0.0,0.0,0.0,0.0,0.0,0.0,0.0,0.0
2025/05/06 15:20:11.461955325,1746537611,459256905,mA1/imu,0.7767372515283801,-0.6298243218085701,-0.0006927733089787088,0.00029293626451195584,0.0,0.0,0.0,0.0,0.0,0.0,0.0,0.0,0.0,0.0016686228322753333,0.0009860583800016813,-3.679474981859755e-05,0.0,0.0,0.0,0.0,0.0,0.0,0.0,0.0,0.0,0.004963430202232397,0.2608795759111933,9.810326939931608,0.0,0.0,0.0,0.0,0.0,0.0,0.0,0.0,0.0
2025/05/06 15:20:11.510381076,1746537611,509190667,mA1/imu,0.7767378796929972,-0.6298235851398719,-0.0006588457857454303,0.0002894370672274782,0.0,0.0,0.0,0.0,0.0,0.0,0.0,0.0,0.0,0.0021682179499735743,0.0009378519606562521,-3.939506219261184e-05,0.0,0.0,0.0,0.0,0.0,0.0,0.0,0.0,0.0,0.005917558511968688,0.08622597290943118,9.810389059000547,0.0,0.0,0.0,0.0,0.0,0.0,0.0,0.0,0.0
2025/05/06 15:20:11.561592616,1746537611,560333950,mA1/imu,0.7767385440728058,-0.6298227870152655,-0.0006352453666561937,0.00029592449262483094,0.0,0.0,0.0,0.0,0.0,0.0,0.0,0.0,0.0,0.00023648468114789034,0.000846665204851213,-4.2211874644200456e-05,0.0,0.0,0.0,0.0,0.0,0.0,0.0,0.0,0.0,0.006382149224142914,-0.039911982102731815,9.80926819487489,0.0,0.0,0.0,0.0,0.0,0.0,0.0,0.0,0.0
2025/05/06 15:20:11.612501023,1746537611,611164004,mA1/imu,0.7767392550484835,-0.6298219458906638,-0.000603250525629958,0.0002867577863541786,0.0,0.0,0.0,0.0,0.0,0.0,0.0,0.0,0.0,0.0004922152795190175,0.0007014713609384208,-4.498289021735756e-05,0.0,0.0,0.0,0.0,0.0,0.0,0.0,0.0,0.0,0.006268648712377758,-0.01342555660078416,9.810450624608212,0.0,0.0,0.0,0.0,0.0,0.0,0.0,0.0,0.0
2025/05/06 15:20:11.662466664,1746537611,661866283,mA1/imu,0.776739998360479,-0.6298210499769031,-0.0005823382286266302,0.00028431521549495754,0.0,0.0,0.0,0.0,0.0,0.0,0.0,0.0,0.0,-1.9209106796658714e-05,0.0005148972021084147,-4.7320605386548774e-05,0.0,0.0,0.0,0.0,0.0,0.0,0.0,0.0,0.0,0.006430732089855643,0.5434205568493339,9.809885538257838,0.0,0.0,0.0,0.0,0.0,0.0,0.0,0.0,0.0
2025/05/06 15:20:11.713908809,1746537611,712875766,mA1/imu,0.7767407721792642,-0.6298201052463965,-0.0005710710159600466,0.0002859015093436718,0.0,0.0,0.0,0.0,0.0,0.0,0.0,0.0,0.0,-0.00044924855346128523,0.0003025585572131066,-4.9533549288794796e-05,0.0,0.0,0.0,0.0,0.0,0.0,0.0,0.0,0.0,0.006197081968142693,-0.05089685924784808,9.809818248368787,0.0,0.0,0.0,0.0,0.0,0.0,0.0,0.0,0.0
2025/05/06 15:20:11.764589702,1746537611,764017744,mA1/imu,0.7767415774959333,-0.6298191268932669,-0.000558879724060333,0.0002772038707641695,0.0,0.0,0.0,0.0,0.0,0.0,0.0,0.0,0.0,0.0003123958879889107,7.676129148221549e-05,-5.160288088169838e-05,0.0,0.0,0.0,0.0,0.0,0.0,0.0,0.0,0.0,0.006197463245216925,0.2985247990550766,9.810395846284923,0.0,0.0,0.0,0.0,0.0,0.0,0.0,0.0,0.0
2025/05/06 15:20:11.814073927,1746537611,813728702,mA1/imu,0.7767424032008551,-0.6298180984137273,-0.0005666761614511399,0.0002843561233820608,0.0,0.0,0.0,0.0,0.0,0.0,0.0,0.0,0.0,-0.0019357526666662842,-0.0001445566490993904,-5.3256423248216964e-05,0.0,0.0,0.0,0.0,0.0,0.0,0.0,0.0,0.0,0.0061358781322221854,0.506856566846395,9.810111664282623,0.0,0.0,0.0,0.0,0.0,0.0,0.0,0.0,0.0
2025/05/06 15:20:11.856923153,1746537611,855933683,mA1/imu,0.7767432433112634,-0.6298170571843369,-0.0005737951791906742,0.000281441030425421,0.0,0.0,0.0,0.0,0.0,0.0,0.0,0.0,0.0,-0.0009822426612053976,-0.00037507267951814,-5.4137190494331796e-05,0.0,0.0,0.0,0.0,0.0,0.0,0.0,0.0,0.0,0.006244610770734447,-0.0453235558194135,9.810404674010393,0.0,0.0,0.0,0.0,0.0,0.0,0.0,0.0,0.0
2025/05/06 15:20:11.906582202,1746537611,905526089,mA1/imu,0.7767440932838806,-0.6298159932224705,-0.0005903516083201569,0.00028233804861655455,0.0,0.0,0.0,0.0,0.0,0.0,0.0,0.0,0.0,-0.00011017935076004837,-0.0005704010493180867,-5.500170360096667e-05,0.0,0.0,0.0,0.0,0.0,0.0,0.0,0.0,0.0,0.005759020154235291,-0.5987897695777148,9.809676644411333,0.0,0.0,0.0,0.0,0.0,0.0,0.0,0.0,0.0
2025/05/06 15:20:11.957871515,1746537611,956531465,mA1/imu,0.7767449495173072,-0.6298149232165877,-0.0006074759243218331,0.0002772472558215828,0.0,0.0,0.0,0.0,0.0,0.0,0.0,0.0,0.0,0.0008865007565975851,-0.0007183237315027396,-5.5039181130564065e-05,0.0,0.0,0.0,0.0,0.0,0.0,0.0,0.0,0.0,0.005186984521134052,-0.5169795984360315,9.809265529533393,0.0,0.0,0.0,0.0,0.0,0.0,0.0,0.0,0.0
2025/05/06 15:20:12.7502129,1746537612,6758901,mA1/imu,0.7767457968163309,-0.629813850550995,-0.000634609110499233,0.0002793806882513054,0.0,0.0,0.0,0.0,0.0,0.0,0.0,0.0,0.0,0.0008925491370511994,-0.0008368335917523512,-5.462593761707719e-05,0.0,0.0,0.0,0.0,0.0,0.0,0.0,0.0,0.0,0.005475165641174054,-0.2971925480565893,9.809561270940227,0.0,0.0,0.0,0.0,0.0,0.0,0.0,0.0,0.0
2025/05/06 15:20:12.59975721,1746537612,59393541,mA1/imu,0.7767466292086039,-0.6298127859756216,-0.0006681655791059722,0.00028668703528429815,0.0,0.0,0.0,0.0,0.0,0.0,0.0,0.0,0.0,-0.00019318851340068046,-0.000882000222978598,-5.378653637906439e-05,0.0,0.0,0.0,0.0,0.0,0.0,0.0,0.0,0.0,0.004926513144908119,0.009110588177204521,9.81005380231936,0.0,0.0,0.0,0.0,0.0,0.0,0.0,0.0,0.0
2025/05/06 15:20:12.110517779,1746537612,108626511,mA1/imu,0.7767474424979962,-0.6298117380083467,-0.0007050060642759314,0.0002969952473092744,0.0,0.0,0.0,0.0,0.0,0.0,0.0,0.0,0.0,-0.0020949368828764186,-0.0008748763101798673,-5.2733411544459953e-05,0.0,0.0,0.0,0.0,0.0,0.0,0.0,0.0,0.0,0.005195662415889026,0.4245119040342257,9.810856054306235,0.0,0.0,0.0,0.0,0.0,0.0,0.0,0.0,0.0
2025/05/06 15:20:12.161788790,1746537612,159883215,mA1/imu,0.7767482322359867,-0.6298107200481545,-0.0007397731917245728,0.0003055590281406433,0.0,0.0,0.0,0.0,0.0,0.0,0.0,0.0,0.0,-0.002417260338226526,-0.0008399441474323575,-5.110644077948914e-05,0.0,0.0,0.0,0.0,0.0,0.0,0.0,0.0,0.0,0.005304074166032887,0.5384568624419601,9.810487952922966,0.0,0.0,0.0,0.0,0.0,0.0,0.0,0.0,0.0
2025/05/06 15:20:12.210296560,1746537612,209689764,mA1/imu,0.776748998665375,-0.6298097291443095,-0.0007735165820343222,0.0003159424088385608,0.0,0.0,0.0,0.0,0.0,0.0,0.0,0.0,0.0,-0.0010061954691990998,-0.0007498252418541219,-4.9614923567241323e-05,0.0,0.0,0.0,0.0,0.0,0.0,0.0,0.0,0.0,0.00459148991439607,-0.6223115595962635,9.809678906148708,0.0,0.0,0.0,0.0,0.0,0.0,0.0,0.0,0.0
2025/05/06 15:20:12.262001453,1746537612,261510967,mA1/imu,0.776749739140149,-0.6298087815456506,-0.000799024862731352,0.0003209251658907004,0.0,0.0,0.0,0.0,0.0,0.0,0.0,0.0,0.0,-0.0006798371675572311,-0.0006052028395620811,-4.735034723885178e-05,0.0,0.0,0.0,0.0,0.0,0.0,0.0,0.0,0.0,0.00458089140581321,0.023188720759435393,9.809793520503442,0.0,0.0,0.0,0.0,0.0,0.0,0.0,0.0,0.0
2025/05/06 15:20:12.314495179,1746537612,313819957,mA1/imu,0.7767504450824562,-0.6298078718748858,-0.0008246322608481053,0.00033252107929818294,0.0,0.0,0.0,0.0,0.0,0.0,0.0,0.0,0.0,-0.0015845116166132616,-0.0004459277662455883,-4.5119627863771844e-05,0.0,0.0,0.0,0.0,0.0,0.0,0.0,0.0,0.0,0.008219154225142657,0.5800562131067475,9.810839465721712,0.0,0.0,0.0,0.0,0.0,0.0,0.0,0.0,0.0
2025/05/06 15:20:12.366871351,1746537612,364871478,mA1/imu,0.7767511166734713,-0.6298070015503872,-0.0008500108344267296,0.0003478882111080797,0.0,0.0,0.0,0.0,0.0,0.0,0.0,0.0,0.0,-0.002704183880707805,-0.0003631419133814597,-4.2935461638206186e-05,0.0,0.0,0.0,0.0,0.0,0.0,0.0,0.0,0.0,0.008407522770951843,0.4070364754204249,9.81172784364421,0.0,0.0,0.0,0.0,0.0,0.0,0.0,0.0,0.0
2025/05/06 15:20:12.404839896,1746537612,404559932,mA1/imu,0.776751760424917,-0.629806189621326,-0.0008621106618801383,0.00035065177270571484,0.0,0.0,0.0,0.0,0.0,0.0,0.0,0.0,0.0,-0.001029111304587652,-0.0002505985078900531,-4.0419672261498436e-05,0.0,0.0,0.0,0.0,0.0,0.0,0.0,0.0,0.0,0.007340923475624098,-0.02969132145034426,9.808765918449113,0.0,0.0,0.0,0.0,0.0,0.0,0.0,0.0,0.0
2025/05/06 15:20:12.455905389,1746537612,455476041,mA1/imu,0.7767523686805078,-0.6298054228470373,-0.0008721456373931877,0.00035561731150262694,0.0,0.0,0.0,0.0,0.0,0.0,0.0,0.0,0.0,-0.00023385317164883182,-0.00013753948913265674,-3.817223443955133e-05,0.0,0.0,0.0,0.0,0.0,0.0,0.0,0.0,0.0,0.007692011630755999,0.008300747864598997,9.809073472531095,0.0,0.0,0.0,0.0,0.0,0.0,0.0,0.0,0.0
2025/05/06 15:20:12.506386838,1746537612,505951863,mA1/imu,0.7767529447749035,-0.6298047057770637,-0.0008759452770504968,0.00035788888437612837,0.0,0.0,0.0,0.0,0.0,0.0,0.0,0.0,0.0,-0.0001109079316934224,-9.878834989975887e-06,-3.5834520075624645e-05,0.0,0.0,0.0,0.0,0.0,0.0,0.0,0.0,0.0,0.007735358273812372,0.0010587495359977786,9.8104391757171,0.0,0.0,0.0,0.0,0.0,0.0,0.0,0.0,0.0
2025/05/06 15:20:12.560143870,1746537612,558646714,mA1/imu,0.7767534704667964,-0.6298040519931958,-0.0008778259187922935,0.00036281179134695963,0.0,0.0,0.0,0.0,0.0,0.0,0.0,0.0,0.0,0.0008991647683397451,0.0001101690246714901,-3.1760874609015454e-05,0.0,0.0,0.0,0.0,0.0,0.0,0.0,0.0,0.0,0.0075716792222557915,-0.5733987552215642,9.808957260830775,0.0,0.0,0.0,0.0,0.0,0.0,0.0,0.0,0.0
2025/05/06 15:20:12.609189739,1746537612,608674697,mA1/imu,0.776753938194578,-0.6298034832452819,-0.0008718762822073492,0.0003630744720406567,0.0,0.0,0.0,0.0,0.0,0.0,0.0,0.0,0.0,-0.00020187842637447477,0.00024265555894892278,-2.7624117279716864e-05,0.0,0.0,0.0,0.0,0.0,0.0,0.0,0.0,0.0,0.007704822464296633,-0.035266392684476434,9.810847409860033,0.0,0.0,0.0,0.0,0.0,0.0,0.0,0.0,0.0
2025/05/06 15:20:12.660651377,1746537612,659603494,mA1/imu,0.7767543357415735,-0.6298030192673923,-0.0008558395814359273,0.0003554812995296546,0.0,0.0,0.0,0.0,0.0,0.0,0.0,0.0,0.0,-0.0007321707885543992,0.0003561456476568999,-2.24738230852103e-05,0.0,0.0,0.0,0.0,0.0,0.0,0.0,0.0,0.0,0.008060134373048353,0.5427263882177965,9.811488631837037,0.0,0.0,0.0,0.0,0.0,0.0,0.0,0.0,0.0
2025/05/06 15:20:12.713338074,1746537612,712167898,mA1/imu,0.7767546480689408,-0.6298026547610707,-0.0008412887711007921,0.00035354265246349007,0.0,0.0,0.0,0.0,0.0,0.0,0.0,0.0,0.0,0.00014536828657933483,0.000439818779790238,-1.6483544867039695e-05,0.0,0.0,0.0,0.0,0.0,0.0,0.0,0.0,0.0,0.007387282555160985,-0.03499039545674942,9.810365255469895,0.0,0.0,0.0,0.0,0.0,0.0,0.0,0.0,0.0
2025/05/06 15:20:12.765834552,1746537612,763651896,mA1/imu,0.7767548587431764,-0.6298024186277219,-0.000824281366056981,0.00035138265398504013,0.0,0.0,0.0,0.0,0.0,0.0,0.0,0.0,0.0,0.0004924099589265461,0.00048542335265546876,-9.754501914213667e-06,0.0,0.0,0.0,0.0,0.0,0.0,0.0,0.0,0.0,0.008513462420877067,-0.6538833738380307,9.810704685475864,0.0,0.0,0.0,0.0,0.0,0.0,0.0,0.0,0.0
2025/05/06 15:20:12.812561353,1746537612,812149192,mA1/imu,0.7767549704345083,-0.6298023285233976,-0.0007944409303855459,0.00033429837057816366,0.0,0.0,0.0,0.0,0.0,0.0,0.0,0.0,0.0,0.0019318128740804864,0.0005063065313034646,-3.1891756551294823e-06,0.0,0.0,0.0,0.0,0.0,0.0,0.0,0.0,0.0,0.007717945381320016,-0.560302042133206,9.808612668118492,0.0,0.0,0.0,0.0,0.0,0.0,0.0,0.0,0.0
2025/05/06 15:20:12.864419180,1746537612,863328575,mA1/imu,0.7767549828364808,-0.6298023531437222,-0.0007675451483192173,0.0003216951570694133,0.0,0.0,0.0,0.0,0.0,0.0,0.0,0.0,0.0,0.0009290648902667528,0.0005190158738609788,2.8888623015610335e-06,0.0,0.0,0.0,0.0,0.0,0.0,0.0,0.0,0.0,0.007762029095203912,0.6253801793750323,9.810678709822469,0.0,0.0,0.0,0.0,0.0,0.0,0.0,0.0,0.0
2025/05/06 15:20:12.913552201,1746537612,913120939,mA1/imu,0.7767548953104959,-0.6298024929176996,-0.0007444978722127361,0.00031344656580027555,0.0,0.0,0.0,0.0,0.0,0.0,0.0,0.0,0.0,0.00029549579085143057,0.0005008966706980747,9.082577226788818e-06,0.0,0.0,0.0,0.0,0.0,0.0,0.0,0.0,0.0,0.00804308221967183,0.5385124967072282,9.810836600228356,0.0,0.0,0.0,0.0,0.0,0.0,0.0,0.0,0.0
2025/05/06 15:20:12.966823426,1746537612,965341386,mA1/imu,0.776754705486998,-0.6298027612636636,-0.0007200309462687816,0.00030160223466671747,0.0,0.0,0.0,0.0,0.0,0.0,0.0,0.0,0.0,0.0010785677293603283,0.0004392747404552748,1.5717570908815325e-05,0.0,0.0,0.0,0.0,0.0,0.0,0.0,0.0,0.0,0.008143290295540288,0.00562928603283294,9.8090066868711,0.0,0.0,0.0,0.0,0.0,0.0,0.0,0.0,0.0
2025/05/06 15:20:13.5344492,1746537613,5058797,mA1/imu,0.7767544099114788,-0.6298031552237631,-0.0006984588909316981,0.00029070335528300946,0.0,0.0,0.0,0.0,0.0,0.0,0.0,0.0,0.0,0.0007825251125387546,0.0003614556010752545,2.223008610777732e-05,0.0,0.0,0.0,0.0,0.0,0.0,0.0,0.0,0.0,0.00825070510876051,-0.010531137678428858,9.808915639488324,0.0,0.0,0.0,0.0,0.0,0.0,0.0,0.0,0.0
2025/05/06 15:20:13.58368535,1746537613,57851124,mA1/imu,0.7767540163651868,-0.6298036674972195,-0.00067889157658457,0.0002785207901373711,0.0,0.0,0.0,0.0,0.0,0.0,0.0,0.0,0.0,-0.00018270052403051955,0.0002635302332943297,2.8026391542170203e-05,0.0,0.0,0.0,0.0,0.0,0.0,0.0,0.0,0.0,0.008505021811079976,0.5594407018530931,9.81099133156894,0.0,0.0,0.0,0.0,0.0,0.0,0.0,0.0,0.0
2025/05/06 15:20:13.109902722,1746537613,107669600,mA1/imu,0.7767535264442841,-0.6298042867810046,-0.0006674335162373695,0.0002721050170042254,0.0,0.0,0.0,0.0,0.0,0.0,0.0,0.0,0.0,-0.0001372690836316211,0.00015195649068423998,3.385111523225916e-05,0.0,0.0,0.0,0.0,0.0,0.0,0.0,0.0,0.0,0.00797122061471329,-0.0538006033917493,9.81009687256036,0.0,0.0,0.0,0.0,0.0,0.0,0.0,0.0,0.0
2025/05/06 15:20:13.162365294,1746537613,160518777,mA1/imu,0.7767529450106667,-0.6298050190593557,-0.0006569833468651753,0.0002622170525250218,0.0,0.0,0.0,0.0,0.0,0.0,0.0,0.0,0.0,0.0004764275399993157,2.3757744162826704e-05,3.955184007361554e-05,0.0,0.0,0.0,0.0,0.0,0.0,0.0,0.0,0.0,0.00868754177275072,-0.6329717215207749,9.80972737826027,0.0,0.0,0.0,0.0,0.0,0.0,0.0,0.0,0.0
2025/05/06 15:20:13.211058006,1746537613,210608693,mA1/imu,0.7767522705523896,-0.6298058646305016,-0.0006486204155531354,0.0002497204237993305,0.0,0.0,0.0,0.0,0.0,0.0,0.0,0.0,0.0,0.0006164785299611308,-0.00011101639111600324,4.54317899611145e-05,0.0,0.0,0.0,0.0,0.0,0.0,0.0,0.0,0.0,0.008898474185373652,0.018091112084210784,9.809796501348062,0.0,0.0,0.0,0.0,0.0,0.0,0.0,0.0,0.0
2025/05/06 15:20:13.263878665,1746537613,262018489,mA1/imu,0.7767514925999572,-0.6298068229780319,-0.0006512313325780376,0.00024570675205010307,0.0,0.0,0.0,0.0,0.0,0.0,0.0,0.0,0.0,-0.0008115630486003277,-0.00023031352336417386,5.183564540015096e-05,0.0,0.0,0.0,0.0,0.0,0.0,0.0,0.0,0.0,0.008332260020900149,0.494882999504357,9.81117894026157,0.0,0.0,0.0,0.0,0.0,0.0,0.0,0.0,0.0
2025/05/06 15:20:13.313195158,1746537613,312540628,mA1/imu,0.7767506152107083,-0.6298079018244216,-0.0006563322364393147,0.00024041069277747637,0.0,0.0,0.0,0.0,0.0,0.0,0.0,0.0,0.0,-0.0001959491160635291,-0.00033359328825811814,5.7651509035854586e-05,0.0,0.0,0.0,0.0,0.0,0.0,0.0,0.0,0.0,0.008206858938713795,-0.04105959724452582,9.809373493562004,0.0,0.0,0.0,0.0,0.0,0.0,0.0,0.0,0.0
2025/05/06 15:20:13.357559822,1746537613,356895105,mA1/imu,0.7767496487770295,-0.6298090827784152,-0.0006673877163578811,0.00023868013854122432,0.0,0.0,0.0,0.0,0.0,0.0,0.0,0.0,0.0,-6.421944371582107e-05,-0.00041929441110493125,6.306819320368992e-05,0.0,0.0,0.0,0.0,0.0,0.0,0.0,0.0,0.0,0.007846204580589076,0.0167687742443014,9.809742500753135,0.0,0.0,0.0,0.0,0.0,0.0,0.0,0.0,0.0
2025/05/06 15:20:13.405384007,1746537613,405020073,mA1/imu,0.7767486014631602,-0.6298103556851695,-0.0006839429284186175,0.00024128575558273564,0.0,0.0,0.0,0.0,0.0,0.0,0.0,0.0,0.0,-0.001065725341230066,-0.0005011428674218968,6.609470890212825e-05,0.0,0.0,0.0,0.0,0.0,0.0,0.0,0.0,0.0,0.013645674295671211,-0.11150170431759338,9.810382812761441,0.0,0.0,0.0,0.0,0.0,0.0,0.0,0.0,0.0
2025/05/06 15:20:13.457486397,1746537613,457043489,mA1/imu,0.7767476105707796,-0.6298115528536231,-0.0007058523733217098,0.00024318124815035907,0.0,0.0,0.0,0.0,0.0,0.0,0.0,0.0,0.0,-0.0017923711084560847,-0.000708554503771487,5.93306717038567e-05,0.0,0.0,0.0,0.0,0.0,0.0,0.0,0.0,0.0,0.013277091565338597,0.36008557678330155,9.811482800367548,0.0,0.0,0.0,0.0,0.0,0.0,0.0,0.0,0.0
2025/05/06 15:20:13.506619203,1746537613,506203581,mA1/imu,0.7767467206261895,-0.6298126259923426,-0.0007286162928190803,0.00023928098017004802,0.0,0.0,0.0,0.0,0.0,0.0,0.0,0.0,0.0,-0.00201687612880344,-0.0008402901081399094,5.267189216550669e-05,0.0,0.0,0.0,0.0,0.0,0.0,0.0,0.0,0.0,0.012191176699147058,0.5462383502599629,9.809194149901208,0.0,0.0,0.0,0.0,0.0,0.0,0.0,0.0,0.0
2025/05/06 15:20:13.558968467,1746537613,558483589,mA1/imu,0.7767459175636576,-0.6298135731279799,-0.0007631978368901123,0.00024531820181739603,0.0,0.0,0.0,0.0,0.0,0.0,0.0,0.0,0.0,-0.0011750257669854267,-0.0009586211034346493,4.7310247047528274e-05,0.0,0.0,0.0,0.0,0.0,0.0,0.0,0.0,0.0,0.01242104193351487,-0.022203097467770695,9.809327269636446,0.0,0.0,0.0,0.0,0.0,0.0,0.0,0.0,0.0
2025/05/06 15:20:13.608318980,1746537613,606986649,mA1/imu,0.7767452004591379,-0.6298144181120937,-0.0007950749463014599,0.0002452705615091825,0.0,0.0,0.0,0.0,0.0,0.0,0.0,0.0,0.0,-0.0009680721177762946,-0.000999758153775744,4.1788283345437635e-05,0.0,0.0,0.0,0.0,0.0,0.0,0.0,0.0,0.0,0.011934512616510608,-0.003990482960809739,9.80955435703879,0.0,0.0,0.0,0.0,0.0,0.0,0.0,0.0,0.0
2025/05/06 15:20:13.659834278,1746537613,657890367,mA1/imu,0.776744577529938,-0.6298151408329866,-0.0008294496362977167,0.0002483317620725271,0.0,0.0,0.0,0.0,0.0,0.0,0.0,0.0,0.0,-0.0009533400307955414,-0.0009764834518580452,3.5344132821817285e-05,0.0,0.0,0.0,0.0,0.0,0.0,0.0,0.0,0.0,0.01161200986371216,-0.0032277288385309556,9.809452496933199,0.0,0.0,0.0,0.0,0.0,0.0,0.0,0.0,0.0
2025/05/06 15:20:13.711729531,1746537613,707741374,mA1/imu,0.7767440511362016,-0.629815743769707,-0.0008626774987518255,0.00025241209500447725,0.0,0.0,0.0,0.0,0.0,0.0,0.0,0.0,0.0,-0.001145378044776356,-0.0008945535459210688,2.9704964990519176e-05,0.0,0.0,0.0,0.0,0.0,0.0,0.0,0.0,0.0,0.011629207751438109,-0.03116397220962342,9.811319371330214,0.0,0.0,0.0,0.0,0.0,0.0,0.0,0.0,0.0
2025/05/06 15:20:13.760452404,1746537613,758650095,mA1/imu,0.7767436088417672,-0.6298162556478855,-0.0008874006068372554,0.00025053005463952565,0.0,0.0,0.0,0.0,0.0,0.0,0.0,0.0,0.0,-0.0006149439523602643,-0.0007518956792250754,2.4776675028081823e-05,0.0,0.0,0.0,0.0,0.0,0.0,0.0,0.0,0.0,0.010986784432484017,0.0112050265587338,9.810049371915454,0.0,0.0,0.0,0.0,0.0,0.0,0.0,0.0,0.0
2025/05/06 15:20:13.808772125,1746537613,808495317,mA1/imu,0.7767432443465774,-0.6298166639087114,-0.0009141590534943263,0.0002579497620998431,0.0,0.0,0.0,0.0,0.0,0.0,0.0,0.0,0.0,0.0003253306703754086,-0.0005760007011221498,1.9961008433149338e-05,0.0,0.0,0.0,0.0,0.0,0.0,0.0,0.0,0.0,0.01087983522401748,-0.5609439642738869,9.809802367602689,0.0,0.0,0.0,0.0,0.0,0.0,0.0,0.0,0.0
2025/05/06 15:20:13.861199941,1746537613,859644520,mA1/imu,0.7767429603616124,-0.6298169821529728,-0.0009338688263293244,0.0002653477261650469,0.0,0.0,0.0,0.0,0.0,0.0,0.0,0.0,0.0,-0.00115050105793844,-0.0003337536005236461,1.5191343317823054e-05,0.0,0.0,0.0,0.0,0.0,0.0,0.0,0.0,0.0,0.011136159677103588,-0.04548517232799114,9.8102825024056,0.0,0.0,0.0,0.0,0.0,0.0,0.0,0.0,0.0
2025/05/06 15:20:13.912732652,1746537613,911881607,mA1/imu,0.7767427593364815,-0.6298172161385714,-0.0009423474719167846,0.0002684307191625315,0.0,0.0,0.0,0.0,0.0,0.0,0.0,0.0,0.0,-0.0011712809006347222,-7.821642322194791e-05,1.0285277031237554e-05,0.0,0.0,0.0,0.0,0.0,0.0,0.0,0.0,0.0,0.010499980969581468,-0.05595049187432384,9.808911624891216,0.0,0.0,0.0,0.0,0.0,0.0,0.0,0.0,0.0
2025/05/06 15:20:13.964129626,1746537613,962776707,mA1/imu,0.776742646971367,-0.6298173531044143,-0.0009426410794257907,0.0002711683221767049,0.0,0.0,0.0,0.0,0.0,0.0,0.0,0.0,0.0,-0.0010549356192388467,0.0001659840974303778,5.082101413181018e-06,0.0,0.0,0.0,0.0,0.0,0.0,0.0,0.0,0.0,0.010971435336413404,0.5486685814524371,9.810080149076255,0.0,0.0,0.0,0.0,0.0,0.0,0.0,0.0,0.0
2025/05/06 15:20:14.4625776,1746537614,4297682,mA1/imu,0.7767426240975126,-0.6298173967715719,-0.0009324029923643,0.0002706633525710388,0.0,0.0,0.0,0.0,0.0,0.0,0.0,0.0,0.0,0.0006294595551098533,0.00040539538382875173,1.2799102226071264e-07,0.0,0.0,0.0,0.0,0.0,0.0,0.0,0.0,0.0,0.010314535108395594,0.1403362184356647,9.810950279834566,0.0,0.0,0.0,0.0,0.0,0.0,0.0,0.0,0.0
2025/05/06 15:20:14.55931749,1746537614,55375165,mA1/imu,0.7767426796741215,-0.6298173395123291,-0.0009221894357643082,0.00027926496650568976,0.0,0.0,0.0,0.0,0.0,0.0,0.0,0.0,0.0,0.0009937751726016733,0.0006122876698992454,-4.570285484190987e-06,0.0,0.0,0.0,0.0,0.0,0.0,0.0,0.0,0.0,0.01053988069944627,0.04983441977832645,9.811123125612463,0.0,0.0,0.0,0.0,0.0,0.0,0.0,0.0,0.0
2025/05/06 15:20:14.106966461,1746537614,106394690,mA1/imu,0.7767428167392921,-0.6298172027515084,-0.0008995613896352469,0.0002802703732560806,0.0,0.0,0.0,0.0,0.0,0.0,0.0,0.0,0.0,0.0021513759557265657,0.0007851133696847661,-9.311940134504694e-06,0.0,0.0,0.0,0.0,0.0,0.0,0.0,0.0,0.0,0.010945740843301216,-0.5138479912324705,9.809562177518567,0.0,0.0,0.0,0.0,0.0,0.0,0.0,0.0,0.0
2025/05/06 15:20:14.159141154,1746537614,157254078,mA1/imu,0.7767430371755348,-0.629816968600081,-0.0008723148303768619,0.0002816550496057421,0.0,0.0,0.0,0.0,0.0,0.0,0.0,0.0,0.0,0.0012322772119987505,0.0009264795375562716,-1.4414272123703992e-05,0.0,0.0,0.0,0.0,0.0,0.0,0.0,0.0,0.0,0.01080719613292014,0.23217078486308332,9.809818698668764,0.0,0.0,0.0,0.0,0.0,0.0,0.0,0.0,0.0
2025/05/06 15:20:14.210058679,1746537614,207183005,mA1/imu,0.7767433362951207,-0.6298166381348989,-0.0008431868307447596,0.0002844038457144442,0.0,0.0,0.0,0.0,0.0,0.0,0.0,0.0,0.0,0.0011911141577299355,0.0009985373292071365,-1.9223678763069732e-05,0.0,0.0,0.0,0.0,0.0,0.0,0.0,0.0,0.0,0.01100460043835479,0.031124334857310185,9.809309805605059,0.0,0.0,0.0,0.0,0.0,0.0,0.0,0.0,0.0
2025/05/06 15:20:14.259743967,1746537614,259194596,mA1/imu,0.7767437094022149,-0.6298162128434316,-0.0008148474819021352,0.0002897709885801584,0.0,0.0,0.0,0.0,0.0,0.0,0.0,0.0,0.0,0.0012922772431792364,0.0010081613423311275,-2.4034592736479335e-05,0.0,0.0,0.0,0.0,0.0,0.0,0.0,0.0,0.0,0.011731647641206915,-0.5990830981160723,9.809636440513733,0.0,0.0,0.0,0.0,0.0,0.0,0.0,0.0,0.0
2025/05/06 15:20:14.309053718,1746537614,307908622,mA1/imu,0.7767441668368431,-0.6298156924780628,-0.0007811708296446582,0.00028734204651312647,0.0,0.0,0.0,0.0,0.0,0.0,0.0,0.0,0.0,0.001524606735980661,0.0009472731579038603,-3.0154884001948e-05,0.0,0.0,0.0,0.0,0.0,0.0,0.0,0.0,0.0,0.012592240686038233,-0.5872382760512191,9.809376334098669,0.0,0.0,0.0,0.0,0.0,0.0,0.0,0.0,0.0
2025/05/06 15:20:14.359822503,1746537614,359232951,mA1/imu,0.776744740255449,-0.6298150231854106,-0.0007508633979441075,0.00028506071868101646,0.0,0.0,0.0,0.0,0.0,0.0,0.0,0.0,0.0,0.0015986522349415709,0.0008252999277889744,-3.808396589140885e-05,0.0,0.0,0.0,0.0,0.0,0.0,0.0,0.0,0.0,0.012627799470625855,-0.5829877736699443,9.808572569458113,0.0,0.0,0.0,0.0,0.0,0.0,0.0,0.0,0.0
2025/05/06 15:20:14.409739504,1746537614,409010048,mA1/imu,0.7767454338970496,-0.6298142057004712,-0.0007212349393917445,0.00027755743712761806,0.0,0.0,0.0,0.0,0.0,0.0,0.0,0.0,0.0,-0.0006318428092125666,0.0006649772494876759,-4.588911945399358e-05,0.0,0.0,0.0,0.0,0.0,0.0,0.0,0.0,0.0,0.013147330306144116,0.5236353140348747,9.810203934721294,0.0,0.0,0.0,0.0,0.0,0.0,0.0,0.0,0.0
2025/05/06 15:20:14.460808308,1746537614,459964642,mA1/imu,0.7767462454347406,-0.6298132402211555,-0.0006945548831008327,0.00026502580450096206,0.0,0.0,0.0,0.0,0.0,0.0,0.0,0.0,0.0,-5.8192011304813295e-05,0.0004299853842879584,-5.356468108548125e-05,0.0,0.0,0.0,0.0,0.0,0.0,0.0,0.0,0.0,0.012835365680983597,0.569151217865696,9.810237286937378,0.0,0.0,0.0,0.0,0.0,0.0,0.0,0.0,0.0
2025/05/06 15:20:14.513016021,1746537614,510491436,mA1/imu,0.7767471741589789,-0.6298121187942503,-0.0006766486327173245,0.0002541703483463322,0.0,0.0,0.0,0.0,0.0,0.0,0.0,0.0,0.0,0.0009630871473466914,0.00018616884211864265,-6.143657286454233e-05,0.0,0.0,0.0,0.0,0.0,0.0,0.0,0.0,0.0,0.012488439281801005,0.018655298538072282,9.80969530037085,0.0,0.0,0.0,0.0,0.0,0.0,0.0,0.0,0.0
2025/05/06 15:20:14.563822406,1746537614,561476003,mA1/imu,0.7767482218821345,-0.6298108446619252,-0.0006646332804949097,0.00024085634081099722,0.0,0.0,0.0,0.0,0.0,0.0,0.0,0.0,0.0,0.0025343694859663044,-6.514078226603205e-05,-6.93981603618234e-05,0.0,0.0,0.0,0.0,0.0,0.0,0.0,0.0,0.0,0.011785731659089653,-0.49103711039324516,9.808129283581772,0.0,0.0,0.0,0.0,0.0,0.0,0.0,0.0,0.0
2025/05/06 15:20:14.611553786,1746537614,611308620,mA1/imu,0.7767493873697429,-0.6298094097999007,-0.0006649276537295911,0.0002332797572930245,0.0,0.0,0.0,0.0,0.0,0.0,0.0,0.0,0.0,0.000910548611787455,-0.00030358597976841873,-7.746864735352721e-05,0.0,0.0,0.0,0.0,0.0,0.0,0.0,0.0,0.0,0.012958655728123492,0.008671980214118366,9.810895023597903,0.0,0.0,0.0,0.0,0.0,0.0,0.0,0.0,0.0
2025/05/06 15:20:14.663648663,1746537614,662441160,mA1/imu,0.7767506705707138,-0.6298078224293489,-0.0006721062784161093,0.00022549478628895102,0.0,0.0,0.0,0.0,0.0,0.0,0.0,0.0,0.0,-0.0008154415831499204,-0.0005027383330910722,-8.500527141326798e-05,0.0,0.0,0.0,0.0,0.0,0.0,0.0,0.0,0.0,0.012666495017483268,-0.07214796470230528,9.811177022545246,0.0,0.0,0.0,0.0,0.0,0.0,0.0,0.0,0.0
2025/05/06 15:20:14.715889911,1746537614,713856930,mA1/imu,0.7767520691098507,-0.6298060926099511,-0.0006810360072644168,0.0002122142979555357,0.0,0.0,0.0,0.0,0.0,0.0,0.0,0.0,0.0,-0.001028735593711873,-0.0006697298357741132,-9.209701318529598e-05,0.0,0.0,0.0,0.0,0.0,0.0,0.0,0.0,0.0,0.01164369317378814,-0.09120503095569912,9.809513127770902,0.0,0.0,0.0,0.0,0.0,0.0,0.0,0.0,0.0
2025/05/06 15:20:14.757450622,1746537614,755511276,mA1/imu,0.7767535739344341,-0.629804233690315,-0.0006895860116175152,0.00019255381472802537,0.0,0.0,0.0,0.0,0.0,0.0,0.0,0.0,0.0,0.00021060378056805224,-0.0008005693657807994,-9.878732681977246e-05,0.0,0.0,0.0,0.0,0.0,0.0,0.0,0.0,0.0,0.011224023724465845,0.02510169630087109,9.80924774346823,0.0,0.0,0.0,0.0,0.0,0.0,0.0,0.0,0.0
2025/05/06 15:20:14.806952528,1746537614,806240259,mA1/imu,0.7767551760730921,-0.6298022405605873,-0.0007080595466675418,0.00018132898846857167,0.0,0.0,0.0,0.0,0.0,0.0,0.0,0.0,0.0,-0.00010415108757558039,-0.0008803912464785351,-0.0001052640697536854,0.0,0.0,0.0,0.0,0.0,0.0,0.0,0.0,0.0,0.011442309841720637,0.6436244189573701,9.810814478944755,0.0,0.0,0.0,0.0,0.0,0.0,0.0,0.0,0.0
2025/05/06 15:20:14.858665523,1746537614,857165805,mA1/imu,0.7767568714439195,-0.6298001190974798,-0.0007352224672596379,0.00017915741206375247,0.0,0.0,0.0,0.0,0.0,0.0,0.0,0.0,0.0,-9.357821205435548e-05,-0.0009068745808919129,-0.00011134418707150717,0.0,0.0,0.0,0.0,0.0,0.0,0.0,0.0,0.0,0.01062306271413056,0.028194653874744666,9.809137269726376,0.0,0.0,0.0,0.0,0.0,0.0,0.0,0.0,0.0
2025/05/06 15:20:14.911311995,1746537614,909180648,mA1/imu,0.7767586566686315,-0.6297978848365656,-0.0007627882521346187,0.00017804441491644536,0.0,0.0,0.0,0.0,0.0,0.0,0.0,0.0,0.0,0.00014404192026582944,-0.0008753921256909443,-0.00011685051991763136,0.0,0.0,0.0,0.0,0.0,0.0,0.0,0.0,0.0,0.010753066388701563,-0.575595693402404,9.809689739287833,0.0,0.0,0.0,0.0,0.0,0.0,0.0,0.0,0.0
2025/05/06 15:20:14.960488064,1746537614,960127117,mA1/imu,0.7767605252188682,-0.6297955515549843,-0.0007867203687396508,0.00017542611666694803,0.0,0.0,0.0,0.0,0.0,0.0,0.0,0.0,0.0,-0.0001076662396657139,-0.0007712873250911013,-0.00012188061000557533,0.0,0.0,0.0,0.0,0.0,0.0,0.0,0.0,0.0,0.010422598034796707,-0.5862932211100351,9.810429618030721,0.0,0.0,0.0,0.0,0.0,0.0,0.0,0.0,0.0
2025/05/06 15:20:15.10978346,1746537615,10532927,mA1/imu,0.7767624741005288,-0.6297931165333537,-0.0008109119236773266,0.0001778153058843914,0.0,0.0,0.0,0.0,0.0,0.0,0.0,0.0,0.0,-0.0005226573138812413,-0.0006242864980111319,-0.00012655357209606419,0.0,0.0,0.0,0.0,0.0,0.0,0.0,0.0,0.0,0.01000891939425125,0.020417765372234706,9.809804751538993,0.0,0.0,0.0,0.0,0.0,0.0,0.0,0.0,0.0
2025/05/06 15:20:15.62618738,1746537615,62286207,mA1/imu,0.7767644912068624,-0.6297905963364845,-0.0008338960217108523,0.0001859669444199552,0.0,0.0,0.0,0.0,0.0,0.0,0.0,0.0,0.0,-0.0016153188331723247,-0.00042624685303315217,-0.00013067393954504665,0.0,0.0,0.0,0.0,0.0,0.0,0.0,0.0,0.0,0.010136576690976697,0.3728740541938367,9.810242127587594,0.0,0.0,0.0,0.0,0.0,0.0,0.0,0.0,0.0
2025/05/06 15:20:15.113746736,1746537615,112053516,mA1/imu,0.7767665765457458,-0.6297879986940766,-0.0008509963872786279,0.00019510884280581845,0.0,0.0,0.0,0.0,0.0,0.0,0.0,0.0,0.0,-0.0007781112889955177,-0.00021538956827023362,-0.00013457549416890182,0.0,0.0,0.0,0.0,0.0,0.0,0.0,0.0,0.0,0.00983588241065551,0.0035948345377570107,9.811076388351541,0.0,0.0,0.0,0.0,0.0,0.0,0.0,0.0,0.0
2025/05/06 15:20:15.164572873,1746537615,163362378,mA1/imu,0.7767687204721226,-0.6297853404700167,-0.0008595937888576377,0.0002022960329008946,0.0,0.0,0.0,0.0,0.0,0.0,0.0,0.0,0.0,0.0014165392686045772,4.209923428982735e-06,-0.00013759363480218563,0.0,0.0,0.0,0.0,0.0,0.0,0.0,0.0,0.0,0.008948131111803937,-0.3759288584293791,9.810264413279526,0.0,0.0,0.0,0.0,0.0,0.0,0.0,0.0,0.0
2025/05/06 15:20:15.208919315,1746537615,208608562,mA1/imu,0.7767709141628064,-0.6297826045441135,-0.0008753148149059692,0.00022748249482196665,0.0,0.0,0.0,0.0,0.0,0.0,0.0,0.0,0.0,-0.00030468126795072645,0.00022148065456470843,-0.00014071531026454355,0.0,0.0,0.0,0.0,0.0,0.0,0.0,0.0,0.0,0.010014296841815817,-0.4438157358239822,9.809729674297333,0.0,0.0,0.0,0.0,0.0,0.0,0.0,0.0,0.0
2025/05/06 15:20:15.259807971,1746537615,258590495,mA1/imu,0.7767731662326018,-0.6297798229645977,-0.0008745909083610896,0.00024062086703458653,0.0,0.0,0.0,0.0,0.0,0.0,0.0,0.0,0.0,-0.0004237938727894057,0.0004373926561858562,-0.0001440218067998457,0.0,0.0,0.0,0.0,0.0,0.0,0.0,0.0,0.0,0.009870816507040438,0.01311261427757532,9.810461180938601,0.0,0.0,0.0,0.0,0.0,0.0,0.0,0.0,0.0
2025/05/06 15:20:15.312635596,1746537615,308428544,mA1/imu,0.7767754698337711,-0.6297769847339998,-0.000868350501437215,0.00025481617347258075,0.0,0.0,0.0,0.0,0.0,0.0,0.0,0.0,0.0,0.0009812114236762688,0.0006247832258310321,-0.00014620949978015653,0.0,0.0,0.0,0.0,0.0,0.0,0.0,0.0,0.0,0.008867281239350808,-0.2498305802691166,9.810732810540747,0.0,0.0,0.0,0.0,0.0,0.0,0.0,0.0,0.0
2025/05/06 15:20:15.361558876,1746537615,359897945,mA1/imu,0.7767777849702597,-0.6297741190795135,-0.0008669361216411412,0.0002830831690316095,0.0,0.0,0.0,0.0,0.0,0.0,0.0,0.0,0.0,-0.0010814638206416395,0.0008185335847502907,-0.00014640508515607507,0.0,0.0,0.0,0.0,0.0,0.0,0.0,0.0,0.0,0.009501618031081686,-0.05196360167052369,9.8098143953344,0.0,0.0,0.0,0.0,0.0,0.0,0.0,0.0,0.0
2025/05/06 15:20:15.414809418,1746537615,412293287,mA1/imu,0.7767801100676517,-0.6297712613216923,-0.000853148917948184,0.0003019163720894416,0.0,0.0,0.0,0.0,0.0,0.0,0.0,0.0,0.0,-0.0014020261552893849,0.0009572748112053233,-0.0001466464407566867,0.0,0.0,0.0,0.0,0.0,0.0,0.0,0.0,0.0,0.00891045500662458,-0.08148004491939329,9.810847151557672,0.0,0.0,0.0,0.0,0.0,0.0,0.0,0.0,0.0
2025/05/06 15:20:15.463588007,1746537615,462609040,mA1/imu,0.7767824342649593,-0.6297684157216858,-0.000832226951417876,0.00031587197319169657,0.0,0.0,0.0,0.0,0.0,0.0,0.0,0.0,0.0,-0.0006948687796356558,0.0010366707253659634,-0.00014618836921116737,0.0,0.0,0.0,0.0,0.0,0.0,0.0,0.0,0.0,0.00974142617098828,-0.04627049106688987,9.810550519688233,0.0,0.0,0.0,0.0,0.0,0.0,0.0,0.0,0.0
2025/05/06 15:20:15.514466445,1746537615,512503331,mA1/imu,0.7767847566333236,-0.6297655785601086,-0.0008070519536939629,0.0003264813993703106,0.0,0.0,0.0,0.0,0.0,0.0,0.0,0.0,0.0,0.00029196850704672045,0.0010558035265268938,-0.00014596376937573284,0.0,0.0,0.0,0.0,0.0,0.0,0.0,0.0,0.0,0.009384084409243043,0.013167163422164885,9.808346931307032,0.0,0.0,0.0,0.0,0.0,0.0,0.0,0.0,0.0
2025/05/06 15:20:15.566674639,1746537615,563532857,mA1/imu,0.7767870818986923,-0.6297627339571882,-0.0007834351479431363,0.0003384426850177396,0.0,0.0,0.0,0.0,0.0,0.0,0.0,0.0,0.0,-0.00012735193438729306,0.0010130388102842943,-0.00014646285307917678,0.0,0.0,0.0,0.0,0.0,0.0,0.0,0.0,0.0,0.009935256063928777,0.17280628685960173,9.809597876240662,0.0,0.0,0.0,0.0,0.0,0.0,0.0,0.0,0.0
2025/05/06 15:20:15.614160493,1746537615,613744786,mA1/imu,0.7767894169105836,-0.6297598820309647,-0.0007577188323626818,0.00034441578372870806,0.0,0.0,0.0,0.0,0.0,0.0,0.0,0.0,0.0,0.0018547269421945454,0.0008982196680339325,-0.00014709673944859872,0.0,0.0,0.0,0.0,0.0,0.0,0.0,0.0,0.0,0.009512973963158446,-0.5275491699633088,9.80965394665722,0.0,0.0,0.0,0.0,0.0,0.0,0.0,0.0,0.0
2025/05/06 15:20:15.669681747,1746537615,667815379,mA1/imu,0.7767925288402117,-0.6297560669283634,-0.0006745618897571247,0.0004563674011527981,0.0,0.0,0.0,0.0,0.0,0.0,0.0,0.0,0.0,-0.0005210697204150619,0.006956020975044726,-0.00020289870744357133,0.0,0.0,0.0,0.0,0.0,0.0,0.0,0.0,0.0,0.017643040197833727,-0.5205132224853296,9.809167567908009,0.0,0.0,0.0,0.0,0.0,0.0,0.0,0.0,0.0
2025/05/06 15:20:15.708436879,1746537615,707839299,mA1/imu,0.7767958083659603,-0.6297520041956144,-0.0005773857658744203,0.000593247299516634,0.0,0.0,0.0,0.0,0.0,0.0,0.0,0.0,0.0,-0.0011201574430444138,0.00609227844080339,-0.00020364633853879217,0.0,0.0,0.0,0.0,0.0,0.0,0.0,0.0,0.0,0.01844646108682869,0.3222576817766238,9.811237780157708,0.0,0.0,0.0,0.0,0.0,0.0,0.0,0.0,0.0
2025/05/06 15:20:15.761115645,1746537615,759539940,mA1/imu,0.7767999095176596,-0.6297468847018612,-0.0004991788989045109,0.0007159623478484527,0.0,0.0,0.0,0.0,0.0,0.0,0.0,0.0,0.0,-0.002622392985465449,0.005483713913681347,-0.0004705945458181598,0.0,0.0,0.0,0.0,0.0,0.0,0.0,0.0,0.0,-0.008887200856264217,0.5041240645123274,9.784968704939272,0.0,0.0,0.0,0.0,0.0,0.0,0.0,0.0,0.0
2025/05/06 15:20:15.809938442,1746537615,808958046,mA1/imu,0.7768074278690692,-0.6297375057522305,-0.0004199563184630826,0.0008470496389223803,0.0,0.0,0.0,0.0,0.0,0.0,0.0,0.0,0.0,-0.0026261016139123216,0.005451700378294054,-0.0004772971691973422,0.0,0.0,0.0,0.0,0.0,0.0,0.0,0.0,0.0,0.001749905508831905,-0.06451796735029817,9.809596715513507,0.0,0.0,0.0,0.0,0.0,0.0,0.0,0.0,0.0
2025/05/06 15:20:15.861365411,1746537615,859825521,mA1/imu,0.7768161647828155,-0.6297266173197985,-0.0003551402466688132,0.0009525998566735255,0.0,0.0,0.0,0.0,0.0,0.0,0.0,0.0,0.0,-0.00101565372887045,0.004347578438487502,-0.0006702299408668395,0.0,0.0,0.0,0.0,0.0,0.0,0.0,0.0,0.0,0.000512683967220145,-0.5939736437141615,9.80992548142081,0.0,0.0,0.0,0.0,0.0,0.0,0.0,0.0,0.0
2025/05/06 15:20:15.909974776,1746537615,909487729,mA1/imu,0.7768268029303731,-0.6297133707138509,-0.0003059676133087654,0.0010466025964475795,0.0,0.0,0.0,0.0,0.0,0.0,0.0,0.0,0.0,-0.000937617464229952,0.003193804538739254,-0.0006762703548168458,0.0,0.0,0.0,0.0,0.0,0.0,0.0,0.0,0.0,0.024333470639203922,0.056903079048398614,9.811935105905375,0.0,0.0,0.0,0.0,0.0,0.0,0.0,0.0,0.0
2025/05/06 15:20:15.961383196,1746537615,961099069,mA1/imu,0.776837555735908,-0.6296999825920111,-0.00028340995073382097,0.0011240999425350244,0.0,0.0,0.0,0.0,0.0,0.0,0.0,0.0,0.0,-0.002484726847030636,0.002209458090919441,-0.0006911395194298223,0.0,0.0,0.0,0.0,0.0,0.0,0.0,0.0,0.0,-0.06333989597809957,0.44528452343071484,9.808464034172818,0.0,0.0,0.0,0.0,0.0,0.0,0.0,0.0,0.0
2025/05/06 15:20:16.16012473,1746537616,13087775,mA1/imu,0.7768485288358784,-0.6296863584944933,-0.0002789843175794501,0.0011727485776700072,0.0,0.0,0.0,0.0,0.0,0.0,0.0,0.0,0.0,-0.0006219574215836682,0.0007864131047409159,-0.0007044143072221459,0.0,0.0,0.0,0.0,0.0,0.0,0.0,0.0,0.0,0.024064524587125845,-0.5754658547723464,9.810391587017689,0.0,0.0,0.0,0.0,0.0,0.0,0.0,0.0,0.0
2025/05/06 15:20:16.65636694,1746537616,63744974,mA1/imu,0.7768655872577803,-0.6296652203622097,-0.0002914260999320638,0.0012184710346099378,0.0,0.0,0.0,0.0,0.0,0.0,0.0,0.0,0.0,-0.0021741609009332005,0.001267886051382393,-0.0016455207648229152,0.0,0.0,0.0,0.0,0.0,0.0,0.0,0.0,0.0,0.021184626468588326,-0.26490180270016656,9.811342096707873,0.0,0.0,0.0,0.0,0.0,0.0,0.0,0.0,0.0
2025/05/06 15:20:16.115676292,1746537616,113848623,mA1/imu,0.7768938465924662,-0.6296302605234442,-0.00030683356804406866,0.0012617500160842458,0.0,0.0,0.0,0.0,0.0,0.0,0.0,0.0,0.0,-0.002225154308899129,0.001203465199218942,-0.0024256803459498954,0.0,0.0,0.0,0.0,0.0,0.0,0.0,0.0,0.0,-0.04788123806819884,-0.3707625611589701,9.741570576398383,0.0,0.0,0.0,0.0,0.0,0.0,0.0,0.0,0.0
2025/05/06 15:20:16.166955329,1746537616,165027237,mA1/imu,0.7769325075255542,-0.6295824214602557,-0.00033894093358025274,0.0013185057221009801,0.0,0.0,0.0,0.0,0.0,0.0,0.0,0.0,0.0,-0.003064183715767901,0.00014909668073468445,-0.0026881434849652833,0.0,0.0,0.0,0.0,0.0,0.0,0.0,0.0,0.0,-0.003019692968394336,-0.11760486000784351,9.787483913353986,0.0,0.0,0.0,0.0,0.0,0.0,0.0,0.0,0.0
2025/05/06 15:20:16.215446107,1746537616,205711137,mA1/imu,0.7769744674151808,-0.6295305398299734,-0.00038227575036647567,0.001352875282144378,0.0,0.0,0.0,0.0,0.0,0.0,0.0,0.0,0.0,-0.0015797157103470412,-0.0009894006936054186,-0.002655307121638348,0.0,0.0,0.0,0.0,0.0,0.0,0.0,0.0,0.0,0.028445506633132035,-0.590246223231697,9.817020136879353,0.0,0.0,0.0,0.0,0.0,0.0,0.0,0.0,0.0
2025/05/06 15:20:16.258194177,1746537616,256822006,mA1/imu,0.777015851115555,-0.6294794168331427,-0.00044419354183976214,0.0013541014266310542,0.0,0.0,0.0,0.0,0.0,0.0,0.0,0.0,0.0,-0.0008174333388987453,-0.0023652939693075254,-0.002622706246724259,0.0,0.0,0.0,0.0,0.0,0.0,0.0,0.0,0.0,0.028088982883093284,-0.5828748197032735,9.818717620817988,0.0,0.0,0.0,0.0,0.0,0.0,0.0,0.0,0.0
2025/05/06 15:20:16.307506764,1746537616,307290826,mA1/imu,0.7770704872367733,-0.6294118995761919,-0.0005070550857815691,0.0013643432974801643,0.0,0.0,0.0,0.0,0.0,0.0,0.0,0.0,0.0,-0.0037549763598272775,-0.0007135982214138846,-0.004037176721703719,0.0,0.0,0.0,0.0,0.0,0.0,0.0,0.0,0.0,-0.07634352010429116,0.35654500138486117,9.826074655679486,0.0,0.0,0.0,0.0,0.0,0.0,0.0,0.0,0.0
2025/05/06 15:20:16.359642440,1746537616,358254188,mA1/imu,0.7771330111778774,-0.6293346485545336,-0.000569490193654835,0.0013633588177505366,0.0,0.0,0.0,0.0,0.0,0.0,0.0,0.0,0.0,-0.0027325101500617053,-0.0021200985205085503,-0.0039526855901613365,0.0,0.0,0.0,0.0,0.0,0.0,0.0,0.0,0.0,-0.13106125228207124,0.3289483411166945,9.818386441229471,0.0,0.0,0.0,0.0,0.0,0.0,0.0,0.0,0.0
2025/05/06 15:20:16.410572179,1746537616,408123424,mA1/imu,0.7772021877517292,-0.6292491573692541,-0.0006366218363953555,0.0013608881830187135,0.0,0.0,0.0,0.0,0.0,0.0,0.0,0.0,0.0,-0.0013411487508786179,-0.002508469307826415,-0.004383117401993793,0.0,0.0,0.0,0.0,0.0,0.0,0.0,0.0,0.0,-0.0058599844460331865,-0.05839688650506604,9.82165534830447,0.0,0.0,0.0,0.0,0.0,0.0,0.0,0.0,0.0
2025/05/06 15:20:16.459299764,1746537616,458970049,mA1/imu,0.7772707450545415,-0.6291644484585162,-0.0007118008438947196,0.0013337982634686366,0.0,0.0,0.0,0.0,0.0,0.0,0.0,0.0,0.0,-0.0008067742283263867,-0.0033260449570409524,-0.004351403996128655,0.0,0.0,0.0,0.0,0.0,0.0,0.0,0.0,0.0,-0.0042526659661048264,-0.05952165704036968,9.820332790767266,0.0,0.0,0.0,0.0,0.0,0.0,0.0,0.0,0.0
2025/05/06 15:20:16.509878951,1746537616,509261753,mA1/imu,0.7773387582977191,-0.6290804545723138,-0.0007852258673499477,0.0012727700454239726,0.0,0.0,0.0,0.0,0.0,0.0,0.0,0.0,0.0,-0.00018543667472578455,-0.0038153666239556174,-0.004319507281107195,0.0,0.0,0.0,0.0,0.0,0.0,0.0,0.0,0.0,-0.03966222287219842,0.07556650696486984,9.813371564248106,0.0,0.0,0.0,0.0,0.0,0.0,0.0,0.0,0.0
2025/05/06 15:20:16.561523816,1746537616,560105554,mA1/imu,0.7774213037731255,-0.6289783863846784,-0.0008501505767395251,0.00125823074868352,0.0,0.0,0.0,0.0,0.0,0.0,0.0,0.0,0.0,-0.000906889706578588,-0.0017658075550472697,-0.005860751665895853,0.0,0.0,0.0,0.0,0.0,0.0,0.0,0.0,0.0,-0.014246940093176313,-0.1049794815911867,9.823283521281175,0.0,0.0,0.0,0.0,0.0,0.0,0.0,0.0,0.0
2025/05/06 15:20:16.614160031,1746537616,611359290,mA1/imu,0.7775257513110836,-0.6288491889688139,-0.000889511152664387,0.0012697839615552783,0.0,0.0,0.0,0.0,0.0,0.0,0.0,0.0,0.0,-0.002187805699809016,-0.001151444522045154,-0.006568598548137657,0.0,0.0,0.0,0.0,0.0,0.0,0.0,0.0,0.0,0.009124781092975778,-0.11928336668386744,9.830934748627424,0.0,0.0,0.0,0.0,0.0,0.0,0.0,0.0,0.0
2025/05/06 15:20:16.664225769,1746537616,663400273,mA1/imu,0.7776356556854284,-0.6287132285666427,-0.0009261606718672452,0.0012670668539430466,0.0,0.0,0.0,0.0,0.0,0.0,0.0,0.0,0.0,-0.001286982703929557,-0.0009401581126951072,-0.0070774103185223,0.0,0.0,0.0,0.0,0.0,0.0,0.0,0.0,0.0,-0.09308984016500976,-0.2351479859721055,9.833541418999667,0.0,0.0,0.0,0.0,0.0,0.0,0.0,0.0,0.0
2025/05/06 15:20:16.713803712,1746537616,713200059,mA1/imu,0.7777454472107136,-0.6285774038883866,-0.0009549583874376001,0.0012468834835325858,0.0,0.0,0.0,0.0,0.0,0.0,0.0,0.0,0.0,-0.0009330336985463058,-0.0012605542965830074,-0.006939596339547124,0.0,0.0,0.0,0.0,0.0,0.0,0.0,0.0,0.0,0.009048335252388042,-0.10604285276061391,9.825428022492758,0.0,0.0,0.0,0.0,0.0,0.0,0.0,0.0,0.0
2025/05/06 15:20:16.765852415,1746537616,764491291,mA1/imu,0.7778586155811689,-0.6284374019147045,-0.000970011050250208,0.0012104211687191681,0.0,0.0,0.0,0.0,0.0,0.0,0.0,0.0,0.0,-0.00047186292780244764,-0.00014890232298724786,-0.007689874811049972,0.0,0.0,0.0,0.0,0.0,0.0,0.0,0.0,0.0,-0.049676040659489724,-0.16461429084950463,9.825943527575838,0.0,0.0,0.0,0.0,0.0,0.0,0.0,0.0,0.0
2025/05/06 15:20:16.805973793,1746537616,805245756,mA1/imu,0.7779775890423964,-0.6282901549962461,-0.0009670911386729083,0.001190301349504355,0.0,0.0,0.0,0.0,0.0,0.0,0.0,0.0,0.0,0.0024589445186995436,-0.0007697892812933838,-0.007488329091408746,0.0,0.0,0.0,0.0,0.0,0.0,0.0,0.0,0.0,0.044005868288556786,-0.5228031941677272,9.828087875480987,0.0,0.0,0.0,0.0,0.0,0.0,0.0,0.0,0.0
2025/05/06 15:20:16.858021858,1746537616,856320182,mA1/imu,0.7780953338088091,-0.6281443635042705,-0.000941403391646218,0.0011932570666378245,0.0,0.0,0.0,0.0,0.0,0.0,0.0,0.0,0.0,0.00015146976876434772,0.0010169325584363233,-0.0074489596358637685,0.0,0.0,0.0,0.0,0.0,0.0,0.0,0.0,0.0,0.039144425465376026,-0.37048118247823975,9.827128311559274,0.0,0.0,0.0,0.0,0.0,0.0,0.0,0.0,0.0
2025/05/06 15:20:16.907670474,1746537616,906029145,mA1/imu,0.7782123925612665,-0.6279994656242698,-0.0009001322803970628,0.001154556875424516,0.0,0.0,0.0,0.0,0.0,0.0,0.0,0.0,0.0,-5.5818388114426705e-05,0.0013844617382145785,-0.007854363580493939,0.0,0.0,0.0,0.0,0.0,0.0,0.0,0.0,0.0,-0.0768893468459793,0.27482790189455764,9.75393873794243,0.0,0.0,0.0,0.0,0.0,0.0,0.0,0.0,0.0
2025/05/06 15:20:16.960722620,1746537616,958355844,mA1/imu,0.7783340808510334,-0.6278487748323422,-0.000844964807894455,0.0011227474236246864,0.0,0.0,0.0,0.0,0.0,0.0,0.0,0.0,0.0,0.004232050224819575,4.727225214000375e-05,-0.007666112119076705,0.0,0.0,0.0,0.0,0.0,0.0,0.0,0.0,0.0,0.04214548933689867,0.14011526974805386,9.824523993445963,0.0,0.0,0.0,0.0,0.0,0.0,0.0,0.0,0.0
2025/05/06 15:20:17.8491186,1746537617,8166290,mA1/imu,0.778458985508618,-0.627693962846226,-0.000798555339017839,0.001122139324832383,0.0,0.0,0.0,0.0,0.0,0.0,0.0,0.0,0.0,0.001909268093320197,0.0012820983849450125,-0.007990848197546837,0.0,0.0,0.0,0.0,0.0,0.0,0.0,0.0,0.0,0.04732459391262203,-0.6337886657251185,9.82575262795309,0.0,0.0,0.0,0.0,0.0,0.0,0.0,0.0,0.0
2025/05/06 15:20:17.60082404,1746537617,59319185,mA1/imu,0.7785816952624892,-0.6275419547806319,-0.0007373632372083209,0.0010464644036308804,0.0,0.0,0.0,0.0,0.0,0.0,0.0,0.0,0.0,0.0038967669525158547,-0.00012237914814248636,-0.007521024346502826,0.0,0.0,0.0,0.0,0.0,0.0,0.0,0.0,0.0,-0.0461464388287091,0.05299646144428421,9.790676828970392,0.0,0.0,0.0,0.0,0.0,0.0,0.0,0.0,0.0
2025/05/06 15:20:17.109300016,1746537617,108960717,mA1/imu,0.7786978523540051,-0.6273979505487943,-0.0006825663241789786,0.0010002447928878647,0.0,0.0,0.0,0.0,0.0,0.0,0.0,0.0,0.0,0.004449078712597728,-0.00027132412015653927,-0.007329104357496222,0.0,0.0,0.0,0.0,0.0,0.0,0.0,0.0,0.0,0.0460299732438393,0.08304297636894921,9.822448478102665,0.0,0.0,0.0,0.0,0.0,0.0,0.0,0.0,0.0
2025/05/06 15:20:17.161947170,1746537617,160109665,mA1/imu,0.778816742382234,-0.6272504688125231,-0.0006199214827413485,0.0009730657481573325,0.0,0.0,0.0,0.0,0.0,0.0,0.0,0.0,0.0,0.001321086296202764,0.002496540805274876,-0.00774379780281766,0.0,0.0,0.0,0.0,0.0,0.0,0.0,0.0,0.0,0.011628704674388497,-0.09172341468845252,9.82117811795934,0.0,0.0,0.0,0.0,0.0,0.0,0.0,0.0,0.0
2025/05/06 15:20:17.215425348,1746537617,212460091,mA1/imu,0.7789355744245338,-0.6271029860113743,-0.0005391218830753222,0.0009618623262919925,0.0,0.0,0.0,0.0,0.0,0.0,0.0,0.0,0.0,0.0014801926723247757,0.0012959605886088356,-0.007496838287567961,0.0,0.0,0.0,0.0,0.0,0.0,0.0,0.0,0.0,0.0309865571715046,-0.06828907574483328,9.818591490329345,0.0,0.0,0.0,0.0,0.0,0.0,0.0,0.0,0.0
2025/05/06 15:20:17.265130264,1746537617,263607272,mA1/imu,0.7790525514136535,-0.6269577242091212,-0.00045789839023799707,0.0009615193500316763,0.0,0.0,0.0,0.0,0.0,0.0,0.0,0.0,0.0,0.0018911482886714336,0.0025430969451439543,-0.007450886748827666,0.0,0.0,0.0,0.0,0.0,0.0,0.0,0.0,0.0,0.006225959214681734,-0.009572537433717854,9.807536212358462,0.0,0.0,0.0,0.0,0.0,0.0,0.0,0.0,0.0
2025/05/06 15:20:17.313430152,1746537617,313086637,mA1/imu,0.7791675522530414,-0.6268148382269912,-0.0003981844615704513,0.0009620517708200059,0.0,0.0,0.0,0.0,0.0,0.0,0.0,0.0,0.0,0.002005096411463286,0.0011679486132112804,-0.007232361368315495,0.0,0.0,0.0,0.0,0.0,0.0,0.0,0.0,0.0,0.02258364862889179,0.010855868393639535,9.823787370183302,0.0,0.0,0.0,0.0,0.0,0.0,0.0,0.0,0.0
2025/05/06 15:20:17.365410838,1746537617,364717300,mA1/imu,0.7792800991269608,-0.6266749816477714,-0.0003540006065426951,0.0009322901962920825,0.0,0.0,0.0,0.0,0.0,0.0,0.0,0.0,0.0,0.0013362772364963944,0.001741986851744923,-0.007436099670697774,0.0,0.0,0.0,0.0,0.0,0.0,0.0,0.0,0.0,-0.02373278293434779,-0.5473770324886491,9.724971752036264,0.0,0.0,0.0,0.0,0.0,0.0,0.0,0.0,0.0
2025/05/06 15:20:17.405203633,1746537617,404373917,mA1/imu,0.7793942580733764,-0.6265330380377401,-0.00031284267277980504,0.0009191620711555195,0.0,0.0,0.0,0.0,0.0,0.0,0.0,0.0,0.0,-1.544923011778983e-05,0.0010442503471131796,-0.007188391291041972,0.0,0.0,0.0,0.0,0.0,0.0,0.0,0.0,0.0,-0.06557146197413694,0.33746269348922064,9.828154977407827,0.0,0.0,0.0,0.0,0.0,0.0,0.0,0.0,0.0
2025/05/06 15:20:17.459008029,1746537617,456944792,mA1/imu,0.7795044672973528,-0.6263959831227017,-0.0002875694179224634,0.0008803948229148378,0.0,0.0,0.0,0.0,0.0,0.0,0.0,0.0,0.0,0.0019415389546414696,-0.0009670478750001369,-0.006933606045642298,0.0,0.0,0.0,0.0,0.0,0.0,0.0,0.0,0.0,0.017043867154682413,0.02894825843793715,9.824908220194287,0.0,0.0,0.0,0.0,0.0,0.0,0.0,0.0,0.0
2025/05/06 15:20:17.506184144,1746537617,505915201,mA1/imu,0.7796204419878741,-0.6262516708766378,-0.00027283166000315967,0.0008583249597385895,0.0,0.0,0.0,0.0,0.0,0.0,0.0,0.0,0.0,0.0011888846562342083,-0.0003771945203710346,-0.007457743795038787,0.0,0.0,0.0,0.0,0.0,0.0,0.0,0.0,0.0,0.018160839096671114,0.3310273387939161,9.826848314924723,0.0,0.0,0.0,0.0,0.0,0.0,0.0,0.0,0.0
2025/05/06 15:20:17.558034867,1746537617,557023790,mA1/imu,0.7797377005553747,-0.6261056944368459,-0.0002740729392669066,0.0008382185844485674,0.0,0.0,0.0,0.0,0.0,0.0,0.0,0.0,0.0,0.0011253996377327883,-0.0010156497934757421,-0.00737714210398995,0.0,0.0,0.0,0.0,0.0,0.0,0.0,0.0,0.0,-0.002773022339722735,0.05471515651522131,9.8179658897423,0.0,0.0,0.0,0.0,0.0,0.0,0.0,0.0,0.0
2025/05/06 15:20:17.609778413,1746537617,609475533,mA1/imu,0.7798546800511093,-0.625959994178594,-0.0002916850305284339,0.0008237779794707301,0.0,0.0,0.0,0.0,0.0,0.0,0.0,0.0,0.0,0.0008920854442292335,-0.0013661345045236477,-0.007517426854832562,0.0,0.0,0.0,0.0,0.0,0.0,0.0,0.0,0.0,0.018353816649726556,0.06745537342218101,9.823154758651402,0.0,0.0,0.0,0.0,0.0,0.0,0.0,0.0,0.0
2025/05/06 15:20:17.661232034,1746537617,660751147,mA1/imu,0.7799720662511794,-0.6258137318600199,-0.00032901440713207076,0.0008003954153232682,0.0,0.0,0.0,0.0,0.0,0.0,0.0,0.0,0.0,-0.0011499307328981432,-0.0012431159082444266,-0.0076336600747487875,0.0,0.0,0.0,0.0,0.0,0.0,0.0,0.0,0.0,-0.05737312045499739,-0.30734495591965477,9.81860135873784,0.0,0.0,0.0,0.0,0.0,0.0,0.0,0.0,0.0
2025/05/06 15:20:17.711680285,1746537617,710421855,mA1/imu,0.7800901085832594,-0.6256665938613654,-0.0003725388182743996,0.0007726780083929733,0.0,0.0,0.0,0.0,0.0,0.0,0.0,0.0,0.0,-0.0017825885509634258,-0.0017880569106219243,-0.007738851594282998,0.0,0.0,0.0,0.0,0.0,0.0,0.0,0.0,0.0,-0.05849872750560653,-0.1964622576394227,9.77596580505678,0.0,0.0,0.0,0.0,0.0,0.0,0.0,0.0,0.0
2025/05/06 15:20:17.762960119,1746537617,762319097,mA1/imu,0.7802072930372868,-0.6255204705919244,-0.00042254222419930325,0.0007363558620522478,0.0,0.0,0.0,0.0,0.0,0.0,0.0,0.0,0.0,-0.0001817163398206369,-0.002716017937273585,-0.007313662263210852,0.0,0.0,0.0,0.0,0.0,0.0,0.0,0.0,0.0,-0.00017027183716285732,0.029666882236723903,9.812643083837907,0.0,0.0,0.0,0.0,0.0,0.0,0.0,0.0,0.0
2025/05/06 15:20:17.813759142,1746537617,813521529,mA1/imu,0.7803195737727564,-0.6253803971845162,-0.0004848182641977407,0.0006975354409155576,0.0,0.0,0.0,0.0,0.0,0.0,0.0,0.0,0.0,0.0002737120092574382,-0.0034623418793328932,-0.007080668289100017,0.0,0.0,0.0,0.0,0.0,0.0,0.0,0.0,0.0,0.0154419722702307,0.05762254601211912,9.817945747634235,0.0,0.0,0.0,0.0,0.0,0.0,0.0,0.0,0.0
2025/05/06 15:20:17.866264999,1746537617,865264757,mA1/imu,0.7804304251503441,-0.6252420377618813,-0.0005496974348692888,0.0006659938087718427,0.0,0.0,0.0,0.0,0.0,0.0,0.0,0.0,0.0,-0.000495629985676791,-0.0013127347389115523,-0.007241668612353526,0.0,0.0,0.0,0.0,0.0,0.0,0.0,0.0,0.0,0.014123986983840832,0.07954916670954551,9.81528687736642,0.0,0.0,0.0,0.0,0.0,0.0,0.0,0.0,0.0
2025/05/06 15:20:17.906228628,1746537617,904998120,mA1/imu,0.7805411530955706,-0.6251037677305229,-0.0006022966018910604,0.000652021583043383,0.0,0.0,0.0,0.0,0.0,0.0,0.0,0.0,0.0,-0.00021581171739081827,-0.0024108573886043095,-0.0069842852407295255,0.0,0.0,0.0,0.0,0.0,0.0,0.0,0.0,0.0,0.013920219582844156,0.06370963867559792,9.815099788679628,0.0,0.0,0.0,0.0,0.0,0.0,0.0,0.0,0.0
2025/05/06 15:20:17.957410952,1746537617,956216687,mA1/imu,0.7806505925800155,-0.6249670447861739,-0.0006687615989528746,0.0006308673640202751,0.0,0.0,0.0,0.0,0.0,0.0,0.0,0.0,0.0,-0.000906077034603493,-0.0014775721157442902,-0.007602484807324447,0.0,0.0,0.0,0.0,0.0,0.0,0.0,0.0,0.0,-0.08263463627216587,-0.4534601292864371,9.731331299227623,0.0,0.0,0.0,0.0,0.0,0.0,0.0,0.0,0.0
2025/05/06 15:20:18.9126525,1746537618,6772491,mA1/imu,0.7807669105309526,-0.624821672833062,-0.0007180133850577813,0.0006269248952909275,0.0,0.0,0.0,0.0,0.0,0.0,0.0,0.0,0.0,-0.00046082157928449416,-0.0019052029492476262,-0.007340436907782111,0.0,0.0,0.0,0.0,0.0,0.0,0.0,0.0,0.0,0.014567821782250885,0.06117503560482307,9.81422827811322,0.0,0.0,0.0,0.0,0.0,0.0,0.0,0.0,0.0
2025/05/06 15:20:18.59280898,1746537618,57762632,mA1/imu,0.7808791906825676,-0.6246812868370855,-0.0007761541114195946,0.0006140189708007458,0.0,0.0,0.0,0.0,0.0,0.0,0.0,0.0,0.0,-0.0013779079201885105,-0.0023643715623303083,-0.007090275955390324,0.0,0.0,0.0,0.0,0.0,0.0,0.0,0.0,0.0,0.013402806138871064,0.524160113868261,9.813946117441086,0.0,0.0,0.0,0.0,0.0,0.0,0.0,0.0,0.0
2025/05/06 15:20:18.108030106,1746537618,107494168,mA1/imu,0.7809876160460014,-0.6245456881520126,-0.0008299948420681736,0.000581465454326382,0.0,0.0,0.0,0.0,0.0,0.0,0.0,0.0,0.0,-0.00023628767730066643,-0.0024665392803585634,-0.00685474510692218,0.0,0.0,0.0,0.0,0.0,0.0,0.0,0.0,0.0,-0.0022788360010060366,-0.29855065233244893,9.809514427674594,0.0,0.0,0.0,0.0,0.0,0.0,0.0,0.0,0.0
2025/05/06 15:20:18.159094653,1746537618,158437933,mA1/imu,0.7811103381783969,-0.6243921512662363,-0.0008610449081203462,0.00058277750315422,0.0,0.0,0.0,0.0,0.0,0.0,0.0,0.0,0.0,0.00021526740830988037,-0.0011045238071949381,-0.0077468204531634674,0.0,0.0,0.0,0.0,0.0,0.0,0.0,0.0,0.0,0.013437266578061598,-0.3585066470585727,9.813530584905857,0.0,0.0,0.0,0.0,0.0,0.0,0.0,0.0,0.0
2025/05/06 15:20:18.209588419,1746537618,208982417,mA1/imu,0.7812286736262694,-0.6242440378698516,-0.0008987164629964961,0.0005770587513355328,0.0,0.0,0.0,0.0,0.0,0.0,0.0,0.0,0.0,-0.00011063857312873067,-0.0014554215693031237,-0.00747632236715705,0.0,0.0,0.0,0.0,0.0,0.0,0.0,0.0,0.0,0.014496643648857784,0.02038716790337535,9.813121059981981,0.0,0.0,0.0,0.0,0.0,0.0,0.0,0.0,0.0
2025/05/06 15:20:18.259750357,1746537618,259379083,mA1/imu,0.7813429926628926,-0.6241009278902725,-0.0009248153594178665,0.0005516698712776536,0.0,0.0,0.0,0.0,0.0,0.0,0.0,0.0,0.0,-8.72654195827963e-05,-0.0012237777099563091,-0.007238771967143513,0.0,0.0,0.0,0.0,0.0,0.0,0.0,0.0,0.0,0.013794187476321485,-0.15619741633370157,9.8126557620794,0.0,0.0,0.0,0.0,0.0,0.0,0.0,0.0,0.0
2025/05/06 15:20:18.309591143,1746537618,309188236,mA1/imu,0.7814535897003455,-0.6239624471972993,-0.0009426298978815383,0.0005129141028184733,0.0,0.0,0.0,0.0,0.0,0.0,0.0,0.0,0.0,0.00044706878647443154,-0.0018601434120760101,-0.007004858570590664,0.0,0.0,0.0,0.0,0.0,0.0,0.0,0.0,0.0,0.03619392645136608,-0.018657020748760238,9.813849803464212,0.0,0.0,0.0,0.0,0.0,0.0,0.0,0.0,0.0
2025/05/06 15:20:18.362021284,1746537618,360297978,mA1/imu,0.7815668938762054,-0.6238205231941255,-0.0009548253588827298,0.00048326704994424574,0.0,0.0,0.0,0.0,0.0,0.0,0.0,0.0,0.0,-0.0005649703774787458,8.265515850809589e-05,-0.007736350251041055,0.0,0.0,0.0,0.0,0.0,0.0,0.0,0.0,0.0,0.0036425027239623048,-0.05206785620028562,9.814361878224261,0.0,0.0,0.0,0.0,0.0,0.0,0.0,0.0,0.0
2025/05/06 15:20:18.411866923,1746537618,411105087,mA1/imu,0.7816857218759918,-0.6236716219682537,-0.0009558374138538181,0.00047596379645071336,0.0,0.0,0.0,0.0,0.0,0.0,0.0,0.0,0.0,0.0005088607400595734,-0.00030366160744947407,-0.0075501204153194815,0.0,0.0,0.0,0.0,0.0,0.0,0.0,0.0,0.0,0.03785798276017362,-0.23913152390435652,9.812694856002475,0.0,0.0,0.0,0.0,0.0,0.0,0.0,0.0,0.0
2025/05/06 15:20:18.465590370,1746537618,462129029,mA1/imu,0.781802957197993,-0.6235246539240017,-0.0009599745518134837,0.0004695894879236561,0.0,0.0,0.0,0.0,0.0,0.0,0.0,0.0,0.0,-0.00019031931862200686,8.954374491385276e-05,-0.007571209545541226,0.0,0.0,0.0,0.0,0.0,0.0,0.0,0.0,0.0,-0.02242972971475813,-0.4942147009321385,9.810257582936261,0.0,0.0,0.0,0.0,0.0,0.0,0.0,0.0,0.0
2025/05/06 15:20:18.512415071,1746537618,511857084,mA1/imu,0.7819192616473477,-0.6233788212888373,-0.0009530686189048787,0.000452872624628444,0.0,0.0,0.0,0.0,0.0,0.0,0.0,0.0,0.0,0.00047562666569612153,-0.0001679802289149842,-0.007398390258223431,0.0,0.0,0.0,0.0,0.0,0.0,0.0,0.0,0.0,0.013040012749884412,-0.011045597997660667,9.811026285039102,0.0,0.0,0.0,0.0,0.0,0.0,0.0,0.0,0.0
2025/05/06 15:20:18.565989729,1746537618,562845577,mA1/imu,0.7820330414212575,-0.6232360893247558,-0.0009512821113296568,0.0004406256316867655,0.0,0.0,0.0,0.0,0.0,0.0,0.0,0.0,0.0,0.0005034978487993307,-0.0005338261607415718,-0.007225367624272298,0.0,0.0,0.0,0.0,0.0,0.0,0.0,0.0,0.0,0.020774593867232655,-0.01946616045484643,9.811322058941862,0.0,0.0,0.0,0.0,0.0,0.0,0.0,0.0,0.0
2025/05/06 15:20:18.613823272,1746537618,613126770,mA1/imu,0.7821540413675053,-0.6230842390252312,-0.0009380762123998422,0.0004546029556303675,0.0,0.0,0.0,0.0,0.0,0.0,0.0,0.0,0.0,-0.002060190558272006,0.0009069934198497905,-0.007830384143689023,0.0,0.0,0.0,0.0,0.0,0.0,0.0,0.0,0.0,0.03695448649446209,0.5128659091382692,9.816149570926866,0.0,0.0,0.0,0.0,0.0,0.0,0.0,0.0,0.0
2025/05/06 15:20:18.665835282,1746537618,663992671,mA1/imu,0.782274195309779,-0.6229334034704531,-0.0009212550164887259,0.0004576924185644102,0.0,0.0,0.0,0.0,0.0,0.0,0.0,0.0,0.0,-7.158821553539953e-05,0.0005464033372475773,-0.007643772407421897,0.0,0.0,0.0,0.0,0.0,0.0,0.0,0.0,0.0,0.015842375972797737,-0.03319358893671174,9.816374710190678,0.0,0.0,0.0,0.0,0.0,0.0,0.0,0.0,0.0
2025/05/06 15:20:18.714592999,1746537618,713971687,mA1/imu,0.782391586403567,-0.6227859728744347,-0.0009099088995107043,0.0004578007737243565,0.0,0.0,0.0,0.0,0.0,0.0,0.0,0.0,0.0,0.0007705266696419877,0.00034606760956117495,-0.007470914103036384,0.0,0.0,0.0,0.0,0.0,0.0,0.0,0.0,0.0,0.03644247050822295,-0.5794293958793562,9.81657703556165,0.0,0.0,0.0,0.0,0.0,0.0,0.0,0.0,0.0
2025/05/06 15:20:18.765980874,1746537618,765285830,mA1/imu,0.7825060647183615,-0.6226421578008251,-0.0008996474985255541,0.0004389105768220754,0.0,0.0,0.0,0.0,0.0,0.0,0.0,0.0,0.0,0.002262246560876569,-0.00032406640753731127,-0.0072804167501724516,0.0,0.0,0.0,0.0,0.0,0.0,0.0,0.0,0.0,0.03655245523533549,-0.5045740919237146,9.815782982835556,0.0,0.0,0.0,0.0,0.0,0.0,0.0,0.0,0.0
2025/05/06 15:20:18.808136806,1746537618,805194519,mA1/imu,0.7826247646036113,-0.6224929652701416,-0.0008882549164324113,0.0004438710754045235,0.0,0.0,0.0,0.0,0.0,0.0,0.0,0.0,0.0,-0.0007037131517534858,0.0008715682252624289,-0.00783405736738419,0.0,0.0,0.0,0.0,0.0,0.0,0.0,0.0,0.0,-0.06542116919505268,0.29097949008052026,9.832769051127006,0.0,0.0,0.0,0.0,0.0,0.0,0.0,0.0,0.0
2025/05/06 15:20:18.857645703,1746537618,856067126,mA1/imu,0.7827452729573379,-0.6223414359610118,-0.0008791161923888234,0.00044933689904949414,0.0,0.0,0.0,0.0,0.0,0.0,0.0,0.0,0.0,-0.0006271599584320948,0.0004211378251013985,-0.00779857039113878,0.0,0.0,0.0,0.0,0.0,0.0,0.0,0.0,0.0,0.01229887544838233,-0.09215586652569074,9.798729081789519,0.0,0.0,0.0,0.0,0.0,0.0,0.0,0.0,0.0
2025/05/06 15:20:18.906214480,1746537618,905892283,mA1/imu,0.78286440168586,-0.6221916067391617,-0.0008576836572637132,0.00044435922937409786,0.0,0.0,0.0,0.0,0.0,0.0,0.0,0.0,0.0,0.0004706951088380985,0.0006468137866188644,-0.007589186845719967,0.0,0.0,0.0,0.0,0.0,0.0,0.0,0.0,0.0,0.009312318564294715,0.006110940376767619,9.809990339391629,0.0,0.0,0.0,0.0,0.0,0.0,0.0,0.0,0.0
2025/05/06 15:20:18.959809586,1746537618,957938824,mA1/imu,0.7829807538125673,-0.6220452019234168,-0.0008422227860200864,0.0004433778727195774,0.0,0.0,0.0,0.0,0.0,0.0,0.0,0.0,0.0,0.0006918751259910729,1.3896471523555797e-05,-0.007396927468193781,0.0,0.0,0.0,0.0,0.0,0.0,0.0,0.0,0.0,0.03574834117824159,0.6684146967454464,9.815935450473743,0.0,0.0,0.0,0.0,0.0,0.0,0.0,0.0,0.0
2025/05/06 15:20:19.9859946,1746537619,8206074,mA1/imu,0.7830997154584722,-0.621895439570083,-0.0008325255654221356,0.00045253947473100707,0.0,0.0,0.0,0.0,0.0,0.0,0.0,0.0,0.0,0.00032755940511004506,0.0008419045076127839,-0.007813182050846346,0.0,0.0,0.0,0.0,0.0,0.0,0.0,0.0,0.0,0.0007014081583504739,-0.0007663896673585809,9.813290807800035,0.0,0.0,0.0,0.0,0.0,0.0,0.0,0.0,0.0
2025/05/06 15:20:19.59007426,1746537619,58601581,mA1/imu,0.783219354755642,-0.6217447624078926,-0.0008217987189164516,0.00046626320342431815,0.0,0.0,0.0,0.0,0.0,0.0,0.0,0.0,0.0,0.0003215988091849037,0.0003510554866638989,-0.007607387292847105,0.0,0.0,0.0,0.0,0.0,0.0,0.0,0.0,0.0,0.03804943284700564,0.037339262888128104,9.814665851269059,0.0,0.0,0.0,0.0,0.0,0.0,0.0,0.0,0.0
2025/05/06 15:20:19.108823113,1746537619,108572128,mA1/imu,0.783335801246086,-0.6215980552818906,-0.0008187248055830877,0.0004580890926885224,0.0,0.0,0.0,0.0,0.0,0.0,0.0,0.0,0.0,-0.0002342530206270442,0.00016133164490607734,-0.007447243217601453,0.0,0.0,0.0,0.0,0.0,0.0,0.0,0.0,0.0,-0.04774119741412891,-0.13042787520753235,9.805882713931076,0.0,0.0,0.0,0.0,0.0,0.0,0.0,0.0,0.0
2025/05/06 15:20:19.160467555,1746537619,159562995,mA1/imu,0.7834498002450813,-0.6214543765847899,-0.0008173281399526911,0.00044754247159985606,0.0,0.0,0.0,0.0,0.0,0.0,0.0,0.0,0.0,-0.0013928553026326096,0.00010629174905777664,-0.007294484712846547,0.0,0.0,0.0,0.0,0.0,0.0,0.0,0.0,0.0,-0.13446269562765914,0.261131043515968,9.81722544665215,0.0,0.0,0.0,0.0,0.0,0.0,0.0,0.0,0.0
2025/05/06 15:20:19.216097476,1746537619,212634125,mA1/imu,0.783569530663628,-0.6213034089232827,-0.0008150297198591506,0.00044766331721121384,0.0,0.0,0.0,0.0,0.0,0.0,0.0,0.0,0.0,-0.0006551208612818035,6.195798834220119e-05,-0.007755316083636071,0.0,0.0,0.0,0.0,0.0,0.0,0.0,0.0,0.0,0.003360194256931114,-0.2027128471337762,9.79096417032758,0.0,0.0,0.0,0.0,0.0,0.0,0.0,0.0,0.0
2025/05/06 15:20:19.259051609,1746537619,258704707,mA1/imu,0.7836862825009633,-0.6211561468673781,-0.000809084558832815,0.0004440843043135393,0.0,0.0,0.0,0.0,0.0,0.0,0.0,0.0,0.0,0.0010164362689656008,-6.510255820554879e-05,-0.0074269838411535494,0.0,0.0,0.0,0.0,0.0,0.0,0.0,0.0,0.0,0.03828395008169903,-0.5390080660100801,9.811141737075598,0.0,0.0,0.0,0.0,0.0,0.0,0.0,0.0,0.0
2025/05/06 15:20:19.311301785,1746537619,308556479,mA1/imu,0.7838015755734261,-0.6210106647685313,-0.0008094928052410049,0.0004348491230280882,0.0,0.0,0.0,0.0,0.0,0.0,0.0,0.0,0.0,0.0008011534361824181,-0.00027459380509712683,-0.007394934221263424,0.0,0.0,0.0,0.0,0.0,0.0,0.0,0.0,0.0,0.016480748930718044,0.0776673471074349,9.80426728813777,0.0,0.0,0.0,0.0,0.0,0.0,0.0,0.0,0.0
2025/05/06 15:20:19.360486598,1746537619,359475364,mA1/imu,0.7839145362381671,-0.620868060245478,-0.0008162669070835997,0.0004305227676405438,0.0,0.0,0.0,0.0,0.0,0.0,0.0,0.0,0.0,-0.0005679463893960445,-0.0007244985254515682,-0.007179472740258119,0.0,0.0,0.0,0.0,0.0,0.0,0.0,0.0,0.0,0.030475993530660807,0.5891539106547555,9.810161786088372,0.0,0.0,0.0,0.0,0.0,0.0,0.0,0.0,0.0
2025/05/06 15:20:19.412085805,1746537619,410867337,mA1/imu,0.784024320255412,-0.6207294153827415,-0.0008271167567632188,0.00041713847791801766,0.0,0.0,0.0,0.0,0.0,0.0,0.0,0.0,0.0,-0.00044611857748743907,-0.0006310293022468485,-0.007001056826698177,0.0,0.0,0.0,0.0,0.0,0.0,0.0,0.0,0.0,-0.04301564206716574,-0.13950330030576122,9.801619429397961,0.0,0.0,0.0,0.0,0.0,0.0,0.0,0.0,0.0
2025/05/06 15:20:19.465528130,1746537619,463292823,mA1/imu,0.7841308094531367,-0.6205948912370941,-0.0008375135122235465,0.00039141781404296246,0.0,0.0,0.0,0.0,0.0,0.0,0.0,0.0,0.0,0.0012211735572393698,-0.0009552465722534551,-0.006785423079557053,0.0,0.0,0.0,0.0,0.0,0.0,0.0,0.0,0.0,0.03630834021739467,-0.5480239089883959,9.810204666127513,0.0,0.0,0.0,0.0,0.0,0.0,0.0,0.0,0.0
2025/05/06 15:20:19.513157454,1746537619,512828697,mA1/imu,0.7842339137558961,-0.6204645926886838,-0.0008533109115165043,0.00035999342130599825,0.0,0.0,0.0,0.0,0.0,0.0,0.0,0.0,0.0,0.0012286513479359915,-0.001459599324773487,-0.006552124816108217,0.0,0.0,0.0,0.0,0.0,0.0,0.0,0.0,0.0,0.03350920362506761,0.06638370991481486,9.811286073241238,0.0,0.0,0.0,0.0,0.0,0.0,0.0,0.0,0.0
2025/05/06 15:20:19.564865217,1746537619,563790227,mA1/imu,0.7843334485886547,-0.6203387498779677,-0.000874653605684109,0.000334373950126875,0.0,0.0,0.0,0.0,0.0,0.0,0.0,0.0,0.0,-0.0003383853163087826,-0.001525447628573759,-0.006312099958988929,0.0,0.0,0.0,0.0,0.0,0.0,0.0,0.0,0.0,0.03211817365443148,0.5888476919030995,9.810581668529657,0.0,0.0,0.0,0.0,0.0,0.0,0.0,0.0,0.0
2025/05/06 15:20:19.616413557,1746537619,613684173,mA1/imu,0.7844291211030168,-0.6202177482401442,-0.000898116724846507,0.0003035124746851161,0.0,0.0,0.0,0.0,0.0,0.0,0.0,0.0,0.0,-0.00029620540900012865,-0.0012032783603554361,-0.006088508870625255,0.0,0.0,0.0,0.0,0.0,0.0,0.0,0.0,0.0,0.009063275212274739,-0.0557186964545507,9.807432939129905,0.0,0.0,0.0,0.0,0.0,0.0,0.0,0.0,0.0
2025/05/06 15:20:19.657738509,1746537619,657457095,mA1/imu,0.7845206527297748,-0.6201019581172825,-0.0009154059693413596,0.00026270034509613915,0.0,0.0,0.0,0.0,0.0,0.0,0.0,0.0,0.0,0.0017627773182557222,-0.00175798051540674,-0.005784686739607726,0.0,0.0,0.0,0.0,0.0,0.0,0.0,0.0,0.0,0.027830162761802925,-0.5398135147884355,9.8106508561706,0.0,0.0,0.0,0.0,0.0,0.0,0.0,0.0,0.0
2025/05/06 15:20:19.705173216,1746537619,704827705,mA1/imu,0.784613023171398,-0.6199850612854781,-0.0009324573892738933,0.00024119680403370198,0.0,0.0,0.0,0.0,0.0,0.0,0.0,0.0,0.0,4.0336635818877354e-05,-0.00011933506225065887,-0.006351902695445468,0.0,0.0,0.0,0.0,0.0,0.0,0.0,0.0,0.0,0.025529469589792162,-0.14033749656538713,9.812172660037689,0.0,0.0,0.0,0.0,0.0,0.0,0.0,0.0,0.0
2025/05/06 15:20:19.758212026,1746537619,756112842,mA1/imu,0.7847082352361601,-0.6198645425367973,-0.0009377598978412213,0.00023465841624688863,0.0,0.0,0.0,0.0,0.0,0.0,0.0,0.0,0.0,-0.0011841332701882914,-0.0004505441610142847,-0.006007069826647744,0.0,0.0,0.0,0.0,0.0,0.0,0.0,0.0,0.0,0.025868131402744445,0.5633412484213205,9.814374164091497,0.0,0.0,0.0,0.0,0.0,0.0,0.0,0.0,0.0
2025/05/06 15:20:19.808366619,1746537619,805974941,mA1/imu,0.7847986904252576,-0.6197500027944248,-0.0009448900923430445,0.00023817183858249654,0.0,0.0,0.0,0.0,0.0,0.0,0.0,0.0,0.0,-0.0015039053965987068,-0.00023925796907265932,-0.005699515283243071,0.0,0.0,0.0,0.0,0.0,0.0,0.0,0.0,0.0,0.022657182266792433,0.5432938944718595,9.81391699977898,0.0,0.0,0.0,0.0,0.0,0.0,0.0,0.0,0.0
2025/05/06 15:20:19.857432790,1746537619,856902203,mA1/imu,0.7848836526849087,-0.6196423959327474,-0.0009491506022882189,0.00022808738305845618,0.0,0.0,0.0,0.0,0.0,0.0,0.0,0.0,0.0,0.0003881943170646579,-0.0004567474242504124,-0.005342986746002876,0.0,0.0,0.0,0.0,0.0,0.0,0.0,0.0,0.0,0.022449450751157236,-0.6073087298362367,9.814566682149891,0.0,0.0,0.0,0.0,0.0,0.0,0.0,0.0,0.0
2025/05/06 15:20:19.907212572,1746537619,906778786,mA1/imu,0.7849631673447593,-0.6195416706811292,-0.0009495719871229499,0.00020619107613461217,0.0,0.0,0.0,0.0,0.0,0.0,0.0,0.0,0.0,0.002012356601413317,-0.0006030577341143876,-0.004991984546770362,0.0,0.0,0.0,0.0,0.0,0.0,0.0,0.0,0.0,0.019161015358096764,-0.5118872518260162,9.814488657568052,0.0,0.0,0.0,0.0,0.0,0.0,0.0,0.0,0.0
2025/05/06 15:20:19.958786437,1746537619,957768851,mA1/imu,0.7850370406625184,-0.619448061055921,-0.0009536066739757207,0.00018728642899446923,0.0,0.0,0.0,0.0,0.0,0.0,0.0,0.0,0.0,0.00043803608939279725,-0.0005851046731896853,-0.004625318491105196,0.0,0.0,0.0,0.0,0.0,0.0,0.0,0.0,0.0,0.018068086867942763,0.6311711190140306,9.815969422361007,0.0,0.0,0.0,0.0,0.0,0.0,0.0,0.0,0.0
2025/05/06 15:20:20.9222234,1746537620,8338275,mA1/imu,0.7851052916829153,-0.6193615550576705,-0.0009571900467089607,0.00016992717007298586,0.0,0.0,0.0,0.0,0.0,0.0,0.0,0.0,0.0,-0.0005130819935347695,-0.00048394357014632373,-0.0042582215470221745,0.0,0.0,0.0,0.0,0.0,0.0,0.0,0.0,0.0,0.015348537378889183,0.5130835921423447,9.814770152101056,0.0,0.0,0.0,0.0,0.0,0.0,0.0,0.0,0.0
2025/05/06 15:20:20.60355709,1746537620,59872289,mA1/imu,0.7851677357987006,-0.6192824075239007,-0.0009511820101885987,0.00014712214939760547,0.0,0.0,0.0,0.0,0.0,0.0,0.0,0.0,0.0,0.0009307398671816016,-0.0002892762036388878,-0.003885001635256189,0.0,0.0,0.0,0.0,0.0,0.0,0.0,0.0,0.0,0.014682426345462901,-0.6122828710892889,9.813984252700044,0.0,0.0,0.0,0.0,0.0,0.0,0.0,0.0,0.0
2025/05/06 15:20:20.111415262,1746537620,109937711,mA1/imu,0.78522444982386,-0.6192105221978995,-0.0009367496722878572,0.00012287502809142946,0.0,0.0,0.0,0.0,0.0,0.0,0.0,0.0,0.0,0.002385247378440486,-3.4526739380123636e-05,-0.003510696163189746,0.0,0.0,0.0,0.0,0.0,0.0,0.0,0.0,0.0,0.011888906816592574,-0.5164171724038814,9.812827767642846,0.0,0.0,0.0,0.0,0.0,0.0,0.0,0.0,0.0
2025/05/06 15:20:20.165581027,1746537620,161339049,mA1/imu,0.7852903260534403,-0.6191269951923823,-0.0009233481806452653,0.00012271540431353493,0.0,0.0,0.0,0.0,0.0,0.0,0.0,0.0,0.0,-0.0005935411841134756,0.00020323053327650408,-0.007089228526058764,0.0,0.0,0.0,0.0,0.0,0.0,0.0,0.0,0.0,-0.10983371074888251,-0.5951538486643266,9.952451447822545,0.0,0.0,0.0,0.0,0.0,0.0,0.0,0.0,0.0
2025/05/06 15:20:20.212471322,1746537620,211515640,mA1/imu,0.7854041806838075,-0.6189825134038729,-0.0009515886979409398,0.00012467385932459342,0.0,0.0,0.0,0.0,0.0,0.0,0.0,0.0,0.0,-0.0006565610730582533,-0.0007675868051805736,-0.007150800467966041,0.0,0.0,0.0,0.0,0.0,0.0,0.0,0.0,0.0,0.015882075499944616,0.3267917753574542,9.809508842020811,0.0,0.0,0.0,0.0,0.0,0.0,0.0,0.0,0.0
2025/05/06 15:20:20.263254471,1746537620,262549613,mA1/imu,0.7855097677355038,-0.6188484791438417,-0.0009736991097495973,0.00012869931005273796,0.0,0.0,0.0,0.0,0.0,0.0,0.0,0.0,0.0,-0.001497406306550688,-0.0004694216018803035,-0.006610123277274249,0.0,0.0,0.0,0.0,0.0,0.0,0.0,0.0,0.0,0.013176191058579917,0.36814736737206066,9.804382245899799,0.0,0.0,0.0,0.0,0.0,0.0,0.0,0.0,0.0
2025/05/06 15:20:20.312514217,1746537620,312286136,mA1/imu,0.7856070959880785,-0.6187249006126232,-0.0009851891541027375,0.00013227776810643217,0.0,0.0,0.0,0.0,0.0,0.0,0.0,0.0,0.0,-0.0010960847651364399,-0.00012831294978086588,-0.006077259486717824,0.0,0.0,0.0,0.0,0.0,0.0,0.0,0.0,0.0,0.011169025780844026,0.5694834997803336,9.802326825496248,0.0,0.0,0.0,0.0,0.0,0.0,0.0,0.0,0.0
2025/05/06 15:20:20.356527438,1746537620,355772492,mA1/imu,0.7856960212957792,-0.618611970965835,-0.0009861929683318267,0.00013755426945014407,0.0,0.0,0.0,0.0,0.0,0.0,0.0,0.0,0.0,3.9467904763759694e-05,0.00025616677876020254,-0.005533257240942131,0.0,0.0,0.0,0.0,0.0,0.0,0.0,0.0,0.0,0.01048499311340738,-0.38496419127569537,9.7976366346663,0.0,0.0,0.0,0.0,0.0,0.0,0.0,0.0,0.0
2025/05/06 15:20:20.407242079,1746537620,406319150,mA1/imu,0.7857769114181551,-0.6185092286948161,-0.0009786271803402706,0.00014761548178795158,0.0,0.0,0.0,0.0,0.0,0.0,0.0,0.0,0.0,-0.0001556639305166435,0.0006175249795839074,-0.005078085878315577,0.0,0.0,0.0,0.0,0.0,0.0,0.0,0.0,0.0,0.017122985484852873,0.027454001922946315,9.795927329714186,0.0,0.0,0.0,0.0,0.0,0.0,0.0,0.0,0.0
2025/05/06 15:20:20.462061574,1746537620,457345544,mA1/imu,0.7858539616435628,-0.6184113511748196,-0.0009630949222889989,0.00015542014717623157,0.0,0.0,0.0,0.0,0.0,0.0,0.0,0.0,0.0,0.00014445515431413895,0.0007271531564942657,-0.004919287805836452,0.0,0.0,0.0,0.0,0.0,0.0,0.0,0.0,0.0,0.017401682467044016,0.08570794262919142,9.79482938026541,0.0,0.0,0.0,0.0,0.0,0.0,0.0,0.0,0.0
2025/05/06 15:20:20.508162895,1746537620,507362961,mA1/imu,0.7859286111702617,-0.6183165093507713,-0.0009417688292584457,0.00015962372344334214,0.0,0.0,0.0,0.0,0.0,0.0,0.0,0.0,0.0,0.0008113773237353592,0.0007963618943081439,-0.004767863675154846,0.0,0.0,0.0,0.0,0.0,0.0,0.0,0.0,0.0,0.017606035574745597,0.04572156028117887,9.795601544150237,0.0,0.0,0.0,0.0,0.0,0.0,0.0,0.0,0.0
2025/05/06 15:20:20.559604548,1746537620,558250560,mA1/imu,0.7860012167980449,-0.6182242468935386,-0.0009175618453653451,0.00016070211553996706,0.0,0.0,0.0,0.0,0.0,0.0,0.0,0.0,0.0,-0.0003893198795298008,0.0007796907607513064,-0.004649748017319242,0.0,0.0,0.0,0.0,0.0,0.0,0.0,0.0,0.0,0.019446762235933647,0.2071723396669504,9.798277493769964,0.0,0.0,0.0,0.0,0.0,0.0,0.0,0.0,0.0
2025/05/06 15:20:20.609656789,1746537620,608039899,mA1/imu,0.7860720423463693,-0.6181342384639709,-0.0008858302005017261,0.00015094644861930886,0.0,0.0,0.0,0.0,0.0,0.0,0.0,0.0,0.0,0.000202832799755017,0.0007570577738950576,-0.004535840121011677,0.0,0.0,0.0,0.0,0.0,0.0,0.0,0.0,0.0,0.018532220530426517,0.20345333603234003,9.796794440112222,0.0,0.0,0.0,0.0,0.0,0.0,0.0,0.0,0.0
2025/05/06 15:20:20.660581375,1746537620,660242433,mA1/imu,0.7861415068199427,-0.6180459357384346,-0.0008561721519124039,0.00013979026787441627,0.0,0.0,0.0,0.0,0.0,0.0,0.0,0.0,0.0,0.0012055734770861238,0.0006027234567358678,-0.004465920333029758,0.0,0.0,0.0,0.0,0.0,0.0,0.0,0.0,0.0,0.021025260559834016,0.48017828608207413,9.801139153417042,0.0,0.0,0.0,0.0,0.0,0.0,0.0,0.0,0.0
2025/05/06 15:20:20.714630408,1746537620,710795227,mA1/imu,0.7862099177143687,-0.6179589433048792,-0.0008323369830870605,0.00012997010922892932,0.0,0.0,0.0,0.0,0.0,0.0,0.0,0.0,0.0,0.0015136504740069189,0.0004287012648517152,-0.004406846440099073,0.0,0.0,0.0,0.0,0.0,0.0,0.0,0.0,0.0,0.0233137219506071,-0.576327362203142,9.802275197383517,0.0,0.0,0.0,0.0,0.0,0.0,0.0,0.0,0.0
2025/05/06 15:20:20.762876129,1746537620,761314880,mA1/imu,0.7862777735720992,-0.6178726381471524,-0.000808417495678354,0.00011080042263502608,0.0,0.0,0.0,0.0,0.0,0.0,0.0,0.0,0.0,-0.00032845016917892146,0.0001851819439902569,-0.004382298866970314,0.0,0.0,0.0,0.0,0.0,0.0,0.0,0.0,0.0,0.0234896825389379,0.5512385361015066,9.808088346087684,0.0,0.0,0.0,0.0,0.0,0.0,0.0,0.0,0.0
2025/05/06 15:20:20.812522431,1746537620,812060219,mA1/imu,0.7863453314253758,-0.617786681107484,-0.0007924966639230895,9.132772585627584e-05,0.0,0.0,0.0,0.0,0.0,0.0,0.0,0.0,0.0,0.0008546683119495764,-0.00010462625415192764,-0.004375776788590264,0.0,0.0,0.0,0.0,0.0,0.0,0.0,0.0,0.0,0.025400987528039952,0.008633109731838538,9.811419933871399,0.0,0.0,0.0,0.0,0.0,0.0,0.0,0.0,0.0
2025/05/06 15:20:20.863862819,1746537620,863027228,mA1/imu,0.7864130429294852,-0.6177005026382253,-0.0007814434188540371,6.555192464187252e-05,0.0,0.0,0.0,0.0,0.0,0.0,0.0,0.0,0.0,0.002426689755644382,-0.0004014146850555135,-0.004390830886043087,0.0,0.0,0.0,0.0,0.0,0.0,0.0,0.0,0.0,0.023829030966271675,-0.5005763889252516,9.814805023633076,0.0,0.0,0.0,0.0,0.0,0.0,0.0,0.0,0.0
2025/05/06 15:20:20.913059821,1746537620,912810073,mA1/imu,0.786480985553258,-0.6176139861933257,-0.0007878932852095318,5.1436732838895985e-05,0.0,0.0,0.0,0.0,0.0,0.0,0.0,0.0,0.0,0.0008109800938286351,-0.0006713744395615952,-0.00441355907338992,0.0,0.0,0.0,0.0,0.0,0.0,0.0,0.0,0.0,0.02676325247319304,-0.6015923969433362,9.81718148424217,0.0,0.0,0.0,0.0,0.0,0.0,0.0,0.0,0.0
2025/05/06 15:20:20.966709947,1746537620,965928127,mA1/imu,0.786549623417022,-0.6175265747024307,-0.000786871901659819,1.647527938601032e-05,0.0,0.0,0.0,0.0,0.0,0.0,0.0,0.0,0.0,0.00034245117153047967,-0.0009202472726702112,-0.004468453629437919,0.0,0.0,0.0,0.0,0.0,0.0,0.0,0.0,0.0,0.02538811065180735,0.011267134045017833,9.82104481769908,0.0,0.0,0.0,0.0,0.0,0.0,0.0,0.0,0.0
2025/05/06 15:20:21.6113849,1746537621,5775438,mA1/imu,0.7866191134381517,-0.6174380309795903,-0.0008051476548450297,-3.328139737813422e-06,0.0,0.0,0.0,0.0,0.0,0.0,0.0,0.0,0.0,0.0005298338297457148,-0.0011539797405079753,-0.004529739972710742,0.0,0.0,0.0,0.0,0.0,0.0,0.0,0.0,0.0,0.0281970890077137,0.4977330287338318,9.824648710010493,0.0,0.0,0.0,0.0,0.0,0.0,0.0,0.0,0.0
2025/05/06 15:20:21.60372323,1746537621,60011910,mA1/imu,0.7866897746961092,-0.6173479584500635,-0.0008344213739986936,-1.8085747388365755e-05,0.0,0.0,0.0,0.0,0.0,0.0,0.0,0.0,0.0,-0.001033950246260061,-0.001356367576569778,-0.004612946372946492,0.0,0.0,0.0,0.0,0.0,0.0,0.0,0.0,0.0,0.02676550426547852,0.5847183955706352,9.825843985030884,0.0,0.0,0.0,0.0,0.0,0.0,0.0,0.0,0.0
2025/05/06 15:20:21.110574386,1746537621,110060598,mA1/imu,0.7867617466383534,-0.6172561828144116,-0.0008705649532466221,-3.0341576065181152e-05,0.0,0.0,0.0,0.0,0.0,0.0,0.0,0.0,0.0,-0.0012196064556463616,-0.0014947529524359628,-0.004706446149952042,0.0,0.0,0.0,0.0,0.0,0.0,0.0,0.0,0.0,0.028720993355073707,-0.036130377338119996,9.824921510570256,0.0,0.0,0.0,0.0,0.0,0.0,0.0,0.0,0.0
2025/05/06 15:20:21.163237190,1746537621,161062942,mA1/imu,0.7868353509354447,-0.6171623029083141,-0.000905525470850997,-4.910013921109431e-05,0.0,0.0,0.0,0.0,0.0,0.0,0.0,0.0,0.0,0.00029445622345551615,-0.0015831188568265213,-0.004815679699932619,0.0,0.0,0.0,0.0,0.0,0.0,0.0,0.0,0.0,0.027463825469710205,-0.4933754212561472,9.822212543531585,0.0,0.0,0.0,0.0,0.0,0.0,0.0,0.0,0.0
