time,header_stamp_secs,header_stamp_nsecs,header_frame_id,orientation_x,orientation_y,orientation_z,orientation_w,orientation_covariance_0,orientation_covariance_1,orientation_covariance_2,orientation_covariance_3,orientation_covariance_4,orientation_covariance_5,orientation_covariance_6,orientation_covariance_7,orientation_covariance_8,angular_velocity_x,angular_velocity_y,angular_velocity_z,angular_velocity_covariance_0,angular_velocity_covariance_1,angular_velocity_covariance_2,angular_velocity_covariance_3,angular_velocity_covariance_4,angular_velocity_covariance_5,angular_velocity_covariance_6,angular_velocity_covariance_7,angular_velocity_covariance_8,linear_acceleration_x,linear_acceleration_y,linear_acceleration_z,linear_acceleration_covariance_0,linear_acceleration_covariance_1,linear_acceleration_covariance_2,linear_acceleration_covariance_3,linear_acceleration_covariance_4,linear_acceleration_covariance_5,linear_acceleration_covariance_6,linear_acceleration_covariance_7,linear_acceleration_covariance_8
2025/05/25 19:00:06.667367889,1748192406,624296796,mA1/imu,0.29707047000438896,-0.9548551401300943,-0.0008800599920029949,-0.00015070806166889302,0.0,0.0,0.0,0.0,0.0,0.0,0.0,0.0,0.0,0.0006799987526671828,-8.061119825176985e-05,6.814449473729535e-06,0.0,0.0,0.0,0.0,0.0,0.0,0.0,0.0,0.0,0.008268308057549677,0.0323928190860556,9.809797293614396,0.0,0.0,0.0,0.0,0.0,0.0,0.0,0.0,0.0
2025/05/25 19:00:06.670924531,1748192406,665601299,mA1/imu,0.29707030809167495,-0.9548551851915789,-0.0008858038264565,-0.00015071381492534714,0.0,0.0,0.0,0.0,0.0,0.0,0.0,0.0,0.0,-0.0009136519830742893,-6.383683340874855e-05,6.702043982816034e-06,0.0,0.0,0.0,0.0,0.0,0.0,0.0,0.0,0.0,0.007933499173000695,0.553437850218374,9.811102897099854,0.0,0.0,0.0,0.0,0.0,0.0,0.0,0.0,0.0
2025/05/25 19:00:06.720077879,1748192406,716590211,mA1/imu,0.2970701481848904,-0.9548552304754292,-0.0008906097381527412,-0.00015068316691661593,0.0,0.0,0.0,0.0,0.0,0.0,0.0,0.0,0.0,-0.000760081703946893,-4.546181475317483e-05,6.640074508526114e-06,0.0,0.0,0.0,0.0,0.0,0.0,0.0,0.0,0.0,0.007449173713643849,-0.06349064188317786,9.810180476873047,0.0,0.0,0.0,0.0,0.0,0.0,0.0,0.0,0.0
2025/05/25 19:00:06.772065474,1748192406,771808701,mA1/imu,0.2970699890126534,-0.9548552825951065,-0.0008874618666549799,-0.000152773284660562,0.0,0.0,0.0,0.0,0.0,0.0,0.0,0.0,0.0,0.000842653971038551,-3.617227555290596e-05,6.594869875047767e-06,0.0,0.0,0.0,0.0,0.0,0.0,0.0,0.0,0.0,0.007744617333258905,-0.5851427568372273,9.808680736266043,0.0,0.0,0.0,0.0,0.0,0.0,0.0,0.0,0.0
2025/05/25 19:00:06.821467445,1748192406,820991454,mA1/imu,0.29706983206835286,-0.9548553338296049,-0.0008845940061153298,-0.00015435504232530494,0.0,0.0,0.0,0.0,0.0,0.0,0.0,0.0,0.0,0.0007148793089674469,-2.4454710248976657e-05,6.504759969759445e-06,0.0,0.0,0.0,0.0,0.0,0.0,0.0,0.0,0.0,0.00823729830630096,0.03234370466731437,9.809909766892563,0.0,0.0,0.0,0.0,0.0,0.0,0.0,0.0,0.0
2025/05/25 19:00:06.866998351,1748192406,866509441,mA1/imu,0.2970696785664385,-0.9548553777574404,-0.0008889225556505605,-0.00015316924875263506,0.0,0.0,0.0,0.0,0.0,0.0,0.0,0.0,0.0,-0.0008696327816004379,2.182181290469802e-06,6.407480120639989e-06,0.0,0.0,0.0,0.0,0.0,0.0,0.0,0.0,0.0,0.007916738836680441,0.5536773312948888,9.811227952813926,0.0,0.0,0.0,0.0,0.0,0.0,0.0,0.0,0.0
2025/05/25 19:00:06.917498196,1748192406,917307528,mA1/imu,0.2970695269584276,-0.9548554221431895,-0.0008921395901773734,-0.00015180052305792922,0.0,0.0,0.0,0.0,0.0,0.0,0.0,0.0,0.0,-0.0007148622554838607,2.6713163032769366e-05,6.353386299314598e-06,0.0,0.0,0.0,0.0,0.0,0.0,0.0,0.0,0.0,0.007432026481825062,-0.063382228569492,9.810298044780023,0.0,0.0,0.0,0.0,0.0,0.0,0.0,0.0,0.0
2025/05/25 19:00:06.968685308,1748192406,968544392,mA1/imu,0.2970693760718033,-0.9548554734200714,-0.0008873695257493479,-0.000152497101843939,0.0,0.0,0.0,0.0,0.0,0.0,0.0,0.0,0.0,0.0008879436805812576,3.591181820267739e-05,6.306336379061002e-06,0.0,0.0,0.0,0.0,0.0,0.0,0.0,0.0,0.0,0.007780303589107498,-0.585121292568498,9.808779234276983,0.0,0.0,0.0,0.0,0.0,0.0,0.0,0.0,0.0
2025/05/25 19:00:07.18957239,1748192407,18461928,mA1/imu,0.29706922747676257,-0.954855523743448,-0.0008829141390217226,-0.0001527272352143856,0.0,0.0,0.0,0.0,0.0,0.0,0.0,0.0,0.0,0.0007586922171996655,4.4627178725853315e-05,6.2113289918543055e-06,0.0,0.0,0.0,0.0,0.0,0.0,0.0,0.0,0.0,0.008259046559343569,0.032345454993310485,9.809993805962364,0.0,0.0,0.0,0.0,0.0,0.0,0.0,0.0,0.0
2025/05/25 19:00:07.69933092,1748192407,69637609,mA1/imu,0.29706908240378177,-0.9548555666299317,-0.0008857553654018708,-0.0001503098132359684,0.0,0.0,0.0,0.0,0.0,0.0,0.0,0.0,0.0,-0.0008288853310529314,6.351674002971195e-05,6.1029566567367e-06,0.0,0.0,0.0,0.0,0.0,0.0,0.0,0.0,0.0,0.007961326738394305,0.5536834302873512,9.811271781186164,0.0,0.0,0.0,0.0,0.0,0.0,0.0,0.0,0.0
2025/05/25 19:00:07.119730556,1748192407,119491619,mA1/imu,0.2970689393223105,-0.954855609754893,-0.0008876567445400668,-0.00014790210524979742,0.0,0.0,0.0,0.0,0.0,0.0,0.0,0.0,0.0,-0.0006789466081793089,7.75173897636902e-05,6.035247737990331e-06,0.0,0.0,0.0,0.0,0.0,0.0,0.0,0.0,0.0,0.007483964544095641,-0.0633771229455744,9.810317881863927,0.0,0.0,0.0,0.0,0.0,0.0,0.0,0.0,0.0
2025/05/25 19:00:07.170708129,1748192407,170394646,mA1/imu,0.2970687971116069,-0.9548556592948344,-0.0008819643734803593,-0.00014776377775691302,0.0,0.0,0.0,0.0,0.0,0.0,0.0,0.0,0.0,0.0009108231209848331,7.3303120474692e-05,5.973391763502632e-06,0.0,0.0,0.0,0.0,0.0,0.0,0.0,0.0,0.0,0.007827868810688452,-0.5855780321079211,9.80876106420049,0.0,0.0,0.0,0.0,0.0,0.0,0.0,0.0,0.0
2025/05/25 19:00:07.220411802,1748192407,220247631,mA1/imu,0.297068657246256,-0.9548557076104964,-0.0008767988923863024,-0.00014747632739147153,0.0,0.0,0.0,0.0,0.0,0.0,0.0,0.0,0.0,0.0007779223705645919,6.629795832643305e-05,5.862343130647401e-06,0.0,0.0,0.0,0.0,0.0,0.0,0.0,0.0,0.0,0.00832658970198485,0.032151633560941514,9.809954039882024,0.0,0.0,0.0,0.0,0.0,0.0,0.0,0.0,0.0
2025/05/25 19:00:07.271376871,1748192407,271193453,mA1/imu,0.29706852090812647,-0.9548557482232999,-0.0008791902249271778,-0.0001448962677890159,0.0,0.0,0.0,0.0,0.0,0.0,0.0,0.0,0.0,-0.000816485017354613,6.822167127272466e-05,5.737822437225986e-06,0.0,0.0,0.0,0.0,0.0,0.0,0.0,0.0,0.0,0.008039436326063165,0.5536019236845741,9.811234951182897,0.0,0.0,0.0,0.0,0.0,0.0,0.0,0.0,0.0
2025/05/25 19:00:07.321290428,1748192407,321000421,mA1/imu,0.2970683865882614,-0.9548557887214015,-0.0008809517463426993,-0.0001426853112566002,0.0,0.0,0.0,0.0,0.0,0.0,0.0,0.0,0.0,-0.0006747280011889775,6.49940473828069e-05,5.655312081030688e-06,0.0,0.0,0.0,0.0,0.0,0.0,0.0,0.0,0.0,0.007539051684496744,-0.06342402841989953,9.810252532804057,0.0,0.0,0.0,0.0,0.0,0.0,0.0,0.0,0.0
2025/05/25 19:00:07.372420982,1748192407,372184329,mA1/imu,0.2970682531232153,-0.9548558353944196,-0.0008752806306554105,-0.00014312010281504407,0.0,0.0,0.0,0.0,0.0,0.0,0.0,0.0,0.0,0.0009131174199766243,4.487277547702475e-05,5.582019402992142e-06,0.0,0.0,0.0,0.0,0.0,0.0,0.0,0.0,0.0,0.00787411300185787,-0.5851553780370933,9.808654819586799,0.0,0.0,0.0,0.0,0.0,0.0,0.0,0.0,0.0
2025/05/25 19:00:07.422528478,1748192407,422321823,mA1/imu,0.2970681219318318,-0.9548558804811547,-0.0008705176897459792,-0.00014367116958003356,0.0,0.0,0.0,0.0,0.0,0.0,0.0,0.0,0.0,0.0007678127914466678,2.4097933388345025e-05,5.463823451336215e-06,0.0,0.0,0.0,0.0,0.0,0.0,0.0,0.0,0.0,0.00837165443145282,0.03232794642099606,9.809856275598797,0.0,0.0,0.0,0.0,0.0,0.0,0.0,0.0,0.0
2025/05/25 19:00:07.473426327,1748192407,473283762,mA1/imu,0.2970672120183823,-0.9548561606633117,-0.0008738097784226235,-0.00014298047547200193,0.0,0.0,0.0,0.0,0.0,0.0,0.0,0.0,0.0,-0.0008217543068829825,-4.720951319301393e-05,8.714905143262657e-05,0.0,0.0,0.0,0.0,0.0,0.0,0.0,0.0,0.0,0.009572139617767674,0.5578164636278582,9.811355615675593,0.0,0.0,0.0,0.0,0.0,0.0,0.0,0.0,0.0
2025/05/25 19:00:07.523366777,1748192407,523167135,mA1/imu,0.2970632042897152,-0.9548574047744169,-0.0008765257377807691,-0.0001445933027832902,0.0,0.0,0.0,0.0,0.0,0.0,0.0,0.0,0.0,-0.0006527574282457444,-0.00011563185384055245,0.0002209176920432232,0.0,0.0,0.0,0.0,0.0,0.0,0.0,0.0,0.0,0.009073250350607041,-0.059459622809596956,9.810363954537493,0.0,0.0,0.0,0.0,0.0,0.0,0.0,0.0,0.0
2025/05/25 19:00:07.575000796,1748192407,574206312,mA1/imu,0.29705606303639037,-0.9548596298907585,-0.0008717553557505266,-0.00015053505764603503,0.0,0.0,0.0,0.0,0.0,0.0,0.0,0.0,0.0,0.0009529628535124316,-0.00019700416708967643,0.0003502853758488488,0.0,0.0,0.0,0.0,0.0,0.0,0.0,0.0,0.0,0.009935192002273642,-0.5823343531176606,9.808353888512075,0.0,0.0,0.0,0.0,0.0,0.0,0.0,0.0,0.0
2025/05/25 19:00:07.615093645,1748192407,614821403,mA1/imu,0.29704590078875653,-0.9548627937550734,-0.0008677621640865276,-0.00015784701122425698,0.0,0.0,0.0,0.0,0.0,0.0,0.0,0.0,0.0,0.00082270350488644,-0.00026217173105235755,0.00047515654904716875,0.0,0.0,0.0,0.0,0.0,0.0,0.0,0.0,0.0,0.010417053268411818,0.03503001681137739,9.809587666189637,0.0,0.0,0.0,0.0,0.0,0.0,0.0,0.0,0.0
2025/05/25 19:00:07.666977465,1748192407,666780572,mA1/imu,0.29703283924451807,-0.9548668534492519,-0.0008704327654789384,-0.0001641373387581362,0.0,0.0,0.0,0.0,0.0,0.0,0.0,0.0,0.0,-0.0007325924478526853,-0.000283392447685446,0.0005944987025349987,0.0,0.0,0.0,0.0,0.0,0.0,0.0,0.0,0.0,0.009269557231220703,0.5593386071793917,9.811210234610584,0.0,0.0,0.0,0.0,0.0,0.0,0.0,0.0,0.0
2025/05/25 19:00:07.718041788,1748192407,717706691,mA1/imu,0.29701696099403,-0.9548717890024008,-0.0008730491695246843,-0.0001709806216155216,0.0,0.0,0.0,0.0,0.0,0.0,0.0,0.0,0.0,-0.000601366830850201,-0.00028914012471182346,0.0007111520861486701,0.0,0.0,0.0,0.0,0.0,0.0,0.0,0.0,0.0,0.00877840370397466,-0.05895115573290756,9.810354950866673,0.0,0.0,0.0,0.0,0.0,0.0,0.0,0.0,0.0
2025/05/25 19:00:07.768924364,1748192407,768638620,mA1/imu,0.29699835488108145,-0.9548775787352162,-0.0008685188400879174,-0.00018028235301703597,0.0,0.0,0.0,0.0,0.0,0.0,0.0,0.0,0.0,0.00097151807461917,-0.0003013452253725351,0.0008238335782436465,0.0,0.0,0.0,0.0,0.0,0.0,0.0,0.0,0.0,0.009640525040878548,-0.5824210969830705,9.808437514036978,0.0,0.0,0.0,0.0,0.0,0.0,0.0,0.0,0.0
2025/05/25 19:00:07.818757230,1748192407,818591544,mA1/imu,0.29697711275580313,-0.9548841869494133,-0.0008650200391290318,-0.00018908600282961785,0.0,0.0,0.0,0.0,0.0,0.0,0.0,0.0,0.0,0.0008098646995237675,-0.0002972185751475475,0.0009328726363475447,0.0,0.0,0.0,0.0,0.0,0.0,0.0,0.0,0.0,0.010150175871971506,0.03472771465779554,9.809549071031626,0.0,0.0,0.0,0.0,0.0,0.0,0.0,0.0,0.0
2025/05/25 19:00:07.870179612,1748192407,869756853,mA1/imu,0.296953325328862,-0.9548915796085254,-0.0008693976812322721,-0.00019472169467653152,0.0,0.0,0.0,0.0,0.0,0.0,0.0,0.0,0.0,-0.0008041363470357734,-0.0002540652188615768,0.0010380343897340093,0.0,0.0,0.0,0.0,0.0,0.0,0.0,0.0,0.0,0.009192993317514254,0.556998239110512,9.811322209344876,0.0,0.0,0.0,0.0,0.0,0.0,0.0,0.0,0.0
2025/05/25 19:00:07.919629256,1748192407,919481479,mA1/imu,0.2969270738721551,-0.9548997383704793,-0.0008733221405649288,-0.00019942454480570914,0.0,0.0,0.0,0.0,0.0,0.0,0.0,0.0,0.0,-0.0006807926148557675,-0.0001993883796970036,0.001140002767624421,0.0,0.0,0.0,0.0,0.0,0.0,0.0,0.0,0.0,0.00870206458084128,-0.06012455294207451,9.81048635000046,0.0,0.0,0.0,0.0,0.0,0.0,0.0,0.0,0.0
2025/05/25 19:00:07.970927200,1748192407,970660557,mA1/imu,0.29689854126295384,-0.9549086121631425,-0.0008698523199665858,-0.00020486466926336095,0.0,0.0,0.0,0.0,0.0,0.0,0.0,0.0,0.0,0.0008798019166739588,-0.00013100239672903075,0.0012169422767679653,0.0,0.0,0.0,0.0,0.0,0.0,0.0,0.0,0.0,0.010956729511102362,-0.5845978724576153,9.808743805045802,0.0,0.0,0.0,0.0,0.0,0.0,0.0,0.0,0.0
2025/05/25 19:00:08.20729993,1748192408,20509433,mA1/imu,0.29686962511779824,-0.9549176035195026,-0.0008675569513122997,-0.000208604707571275,0.0,0.0,0.0,0.0,0.0,0.0,0.0,0.0,0.0,0.000696223113919238,-0.00011052833109361132,0.0012072496502258962,0.0,0.0,0.0,0.0,0.0,0.0,0.0,0.0,0.0,0.011310437802372697,0.03292217396620045,9.809904532074226,0.0,0.0,0.0,0.0,0.0,0.0,0.0,0.0,0.0
2025/05/25 19:00:08.72613248,1748192408,72364637,mA1/imu,0.2968409175808237,-0.9549265222610862,-0.0008735888330427955,-0.00020874547274609963,0.0,0.0,0.0,0.0,0.0,0.0,0.0,0.0,0.0,-0.0009399259000306741,-5.502368648835652e-05,0.0011993162636905364,0.0,0.0,0.0,0.0,0.0,0.0,0.0,0.0,0.0,0.010046472561585997,0.5549208418886258,9.811233228309268,0.0,0.0,0.0,0.0,0.0,0.0,0.0,0.0,0.0
2025/05/25 19:00:08.122628709,1748192408,122493442,mA1/imu,0.2968123872856806,-0.9549353854776769,-0.0008794040413706696,-0.00020727978127714264,0.0,0.0,0.0,0.0,0.0,0.0,0.0,0.0,0.0,-0.0008329610067578081,1.9603163280136125e-05,0.001192592918333485,0.0,0.0,0.0,0.0,0.0,0.0,0.0,0.0,0.0,0.009421418737514032,-0.06212087703594306,9.810324219945777,0.0,0.0,0.0,0.0,0.0,0.0,0.0,0.0,0.0
2025/05/25 19:00:08.173774992,1748192408,173437463,mA1/imu,0.2967840070530759,-0.9549442077114167,-0.0008779488478368278,-0.0002062080381404719,0.0,0.0,0.0,0.0,0.0,0.0,0.0,0.0,0.0,0.0007240509000187997,8.984993081738104e-05,0.001186629508914213,0.0,0.0,0.0,0.0,0.0,0.0,0.0,0.0,0.0,0.009409943988130012,-0.5845202385426779,9.808764425129272,0.0,0.0,0.0,0.0,0.0,0.0,0.0,0.0,0.0
2025/05/25 19:00:08.223692061,1748192408,223277873,mA1/imu,0.2967557516762056,-0.9549529900055157,-0.0008772768976449685,-0.00020276059936153977,0.0,0.0,0.0,0.0,0.0,0.0,0.0,0.0,0.0,0.0005555108116782702,0.00016487087282529737,0.0011816980725155033,0.0,0.0,0.0,0.0,0.0,0.0,0.0,0.0,0.0,0.009838345118536186,0.032908974299915315,9.809955543639896,0.0,0.0,0.0,0.0,0.0,0.0,0.0,0.0,0.0
2025/05/25 19:00:08.275115185,1748192408,274334489,mA1/imu,0.29672759495545653,-0.9549617346708356,-0.0008841597958048823,-0.00019485346959468926,0.0,0.0,0.0,0.0,0.0,0.0,0.0,0.0,0.0,-0.001058464801195807,0.0002509668051998985,0.00117832006222616,0.0,0.0,0.0,0.0,0.0,0.0,0.0,0.0,0.0,0.009138179281827346,0.5548927119373712,9.811263347704877,0.0,0.0,0.0,0.0,0.0,0.0,0.0,0.0,0.0
2025/05/25 19:00:08.316016631,1748192408,314102801,mA1/imu,0.2966995077906811,-0.9549704578673961,-0.0008901391929213529,-0.0001852822741116342,0.0,0.0,0.0,0.0,0.0,0.0,0.0,0.0,0.0,-0.0009235649685512908,0.0003260846068070672,0.0011761101844334975,0.0,0.0,0.0,0.0,0.0,0.0,0.0,0.0,0.0,0.008549469005372855,-0.062473761977342404,9.810290954438855,0.0,0.0,0.0,0.0,0.0,0.0,0.0,0.0,0.0
2025/05/25 19:00:08.365278885,1748192408,365057382,mA1/imu,0.29667146361909597,-0.9549791740909985,-0.0008879689908934151,-0.00017674175797164731,0.0,0.0,0.0,0.0,0.0,0.0,0.0,0.0,0.0,0.000689207828586498,0.00037127274636491537,0.001174509858536365,0.0,0.0,0.0,0.0,0.0,0.0,0.0,0.0,0.0,0.008916122537699168,-0.5828710455356135,9.808699073282714,0.0,0.0,0.0,0.0,0.0,0.0,0.0,0.0,0.0
2025/05/25 19:00:08.415493424,1748192408,415336135,mA1/imu,0.2966434402254428,-0.9549878829403827,-0.0008859597744772217,-0.00016698364621478158,0.0,0.0,0.0,0.0,0.0,0.0,0.0,0.0,0.0,0.0005403394279524507,0.00040318203504767914,0.0011738926607980907,0.0,0.0,0.0,0.0,0.0,0.0,0.0,0.0,0.0,0.009384201238242773,0.03353917487494236,9.80996242792872,0.0,0.0,0.0,0.0,0.0,0.0,0.0,0.0,0.0
2025/05/25 19:00:08.466523578,1748192408,466338333,mA1/imu,0.29661540830662547,-0.9549965870954176,-0.0008912966557272594,-0.00015421241844839416,0.0,0.0,0.0,0.0,0.0,0.0,0.0,0.0,0.0,-0.0010455959495633644,0.0004308023639579725,0.0011749632085758762,0.0,0.0,0.0,0.0,0.0,0.0,0.0,0.0,0.0,0.00868393205886148,0.5551101046257791,9.811138991307518,0.0,0.0,0.0,0.0,0.0,0.0,0.0,0.0,0.0
2025/05/25 19:00:08.516684720,1748192408,516552750,mA1/imu,0.29658734241880313,-0.9550053017458965,-0.000895506007815022,-0.00014150325402408553,0.0,0.0,0.0,0.0,0.0,0.0,0.0,0.0,0.0,-0.0008816262724467092,0.00044002628988325514,0.0011769698577306393,0.0,0.0,0.0,0.0,0.0,0.0,0.0,0.0,0.0,0.008103746416616632,-0.06216507227185164,9.810138501825618,0.0,0.0,0.0,0.0,0.0,0.0,0.0,0.0,0.0
2025/05/25 19:00:08.568133456,1748192408,567612003,mA1/imu,0.2965592228390877,-0.9550140391408045,-0.0008916625434297597,-0.00013164706883904754,0.0,0.0,0.0,0.0,0.0,0.0,0.0,0.0,0.0,0.0007348065519529621,0.00041094433529930465,0.001179259680602093,0.0,0.0,0.0,0.0,0.0,0.0,0.0,0.0,0.0,0.008683300375219638,-0.5846856287807413,9.808691225453785,0.0,0.0,0.0,0.0,0.0,0.0,0.0,0.0,0.0
2025/05/25 19:00:08.617490510,1748192408,617311569,mA1/imu,0.2965314867178327,-0.9550226560058569,-0.000888174258710901,-0.00012266587343749393,0.0,0.0,0.0,0.0,0.0,0.0,0.0,0.0,0.0,0.000609220564379449,0.00034858174241912253,0.0011189427810130036,0.0,0.0,0.0,0.0,0.0,0.0,0.0,0.0,0.0,0.01024447859315918,0.02829827929227725,9.809427537562366,0.0,0.0,0.0,0.0,0.0,0.0,0.0,0.0,0.0
2025/05/25 19:00:08.668548176,1748192408,668283366,mA1/imu,0.2965068874206396,-0.9550302906173456,-0.0008927080982267272,-0.00011308281998944776,0.0,0.0,0.0,0.0,0.0,0.0,0.0,0.0,0.0,-0.0009797816251256183,0.00027862839257539906,0.000971605579070156,0.0,0.0,0.0,0.0,0.0,0.0,0.0,0.0,0.0,0.008945276965654593,0.5513267839715276,9.811469307709995,0.0,0.0,0.0,0.0,0.0,0.0,0.0,0.0,0.0
2025/05/25 19:00:08.718380796,1748192408,718220600,mA1/imu,0.2964857695415145,-0.9550368435879562,-0.0008970277748160478,-0.00010578327336824967,0.0,0.0,0.0,0.0,0.0,0.0,0.0,0.0,0.0,-0.0008250847189068053,0.00019936943773975516,0.0008277746886529364,0.0,0.0,0.0,0.0,0.0,0.0,0.0,0.0,0.0,0.008325441940401704,-0.06558094765780176,9.81048169870306,0.0,0.0,0.0,0.0,0.0,0.0,0.0,0.0,0.0
2025/05/25 19:00:08.769541373,1748192408,769248306,mA1/imu,0.2964684090138595,-0.9550422355214538,-0.0008944757545578169,-0.00010363445126653474,0.0,0.0,0.0,0.0,0.0,0.0,0.0,0.0,0.0,0.0007521626629591536,-4.668578397282328e-06,0.0006108614620261909,0.0,0.0,0.0,0.0,0.0,0.0,0.0,0.0,0.0,0.02373036536196963,-0.6000666620682646,9.807441199277624,0.0,0.0,0.0,0.0,0.0,0.0,0.0,0.0,0.0
2025/05/25 19:00:08.823715565,1748192408,822262256,mA1/imu,0.29645997176216693,-0.955044852373302,-0.0008961646828731898,-0.00010948467652807203,0.0,0.0,0.0,0.0,0.0,0.0,0.0,0.0,0.0,0.0005865399087377374,-0.00031903129728702746,0.00025784126377219666,0.0,0.0,0.0,0.0,0.0,0.0,0.0,0.0,0.0,0.009358405776411045,0.029517323377077853,9.809447793295512,0.0,0.0,0.0,0.0,0.0,0.0,0.0,0.0,0.0
2025/05/25 19:00:08.873697239,1748192408,873549398,mA1/imu,0.29645555532626755,-0.9550462135513283,-0.0009057471783116425,-0.00011541019827478947,0.0,0.0,0.0,0.0,0.0,0.0,0.0,0.0,0.0,-0.0009794489079621403,-0.00036031027821352684,0.00013596404498675862,0.0,0.0,0.0,0.0,0.0,0.0,0.0,0.0,0.0,0.008096232123699055,0.5522887727038777,9.8114204604434,0.0,0.0,0.0,0.0,0.0,0.0,0.0,0.0,0.0
2025/05/25 19:00:08.923660897,1748192408,923294824,mA1/imu,0.2964540107119212,-0.9550466840452458,-0.0009141883969313788,-0.00012282740490287446,0.0,0.0,0.0,0.0,0.0,0.0,0.0,0.0,0.0,-0.0007977897447972969,-0.0003891707617821961,1.7531692491914298e-05,0.0,0.0,0.0,0.0,0.0,0.0,0.0,0.0,0.0,0.007607119837256513,-0.0648421399039803,9.810535729079199,0.0,0.0,0.0,0.0,0.0,0.0,0.0,0.0,0.0
2025/05/25 19:00:08.966077487,1748192408,965824196,mA1/imu,0.296455273197294,-0.955046290555837,-0.0009143503355586565,-0.0001336133132328306,0.0,0.0,0.0,0.0,0.0,0.0,0.0,0.0,0.0,0.0008314944674522933,-0.00042061777464566465,-9.98092417274072e-05,0.0,0.0,0.0,0.0,0.0,0.0,0.0,0.0,0.0,0.008938563710629906,-0.5882246678380205,9.808384830059163,0.0,0.0,0.0,0.0,0.0,0.0,0.0,0.0,0.0
2025/05/25 19:00:09.16267777,1748192409,15866989,mA1/imu,0.29645930147320654,-0.9550450382798501,-0.0009146167534728089,-0.00014457957126582445,0.0,0.0,0.0,0.0,0.0,0.0,0.0,0.0,0.0,0.0006566327921692869,-0.0004260266605252485,-0.0002154056204898115,0.0,0.0,0.0,0.0,0.0,0.0,0.0,0.0,0.0,0.009279280745125707,0.05535826158957647,9.809570985225426,0.0,0.0,0.0,0.0,0.0,0.0,0.0,0.0,0.0
2025/05/25 19:00:09.67275804,1748192409,66747990,mA1/imu,0.29646587248720496,-0.9550429901203876,-0.0009220408474190432,-0.00015268590407407326,0.0,0.0,0.0,0.0,0.0,0.0,0.0,0.0,0.0,-0.0008486200910317468,-0.0003850291330617258,-0.0002964447604981168,0.0,0.0,0.0,0.0,0.0,0.0,0.0,0.0,0.0,0.00809159743773559,0.5541202946455532,9.811127731245113,0.0,0.0,0.0,0.0,0.0,0.0,0.0,0.0,0.0
2025/05/25 19:00:09.116921706,1748192409,116669668,mA1/imu,0.2964723432088817,-0.9550409761372922,-0.0009262034145210939,-0.00016049360704357393,0.0,0.0,0.0,0.0,0.0,0.0,0.0,0.0,0.0,-0.0006093586131301925,-0.00031402527210145975,-0.00025511265973497704,0.0,0.0,0.0,0.0,0.0,0.0,0.0,0.0,0.0,0.007597298774632128,-0.062018328471622974,9.810344221205119,0.0,0.0,0.0,0.0,0.0,0.0,0.0,0.0,0.0
2025/05/25 19:00:09.167923168,1748192409,167694343,mA1/imu,0.296478715287462,-0.9550390033650951,-0.0009189876214489635,-0.00016998427506086615,0.0,0.0,0.0,0.0,0.0,0.0,0.0,0.0,0.0,0.0011766018966694932,-0.00025041637310815174,-0.00030477960835450504,0.0,0.0,0.0,0.0,0.0,0.0,0.0,0.0,0.0,0.008807802095853348,-0.5794688430098286,9.808510046774323,0.0,0.0,0.0,0.0,0.0,0.0,0.0,0.0,0.0
2025/05/25 19:00:09.217976738,1748192409,217689983,mA1/imu,0.2964875332222904,-0.9550362703108375,-0.0009130346979777009,-0.0001772065641035782,0.0,0.0,0.0,0.0,0.0,0.0,0.0,0.0,0.0,0.0006325963102407012,-0.00018111249888185963,-0.00041276224411867016,0.0,0.0,0.0,0.0,0.0,0.0,0.0,0.0,0.0,0.009438223825199755,0.08689953091543996,9.809755555496444,0.0,0.0,0.0,0.0,0.0,0.0,0.0,0.0,0.0
2025/05/25 19:00:09.268885375,1748192409,268747524,mA1/imu,0.29649872609414996,-0.9550327904129674,-0.0009180240273453203,-0.0001785845802557058,0.0,0.0,0.0,0.0,0.0,0.0,0.0,0.0,0.0,-0.0015347867721390528,-6.90184365522942e-05,-0.0005046237165983499,0.0,0.0,0.0,0.0,0.0,0.0,0.0,0.0,0.0,0.008669981754910709,0.4888138308942111,9.810670931586893,0.0,0.0,0.0,0.0,0.0,0.0,0.0,0.0,0.0
2025/05/25 19:00:09.318929301,1748192409,318684095,mA1/imu,0.2965109504334059,-0.9550290094971784,-0.000902410975507796,-0.00018151128928118828,0.0,0.0,0.0,0.0,0.0,0.0,0.0,0.0,0.0,-9.27799730009615e-05,0.0002433144032481267,-0.0004836778187699361,0.0,0.0,0.0,0.0,0.0,0.0,0.0,0.0,0.0,-0.0025404418440962227,-0.037889834970261035,9.81106445476833,0.0,0.0,0.0,0.0,0.0,0.0,0.0,0.0,0.0
2025/05/25 19:00:09.369852940,1748192409,369627681,mA1/imu,0.29652224628012996,-0.9550255158367783,-0.000889237979213304,-0.00017554913209880815,0.0,0.0,0.0,0.0,0.0,0.0,0.0,0.0,0.0,0.0022333456757111622,0.0004745509475691072,-0.0004666258482628119,0.0,0.0,0.0,0.0,0.0,0.0,0.0,0.0,0.0,0.0028999632586945746,-0.41280901248784085,9.80975715389268,0.0,0.0,0.0,0.0,0.0,0.0,0.0,0.0,0.0
2025/05/25 19:00:09.421198096,1748192409,420980081,mA1/imu,0.29653231411572983,-0.9550223968936602,-0.000884341441834051,-0.00016142141409695578,0.0,0.0,0.0,0.0,0.0,0.0,0.0,0.0,0.0,0.0007243698148544309,0.0006532040855997758,-0.0003909368940386266,0.0,0.0,0.0,0.0,0.0,0.0,0.0,0.0,0.0,0.004809776100344845,0.0129169815928235,9.809511026006886,0.0,0.0,0.0,0.0,0.0,0.0,0.0,0.0,0.0
2025/05/25 19:00:09.472276267,1748192409,471992008,mA1/imu,0.29654111602519795,-0.955019669726342,-0.0008810907752119643,-0.0001436014080614313,0.0,0.0,0.0,0.0,0.0,0.0,0.0,0.0,0.0,-0.0008504338482957877,0.0007162237710817541,-0.0003383313919891696,0.0,0.0,0.0,0.0,0.0,0.0,0.0,0.0,0.0,0.009847241426335316,-0.09113404109346357,9.809855236816045,0.0,0.0,0.0,0.0,0.0,0.0,0.0,0.0,0.0
2025/05/25 19:00:09.522008748,1748192409,521769625,mA1/imu,0.2965486915408531,-0.9550173336903806,-0.0008655518518483205,-0.00012929159222067394,0.0,0.0,0.0,0.0,0.0,0.0,0.0,0.0,0.0,-0.000203364288150932,0.0007668429038655019,-0.0003126418644001012,0.0,0.0,0.0,0.0,0.0,0.0,0.0,0.0,0.0,0.004573877395044142,-0.3359230542610081,9.8099083424758,0.0,0.0,0.0,0.0,0.0,0.0,0.0,0.0,0.0
2025/05/25 19:00:09.573044099,1748192409,572685509,mA1/imu,0.2965557164470687,-0.9550151655640223,-0.0008532628240605074,-0.00011192784288201684,0.0,0.0,0.0,0.0,0.0,0.0,0.0,0.0,0.0,-0.00029493809597022023,0.0009007450774457973,-0.0002352402056122242,0.0,0.0,0.0,0.0,0.0,0.0,0.0,0.0,0.0,-0.01110511660364711,-0.051957959864623,9.808889659565834,0.0,0.0,0.0,0.0,0.0,0.0,0.0,0.0,0.0
2025/05/25 19:00:09.622819142,1748192409,622574627,mA1/imu,0.29655751347947135,-0.9550146304043863,-0.0008299497999267975,-8.997653111970396e-05,0.0,0.0,0.0,0.0,0.0,0.0,0.0,0.0,0.0,0.00020995617837129313,0.001160446157468778,-3.523071567552531e-05,0.0,0.0,0.0,0.0,0.0,0.0,0.0,0.0,0.0,0.006046653850515751,0.6148993222809429,9.811364370800378,0.0,0.0,0.0,0.0,0.0,0.0,0.0,0.0,0.0
2025/05/25 19:00:09.674640085,1748192409,674410326,mA1/imu,0.29655836040400435,-0.955014373181381,-0.0008257881970387532,-6.297075492357884e-05,0.0,0.0,0.0,0.0,0.0,0.0,0.0,0.0,0.0,0.00044185701698212684,0.0010155533597445152,-3.3745859574398784e-05,0.0,0.0,0.0,0.0,0.0,0.0,0.0,0.0,0.0,0.006607082595772473,0.006513763492898667,9.809927761048899,0.0,0.0,0.0,0.0,0.0,0.0,0.0,0.0,0.0
2025/05/25 19:00:09.714367945,1748192409,714110824,mA1/imu,0.29655915187670234,-0.9550141379049956,-0.0008148795839384741,-4.2555995393240816e-05,0.0,0.0,0.0,0.0,0.0,0.0,0.0,0.0,0.0,0.0011153606239554103,0.0008229075376779416,-3.156188509716059e-05,0.0,0.0,0.0,0.0,0.0,0.0,0.0,0.0,0.0,0.00670367976545582,-0.5730055450213122,9.80892008172138,0.0,0.0,0.0,0.0,0.0,0.0,0.0,0.0,0.0
2025/05/25 19:00:09.765696025,1748192409,765331050,mA1/imu,0.29656001581525354,-0.9550138719646355,-0.0008128633951932313,-2.505737161724597e-05,0.0,0.0,0.0,0.0,0.0,0.0,0.0,0.0,0.0,0.0012967894034774752,0.0005854400419114267,-5.4250581389316305e-05,0.0,0.0,0.0,0.0,0.0,0.0,0.0,0.0,0.0,0.006915599855423517,-0.5590581187550755,9.808236249277414,0.0,0.0,0.0,0.0,0.0,0.0,0.0,0.0,0.0
2025/05/25 19:00:09.816548365,1748192409,815466319,mA1/imu,0.2965621424508132,-0.9550132161998139,-0.0008076613215225148,-1.5226981735024702e-05,0.0,0.0,0.0,0.0,0.0,0.0,0.0,0.0,0.0,-0.0006238426267005379,0.00032967964819369033,-9.294798728398645e-05,0.0,0.0,0.0,0.0,0.0,0.0,0.0,0.0,0.0,0.007815742539472306,0.570871654412284,9.810730191812668,0.0,0.0,0.0,0.0,0.0,0.0,0.0,0.0,0.0
2025/05/25 19:00:09.867881826,1748192409,867437307,mA1/imu,0.2965643334495521,-0.9550125300607901,-0.0008145367287016882,-9.079055485859558e-06,0.0,0.0,0.0,0.0,0.0,0.0,0.0,0.0,0.0,-0.00098524164602756,3.447075135221323e-05,-9.054844818123454e-05,0.0,0.0,0.0,0.0,0.0,0.0,0.0,0.0,0.0,0.007822741256928271,-0.07717290360317403,9.809701285455438,0.0,0.0,0.0,0.0,0.0,0.0,0.0,0.0,0.0
2025/05/25 19:00:09.917587024,1748192409,917424159,mA1/imu,0.2965664481902084,-0.9550118715239125,-0.0008166455883754668,-1.209219688923867e-05,0.0,0.0,0.0,0.0,0.0,0.0,0.0,0.0,0.0,-0.0012700330988253755,-0.00024730543166596574,-8.741226135210583e-05,0.0,0.0,0.0,0.0,0.0,0.0,0.0,0.0,0.0,0.007024826098304167,-0.0907387346466043,9.8102179053643,0.0,0.0,0.0,0.0,0.0,0.0,0.0,0.0,0.0
2025/05/25 19:00:09.968578604,1748192409,968398289,mA1/imu,0.29656859236766786,-0.955011202716161,-0.0008198865788370259,-2.2219122118465295e-05,0.0,0.0,0.0,0.0,0.0,0.0,0.0,0.0,0.0,-0.00022535471429856616,-0.0005272763964169057,-0.00010708700136796317,0.0,0.0,0.0,0.0,0.0,0.0,0.0,0.0,0.0,0.006779722798261193,-0.01981502700200597,9.80973068038604,0.0,0.0,0.0,0.0,0.0,0.0,0.0,0.0,0.0
2025/05/25 19:00:10.18640671,1748192410,18245048,mA1/imu,0.2965723746404997,-0.9550100172971813,-0.0008319679711643906,-3.5936437551049405e-05,0.0,0.0,0.0,0.0,0.0,0.0,0.0,0.0,0.0,-0.0003096160795360708,-0.0007565127352441692,-0.0001708896115510489,0.0,0.0,0.0,0.0,0.0,0.0,0.0,0.0,0.0,0.006944542992115604,-0.01908705243343786,9.810159231736463,0.0,0.0,0.0,0.0,0.0,0.0,0.0,0.0,0.0
2025/05/25 19:00:10.69526887,1748192410,69312721,mA1/imu,0.2965763814983097,-0.9550087600606585,-0.0008456794065446133,-5.45079260902406e-05,0.0,0.0,0.0,0.0,0.0,0.0,0.0,0.0,0.0,-0.0003001278251955276,-0.0009432585711553467,-0.00016727004621598068,0.0,0.0,0.0,0.0,0.0,0.0,0.0,0.0,0.0,0.0068314513572997025,-0.017057660484916144,9.809900784160028,0.0,0.0,0.0,0.0,0.0,0.0,0.0,0.0,0.0
2025/05/25 19:00:10.119303743,1748192410,119145805,mA1/imu,0.29658031210323094,-0.9550075270870696,-0.0008576966746630397,-7.769301460209125e-05,0.0,0.0,0.0,0.0,0.0,0.0,0.0,0.0,0.0,-0.00018608681460445157,-0.0010744813958812611,-0.00016433657368610652,0.0,0.0,0.0,0.0,0.0,0.0,0.0,0.0,0.0,0.006580993465112494,-0.008817296140153835,9.810419467458658,0.0,0.0,0.0,0.0,0.0,0.0,0.0,0.0,0.0
2025/05/25 19:00:10.170582682,1748192410,170124513,mA1/imu,0.296584253570417,-0.9550062920856689,-0.0008670353799096668,-0.0001042137742453785,0.0,0.0,0.0,0.0,0.0,0.0,0.0,0.0,0.0,0.0006698615949055684,-0.0011579783066058968,-0.0001807133112189081,0.0,0.0,0.0,0.0,0.0,0.0,0.0,0.0,0.0,0.009737014572167654,0.05232780987721573,9.811206640497481,0.0,0.0,0.0,0.0,0.0,0.0,0.0,0.0,0.0
2025/05/25 19:00:10.220130524,1748192410,219945277,mA1/imu,0.2965894553768945,-0.9550046566982443,-0.0008852383022461433,-0.00013037274956233724,0.0,0.0,0.0,0.0,0.0,0.0,0.0,0.0,0.0,0.0008242385948196708,-0.0012284006185454884,-0.0002255561477071814,0.0,0.0,0.0,0.0,0.0,0.0,0.0,0.0,0.0,0.006213477779101921,0.055777873707365526,9.810127888139286,0.0,0.0,0.0,0.0,0.0,0.0,0.0,0.0,0.0
2025/05/25 19:00:10.271498159,1748192410,271253425,mA1/imu,0.29659477207550267,-0.9550029843830456,-0.0009040027478673351,-0.0001541946459120877,0.0,0.0,0.0,0.0,0.0,0.0,0.0,0.0,0.0,-0.00020836654285689364,-0.0009912152365137209,-0.0002266566547541856,0.0,0.0,0.0,0.0,0.0,0.0,0.0,0.0,0.0,-0.00758388513309401,-0.017396574549242726,9.809866340652974,0.0,0.0,0.0,0.0,0.0,0.0,0.0,0.0,0.0
2025/05/25 19:00:10.321876537,1748192410,321414982,mA1/imu,0.29660051588711367,-0.9550011906009693,-0.0009118373113153582,-0.00016875706483270898,0.0,0.0,0.0,0.0,0.0,0.0,0.0,0.0,0.0,-0.00013458685625298368,-0.0004186193835522973,-0.00025025620258692637,0.0,0.0,0.0,0.0,0.0,0.0,0.0,0.0,0.0,-0.007194235622672461,-0.014142523568459076,9.810344767528726,0.0,0.0,0.0,0.0,0.0,0.0,0.0,0.0,0.0
2025/05/25 19:00:10.372669939,1748192410,372485139,mA1/imu,0.29660677431009597,-0.9549992431313005,-0.0009155605561550771,-0.00016970819396902587,0.0,0.0,0.0,0.0,0.0,0.0,0.0,0.0,0.0,-0.0001229568078290436,0.0001331974009392274,-0.00026236054600716966,0.0,0.0,0.0,0.0,0.0,0.0,0.0,0.0,0.0,-0.004644209358466659,-0.01401122367391782,9.809718622757405,0.0,0.0,0.0,0.0,0.0,0.0,0.0,0.0,0.0
2025/05/25 19:00:10.422536546,1748192410,422218968,mA1/imu,0.2966113068276206,-0.9549978353255254,-0.0009180006186367488,-0.00015639832485972655,0.0,0.0,0.0,0.0,0.0,0.0,0.0,0.0,0.0,-0.000225074123523017,0.0007787852017723373,-8.746869496761215e-05,0.0,0.0,0.0,0.0,0.0,0.0,0.0,0.0,0.0,-0.016986931784231045,-0.024417337561992502,9.809690926804079,0.0,0.0,0.0,0.0,0.0,0.0,0.0,0.0,0.0
2025/05/25 19:00:10.474694206,1748192410,473318687,mA1/imu,0.29660893356492796,-0.9549985858430278,-0.0009088162853926185,-0.0001249810091499084,0.0,0.0,0.0,0.0,0.0,0.0,0.0,0.0,0.0,-0.0018908295068871905,0.0016358303393961336,0.00019455273848662495,0.0,0.0,0.0,0.0,0.0,0.0,0.0,0.0,0.0,-0.007190973950638133,0.47738741567097903,9.810176511509582,0.0,0.0,0.0,0.0,0.0,0.0,0.0,0.0,0.0
2025/05/25 19:00:10.523377684,1748192410,523124917,mA1/imu,0.29660191290772003,-0.9550007838245484,-0.0008955792585555481,-7.804979616246778e-05,0.0,0.0,0.0,0.0,0.0,0.0,0.0,0.0,0.0,-0.0006163280256359439,0.0022273543420947097,0.00041730106582826875,0.0,0.0,0.0,0.0,0.0,0.0,0.0,0.0,0.0,-0.018397463408164512,-0.057240507289330916,9.81131188642098,0.0,0.0,0.0,0.0,0.0,0.0,0.0,0.0,0.0
2025/05/25 19:00:10.574925283,1748192410,574630144,mA1/imu,0.29659001597976664,-0.9550045038525653,-0.000871467978572124,-2.420742760180552e-05,0.0,0.0,0.0,0.0,0.0,0.0,0.0,0.0,0.0,0.00096036322943475,0.0020680806158606124,0.0003403271303728378,0.0,0.0,0.0,0.0,0.0,0.0,0.0,0.0,0.0,0.0534619397102986,-0.5981256144750956,9.806570262738875,0.0,0.0,0.0,0.0,0.0,0.0,0.0,0.0,0.0
2025/05/25 19:00:10.614684132,1748192410,614317237,mA1/imu,0.2965883153779509,-0.9550050478987134,-0.0008541136270219127,1.261575252186985e-05,0.0,0.0,0.0,0.0,0.0,0.0,0.0,0.0,0.0,0.0008242357182358876,0.0015367453173128704,4.791949344009629e-05,0.0,0.0,0.0,0.0,0.0,0.0,0.0,0.0,0.0,0.002763667228714823,0.0329188897438531,9.809640578530269,0.0,0.0,0.0,0.0,0.0,0.0,0.0,0.0,0.0
2025/05/25 19:00:10.666163162,1748192410,665767141,mA1/imu,0.2965872968195721,-0.9550053700300087,-0.0008463414631704834,4.7804112360893544e-05,0.0,0.0,0.0,0.0,0.0,0.0,0.0,0.0,0.0,-0.0008880592993663209,0.001353830974884394,4.144129916321179e-05,0.0,0.0,0.0,0.0,0.0,0.0,0.0,0.0,0.0,0.00299817670859093,0.543706094788314,9.810790786179718,0.0,0.0,0.0,0.0,0.0,0.0,0.0,0.0,0.0
2025/05/25 19:00:10.715591079,1748192410,715401012,mA1/imu,0.2965872980421188,-0.9550053786429237,-0.0008342494746379169,7.369515197982337e-05,0.0,0.0,0.0,0.0,0.0,0.0,0.0,0.0,0.0,-7.054049172027124e-05,0.0009878874492203862,-2.370069740185124e-05,0.0,0.0,0.0,0.0,0.0,0.0,0.0,0.0,0.0,0.004048586662793192,-0.029824385654167312,9.810291895114311,0.0,0.0,0.0,0.0,0.0,0.0,0.0,0.0,0.0
2025/05/25 19:00:10.766523192,1748192410,766318031,mA1/imu,0.29658909839058883,-0.9550048343851067,-0.0008157074362594212,8.739742979660197e-05,0.0,0.0,0.0,0.0,0.0,0.0,0.0,0.0,0.0,0.0011461350423244941,0.0003872570408139592,-0.00027001083316606674,0.0,0.0,0.0,0.0,0.0,0.0,0.0,0.0,0.0,0.05424570764054461,0.13448770712095615,9.814606704097598,0.0,0.0,0.0,0.0,0.0,0.0,0.0,0.0,0.0
2025/05/25 19:00:10.816904786,1748192410,816276203,mA1/imu,0.29660824195130425,-0.954998887843146,-0.0008182912423985627,7.365020830527405e-05,0.0,0.0,0.0,0.0,0.0,0.0,0.0,0.0,0.0,0.0012509185973825958,-0.000876924721034261,-0.0009210586179135044,0.0,0.0,0.0,0.0,0.0,0.0,0.0,0.0,0.0,0.0020906231311562935,0.05648784814902373,9.810256488894568,0.0,0.0,0.0,0.0,0.0,0.0,0.0,0.0,0.0
2025/05/25 19:00:10.867556324,1748192410,867290900,mA1/imu,0.2966303998826301,-0.9549920030366759,-0.0008232172080075539,4.8113378630978775e-05,0.0,0.0,0.0,0.0,0.0,0.0,0.0,0.0,0.0,0.0006331368759072745,-0.0012222627558145173,-0.0010087857884828197,0.0,0.0,0.0,0.0,0.0,0.0,0.0,0.0,0.0,0.022152105447175077,0.00030961914622779085,9.814308365529042,0.0,0.0,0.0,0.0,0.0,0.0,0.0,0.0,0.0
2025/05/25 19:00:10.917435841,1748192410,917167551,mA1/imu,0.2966588656082951,-0.9549831491857387,-0.0008378789248501988,1.3645371870919077e-05,0.0,0.0,0.0,0.0,0.0,0.0,0.0,0.0,0.0,0.0007514189451415915,-0.0015988419998975724,-0.0012586941297893204,0.0,0.0,0.0,0.0,0.0,0.0,0.0,0.0,0.0,0.0025606779206633103,-0.36447795807676375,9.808659617911855,0.0,0.0,0.0,0.0,0.0,0.0,0.0,0.0,0.0
2025/05/25 19:00:10.974058025,1748192410,973859852,mA1/imu,0.2966885452641611,-0.9549739309862346,-0.0008350954228709875,-2.9349085631793506e-05,0.0,0.0,0.0,0.0,0.0,0.0,0.0,0.0,0.0,-0.00022961632087260318,-0.0015976783024454452,-0.0012513802998337371,0.0,0.0,0.0,0.0,0.0,0.0,0.0,0.0,0.0,2.531779686560081e-05,0.16673018263498346,9.809073617136828,0.0,0.0,0.0,0.0,0.0,0.0,0.0,0.0,0.0
2025/05/25 19:00:11.24241162,1748192411,22649421,mA1/imu,0.2967196456241452,-0.9549642546098519,-0.0008483536758929305,-6.792769930675897e-05,0.0,0.0,0.0,0.0,0.0,0.0,0.0,0.0,0.0,0.00029326870819170055,-0.0016316002742816904,-0.0013116128993869423,0.0,0.0,0.0,0.0,0.0,0.0,0.0,0.0,0.0,0.0008034318394302348,0.2419933249758882,9.810809143232632,0.0,0.0,0.0,0.0,0.0,0.0,0.0,0.0,0.0
2025/05/25 19:00:11.75615092,1748192411,73724316,mA1/imu,0.29675083755338044,-0.9549545479642548,-0.0008605987927360963,-0.00010537300787512454,0.0,0.0,0.0,0.0,0.0,0.0,0.0,0.0,0.0,-3.832702266385401e-05,-0.0015954302885942268,-0.001364374463717399,0.0,0.0,0.0,0.0,0.0,0.0,0.0,0.0,0.0,0.01717567167177857,0.06304504879949356,9.809768195067232,0.0,0.0,0.0,0.0,0.0,0.0,0.0,0.0,0.0
2025/05/25 19:00:11.123829893,1748192411,123446062,mA1/imu,0.2967855076255718,-0.9549437592904754,-0.0008707988931687446,-0.0001441002915884359,0.0,0.0,0.0,0.0,0.0,0.0,0.0,0.0,0.0,9.715939923729716e-05,-0.0015138760335012009,-0.0014479978476094407,0.0,0.0,0.0,0.0,0.0,0.0,0.0,0.0,0.0,-2.3622410103068744e-05,-0.012762855545082889,9.810166905108645,0.0,0.0,0.0,0.0,0.0,0.0,0.0,0.0,0.0
2025/05/25 19:00:11.174984279,1748192411,174403228,mA1/imu,0.29681947083188104,-0.954933190006757,-0.0008793185735180708,-0.00017651472232278254,0.0,0.0,0.0,0.0,0.0,0.0,0.0,0.0,0.0,-8.532222055562783e-05,-0.0012124585388167187,-0.0014077798749747858,0.0,0.0,0.0,0.0,0.0,0.0,0.0,0.0,0.0,-9.06966391265255e-05,0.04436405920660799,9.810339119308567,0.0,0.0,0.0,0.0,0.0,0.0,0.0,0.0,0.0
2025/05/25 19:00:11.214377620,1748192411,214198457,mA1/imu,0.2968524773814383,-0.9549229209176505,-0.0008838628582276338,-0.0002014076791125004,0.0,0.0,0.0,0.0,0.0,0.0,0.0,0.0,0.0,0.0008487756518551927,-0.0008564934258861751,-0.0013671155700775775,0.0,0.0,0.0,0.0,0.0,0.0,0.0,0.0,0.0,-0.0004748030585645883,-0.5863641352049425,9.808891688756043,0.0,0.0,0.0,0.0,0.0,0.0,0.0,0.0,0.0
2025/05/25 19:00:11.266465368,1748192411,266261386,mA1/imu,0.2968849831308637,-0.9549128044798693,-0.0008922756524942871,-0.00021558278672397988,0.0,0.0,0.0,0.0,0.0,0.0,0.0,0.0,0.0,-0.0008776521566544363,-0.0005794464044605079,-0.0014243717425937007,0.0,0.0,0.0,0.0,0.0,0.0,0.0,0.0,0.0,0.01967035723845409,0.32484251877648745,9.811271938105829,0.0,0.0,0.0,0.0,0.0,0.0,0.0,0.0,0.0
2025/05/25 19:00:11.316329979,1748192411,316084633,mA1/imu,0.29692394373581266,-0.9549006855523308,-0.0008938643280905431,-0.00023102948696393735,0.0,0.0,0.0,0.0,0.0,0.0,0.0,0.0,0.0,0.0009504243140271885,-0.0005088950383894808,-0.0016723130768491244,0.0,0.0,0.0,0.0,0.0,0.0,0.0,0.0,0.0,-0.00015549800603764478,-0.5771009172774242,9.808391926579569,0.0,0.0,0.0,0.0,0.0,0.0,0.0,0.0,0.0
2025/05/25 19:00:11.367446693,1748192411,367237140,mA1/imu,0.2969632803003252,-0.9548884538599893,-0.0008911362319519979,-0.00023814778114895235,0.0,0.0,0.0,0.0,0.0,0.0,0.0,0.0,0.0,0.0007466274029288407,-6.575677385404656e-05,-0.0016514759645109998,0.0,0.0,0.0,0.0,0.0,0.0,0.0,0.0,0.0,0.00040427346673699467,0.036729940365837155,9.810101111678554,0.0,0.0,0.0,0.0,0.0,0.0,0.0,0.0,0.0
2025/05/25 19:00:11.417292249,1748192411,417041913,mA1/imu,0.29700362426733473,-0.9548759044863756,-0.0008944532142061204,-0.00023271622493042384,0.0,0.0,0.0,0.0,0.0,0.0,0.0,0.0,0.0,-0.0008978194635212454,0.0003248867814508172,-0.0016858380447325406,0.0,0.0,0.0,0.0,0.0,0.0,0.0,0.0,0.0,0.0015009355100442708,0.5572435220337161,9.810628570234666,0.0,0.0,0.0,0.0,0.0,0.0,0.0,0.0,0.0
2025/05/25 19:00:11.468993172,1748192411,468266688,mA1/imu,0.2970432786184514,-0.9548635712487866,-0.0008962120605742095,-0.00021848010671049462,0.0,0.0,0.0,0.0,0.0,0.0,0.0,0.0,0.0,-0.0008254244850213132,0.0006433177306402687,-0.0016628689879824438,0.0,0.0,0.0,0.0,0.0,0.0,0.0,0.0,0.0,0.00401348313850159,-0.0720285059210183,9.809364942260052,0.0,0.0,0.0,0.0,0.0,0.0,0.0,0.0,0.0
2025/05/25 19:00:11.518937407,1748192411,518234659,mA1/imu,0.2970831988092151,-0.954851163019166,-0.0008885438936728283,-0.00019988991892693316,0.0,0.0,0.0,0.0,0.0,0.0,0.0,0.0,0.0,0.0007626218720830089,0.0009027004340580439,-0.0016553783766186697,0.0,0.0,0.0,0.0,0.0,0.0,0.0,0.0,0.0,0.0030222702504156453,-0.5853345012793887,9.808623834202397,0.0,0.0,0.0,0.0,0.0,0.0,0.0,0.0,0.0
2025/05/25 19:00:11.569421952,1748192411,569134004,mA1/imu,0.2971221352732713,-0.9548390608604065,-0.0008796412745913492,-0.00017554799025321934,0.0,0.0,0.0,0.0,0.0,0.0,0.0,0.0,0.0,0.0006349534053163076,0.0011141097121173998,-0.0016334419137876781,0.0,0.0,0.0,0.0,0.0,0.0,0.0,0.0,0.0,0.003478092464798842,0.033422382923720045,9.81032458193094,0.0,0.0,0.0,0.0,0.0,0.0,0.0,0.0,0.0
2025/05/25 19:00:11.619376953,1748192411,619085801,mA1/imu,0.2971613909271368,-0.9548268520341097,-0.0008771254682451242,-0.0001450096363570808,0.0,0.0,0.0,0.0,0.0,0.0,0.0,0.0,0.0,-0.000954107216463694,0.0012434662795468723,-0.0016277101506064562,0.0,0.0,0.0,0.0,0.0,0.0,0.0,0.0,0.0,0.004384387810667554,0.5557777019587188,9.810936040710788,0.0,0.0,0.0,0.0,0.0,0.0,0.0,0.0,0.0
2025/05/25 19:00:11.670431969,1748192411,670130086,mA1/imu,0.2971996920735395,-0.9548149388134035,-0.0008733956348538766,-0.00011327053889524866,0.0,0.0,0.0,0.0,0.0,0.0,0.0,0.0,0.0,-0.0008211033339261205,0.0012300309887335829,-0.0016035391946998912,0.0,0.0,0.0,0.0,0.0,0.0,0.0,0.0,0.0,0.012130059288375322,-0.06928883947864811,9.809352278798992,0.0,0.0,0.0,0.0,0.0,0.0,0.0,0.0,0.0
2025/05/25 19:00:11.720527420,1748192411,719921908,mA1/imu,0.29723808885846,-0.9548029988790114,-0.0008627922876019947,-8.633009393922491e-05,0.0,0.0,0.0,0.0,0.0,0.0,0.0,0.0,0.0,0.0007797852802319204,0.001128775910781274,-0.0015918086576016638,0.0,0.0,0.0,0.0,0.0,0.0,0.0,0.0,0.0,0.00473065991588847,-0.5848668294275186,9.808953323826884,0.0,0.0,0.0,0.0,0.0,0.0,0.0,0.0,0.0
2025/05/25 19:00:11.772125241,1748192411,771725481,mA1/imu,0.29727555509628767,-0.9547913452879981,-0.000852979174019319,-6.108893036144741e-05,0.0,0.0,0.0,0.0,0.0,0.0,0.0,0.0,0.0,0.0006641702869984892,0.001041190898257618,-0.0015730633243501914,0.0,0.0,0.0,0.0,0.0,0.0,0.0,0.0,0.0,0.004897203616474063,0.03358815991214331,9.810703523366026,0.0,0.0,0.0,0.0,0.0,0.0,0.0,0.0,0.0
2025/05/25 19:00:11.822895763,1748192411,822698530,mA1/imu,0.2973133983793373,-0.9547795645698631,-0.0008513990267841328,-3.665527479603962e-05,0.0,0.0,0.0,0.0,0.0,0.0,0.0,0.0,0.0,-0.0009122093519402264,0.0008878399910761667,-0.0015698271641267389,0.0,0.0,0.0,0.0,0.0,0.0,0.0,0.0,0.0,0.005596867944320275,0.5558335212811062,9.811261772366754,0.0,0.0,0.0,0.0,0.0,0.0,0.0,0.0,0.0
2025/05/25 19:00:11.875198884,1748192411,874101665,mA1/imu,0.29735332568675693,-0.9547671307359955,-0.000851668736231388,-2.07254394223131e-05,0.0,0.0,0.0,0.0,0.0,0.0,0.0,0.0,0.0,-0.0008123505194554318,0.00027166628554130105,-0.0018498467198441628,0.0,0.0,0.0,0.0,0.0,0.0,0.0,0.0,0.0,0.029779210459272093,-0.08162193692014684,9.808779431812221,0.0,0.0,0.0,0.0,0.0,0.0,0.0,0.0,0.0
2025/05/25 19:00:11.924581299,1748192411,923840472,mA1/imu,0.29739931935570085,-0.9547528066031781,-0.0008500973516347304,-2.1554881999361747e-05,0.0,0.0,0.0,0.0,0.0,0.0,0.0,0.0,0.0,0.0007686392519220973,-9.074570243108675e-05,-0.0019039377135909726,0.0,0.0,0.0,0.0,0.0,0.0,0.0,0.0,0.0,0.004698714847965538,-0.5841585839319263,9.809192873430105,0.0,0.0,0.0,0.0,0.0,0.0,0.0,0.0,0.0
2025/05/25 19:00:11.966062144,1748192411,965815889,mA1/imu,0.2974440693658227,-0.9547388661500638,-0.0008499124807340426,-2.6652683863081697e-05,0.0,0.0,0.0,0.0,0.0,0.0,0.0,0.0,0.0,0.000663971163893605,-0.0002571484611811498,-0.0018757652613471843,0.0,0.0,0.0,0.0,0.0,0.0,0.0,0.0,0.0,0.004317623636886882,0.03393035777524077,9.810828153115693,0.0,0.0,0.0,0.0,0.0,0.0,0.0,0.0,0.0
2025/05/25 19:00:12.16783900,1748192412,16335410,mA1/imu,0.29748969322417784,-0.9547246434935253,-0.0008581364984609543,-3.366446285375799e-05,0.0,0.0,0.0,0.0,0.0,0.0,0.0,0.0,0.0,-0.0009104202924809562,-0.00042793325655908607,-0.0019058755129951175,0.0,0.0,0.0,0.0,0.0,0.0,0.0,0.0,0.0,0.00481223324415511,0.5561929241704306,9.811302139516101,0.0,0.0,0.0,0.0,0.0,0.0,0.0,0.0,0.0
2025/05/25 19:00:12.67499665,1748192412,67246232,mA1/imu,0.2975348848036351,-0.9547105526628213,-0.000866538704790549,-4.5495175128656284e-05,0.0,0.0,0.0,0.0,0.0,0.0,0.0,0.0,0.0,-0.0007775825106400905,-0.0007329187577211532,-0.001959765551345088,0.0,0.0,0.0,0.0,0.0,0.0,0.0,0.0,0.0,0.029026410491935082,-0.08195694613786159,9.80878103340678,0.0,0.0,0.0,0.0,0.0,0.0,0.0,0.0,0.0
2025/05/25 19:00:12.117438597,1748192412,117220853,mA1/imu,0.29758411981072624,-0.9546952014725679,-0.0008712533581325886,-6.956517997135374e-05,0.0,0.0,0.0,0.0,0.0,0.0,0.0,0.0,0.0,0.0008109345409880211,-0.001011560708402496,-0.002051764730508085,0.0,0.0,0.0,0.0,0.0,0.0,0.0,0.0,0.0,0.0039104070595514274,-0.5846353233697861,9.809147151385378,0.0,0.0,0.0,0.0,0.0,0.0,0.0,0.0,0.0
2025/05/25 19:00:12.168754622,1748192412,168328722,mA1/imu,0.2976330024037178,-0.9546799564134648,-0.0008761823943419607,-9.490492755585172e-05,0.0,0.0,0.0,0.0,0.0,0.0,0.0,0.0,0.0,0.0007036412377320414,-0.0010311804860067835,-0.0020765703283130016,0.0,0.0,0.0,0.0,0.0,0.0,0.0,0.0,0.0,0.0033492399009912638,0.03410628024420245,9.810666911253463,0.0,0.0,0.0,0.0,0.0,0.0,0.0,0.0,0.0
2025/05/25 19:00:12.218303541,1748192412,218132999,mA1/imu,0.2976823188251281,-0.9546645668518713,-0.0008877135883355032,-0.00011756278730964197,0.0,0.0,0.0,0.0,0.0,0.0,0.0,0.0,0.0,-0.0008406967161053186,-0.0009732117042666681,-0.002041353015144852,0.0,0.0,0.0,0.0,0.0,0.0,0.0,0.0,0.0,0.003935855100670482,0.5562010005183148,9.8111329150247,0.0,0.0,0.0,0.0,0.0,0.0,0.0,0.0,0.0
2025/05/25 19:00:12.270924300,1748192412,269114361,mA1/imu,0.2977305178966771,-0.9546495247946329,-0.000896897115267495,-0.0001381952334232485,0.0,0.0,0.0,0.0,0.0,0.0,0.0,0.0,0.0,-0.000685391169775608,-0.000814920826348403,-0.002018998693776558,0.0,0.0,0.0,0.0,0.0,0.0,0.0,0.0,0.0,0.0011639747200398367,-0.0710843555954416,9.809740941583744,0.0,0.0,0.0,0.0,0.0,0.0,0.0,0.0,0.0
2025/05/25 19:00:12.319214827,1748192412,318923993,mA1/imu,0.2977780856285097,-0.9546346855156074,-0.0008967634462409436,-0.00015730625853168235,0.0,0.0,0.0,0.0,0.0,0.0,0.0,0.0,0.0,0.0009376730583211937,-0.000676515284513501,-0.0019690235212941015,0.0,0.0,0.0,0.0,0.0,0.0,0.0,0.0,0.0,0.003727934762275193,-0.5842955715741108,9.808909845977338,0.0,0.0,0.0,0.0,0.0,0.0,0.0,0.0,0.0
2025/05/25 19:00:12.370320362,1748192412,369961813,mA1/imu,0.29782402487991977,-0.9546203533285331,-0.0008951502947409487,-0.00017297740223351214,0.0,0.0,0.0,0.0,0.0,0.0,0.0,0.0,0.0,0.0008539621563238784,-0.0005153761537820394,-0.001877078192598313,0.0,0.0,0.0,0.0,0.0,0.0,0.0,0.0,0.0,0.004119606582055254,0.041525030756961595,9.810397270180975,0.0,0.0,0.0,0.0,0.0,0.0,0.0,0.0,0.0
2025/05/25 19:00:12.419970797,1748192412,419750179,mA1/imu,0.2978658440917059,-0.9546073004299245,-0.0008985290443814368,-0.00018312559548755547,0.0,0.0,0.0,0.0,0.0,0.0,0.0,0.0,0.0,-0.0006688311466831705,-0.0003550984318146045,-0.0016705831543354045,0.0,0.0,0.0,0.0,0.0,0.0,0.0,0.0,0.0,0.004660551229219807,0.5599449935098244,9.810948869936894,0.0,0.0,0.0,0.0,0.0,0.0,0.0,0.0,0.0
2025/05/25 19:00:12.471671599,1748192412,471244176,mA1/imu,0.29790326397994105,-0.9545956212656052,-0.0008991843162909295,-0.000191411066014969,0.0,0.0,0.0,0.0,0.0,0.0,0.0,0.0,0.0,-0.0004899078966644079,-0.00031681121829489563,-0.0015154722385792053,0.0,0.0,0.0,0.0,0.0,0.0,0.0,0.0,0.0,0.010734559923317254,-0.0630609879775139,9.809596489173256,0.0,0.0,0.0,0.0,0.0,0.0,0.0,0.0,0.0
2025/05/25 19:00:12.521294904,1748192412,521072474,mA1/imu,0.29793693062039817,-0.9545851201618956,-0.0008906827382974508,-0.00020105286633845547,0.0,0.0,0.0,0.0,0.0,0.0,0.0,0.0,0.0,0.001138795903846237,-0.00022637758177572768,-0.0013322767763202655,0.0,0.0,0.0,0.0,0.0,0.0,0.0,0.0,0.0,0.0069968490992883495,-0.5824274052929297,9.80854117641512,0.0,0.0,0.0,0.0,0.0,0.0,0.0,0.0,0.0
2025/05/25 19:00:12.574477663,1748192412,572990664,mA1/imu,0.29796596763365485,-0.9545760643680163,-0.0008811244687142128,-0.00020757523671006194,0.0,0.0,0.0,0.0,0.0,0.0,0.0,0.0,0.0,0.0010330129013926851,-8.910592860219905e-05,-0.0011408946073130882,0.0,0.0,0.0,0.0,0.0,0.0,0.0,0.0,0.0,0.006591458360311976,0.040129595550209306,9.810153333590499,0.0,0.0,0.0,0.0,0.0,0.0,0.0,0.0,0.0
2025/05/25 19:00:12.623098793,1748192412,622816613,mA1/imu,0.2979905275444791,-0.9545684003219483,-0.0008779849833308597,-0.00020914810238112299,0.0,0.0,0.0,0.0,0.0,0.0,0.0,0.0,0.0,-0.0005449313866857567,3.329380919965413e-05,-0.0009557835786746237,0.0,0.0,0.0,0.0,0.0,0.0,0.0,0.0,0.0,0.007049733543887996,0.5588999613460842,9.810813006532827,0.0,0.0,0.0,0.0,0.0,0.0,0.0,0.0,0.0
2025/05/25 19:00:12.674143188,1748192412,673853886,mA1/imu,0.2980107758136789,-0.9545620833065334,-0.0008735849571608697,-0.00020847480125952205,0.0,0.0,0.0,0.0,0.0,0.0,0.0,0.0,0.0,-0.00043050044997604455,0.00011553401580954292,-0.0007780855116141878,0.0,0.0,0.0,0.0,0.0,0.0,0.0,0.0,0.0,0.009025914319111766,-0.06446986365735495,9.809386532128855,0.0,0.0,0.0,0.0,0.0,0.0,0.0,0.0,0.0
2025/05/25 19:00:12.723823640,1748192412,723699408,mA1/imu,0.29802689126851856,-0.9545570630952694,-0.0008614445429125335,-0.00020806022137503187,0.0,0.0,0.0,0.0,0.0,0.0,0.0,0.0,0.0,0.0011336893324744293,0.00018076614251333394,-0.0006074252329552942,0.0,0.0,0.0,0.0,0.0,0.0,0.0,0.0,0.0,0.008632586724430045,-0.5830184018752084,9.808452957329921,0.0,0.0,0.0,0.0,0.0,0.0,0.0,0.0,0.0
2025/05/25 19:00:12.764892046,1748192412,764598334,mA1/imu,0.2980390403080226,-0.9545532806150117,-0.0008501458832286627,-0.00020535668660124663,0.0,0.0,0.0,0.0,0.0,0.0,0.0,0.0,0.0,0.0009652084045137888,0.00026342582354244097,-0.00044408608432364676,0.0,0.0,0.0,0.0,0.0,0.0,0.0,0.0,0.0,0.007598767262432906,0.03950732034806055,9.81019663989281,0.0,0.0,0.0,0.0,0.0,0.0,0.0,0.0,0.0
2025/05/25 19:00:12.814636774,1748192412,814465386,mA1/imu,0.2980473734152574,-0.9545506829837825,-0.0008470269355036037,-0.00019839564224059399,0.0,0.0,0.0,0.0,0.0,0.0,0.0,0.0,0.0,-0.0006703770786218245,0.0003386613336482642,-0.00028637629865210703,0.0,0.0,0.0,0.0,0.0,0.0,0.0,0.0,0.0,0.007970397287050431,0.5583263696868968,9.81098583342508,0.0,0.0,0.0,0.0,0.0,0.0,0.0,0.0,0.0
2025/05/25 19:00:12.865792188,1748192412,865533739,mA1/imu,0.2980520126035511,-0.9545492385769497,-0.0008442786879430094,-0.0001900227232809933,0.0,0.0,0.0,0.0,0.0,0.0,0.0,0.0,0.0,-0.0006037455473373153,0.00036911744143943836,-0.0001332100150499707,0.0,0.0,0.0,0.0,0.0,0.0,0.0,0.0,0.0,0.009694962882292114,-0.06480004618122523,9.809598160817648,0.0,0.0,0.0,0.0,0.0,0.0,0.0,0.0,0.0
2025/05/25 19:00:12.915633647,1748192412,915411705,mA1/imu,0.2980530522399868,-0.9545489233415386,-0.000835215716685849,-0.00018279125721587072,0.0,0.0,0.0,0.0,0.0,0.0,0.0,0.0,0.0,0.0009209657617601775,0.000383381777126737,1.63092798668709e-05,0.0,0.0,0.0,0.0,0.0,0.0,0.0,0.0,0.0,0.009184952845644263,-0.5833711662637326,9.808630717384597,0.0,0.0,0.0,0.0,0.0,0.0,0.0,0.0,0.0
2025/05/25 19:00:12.966623311,1748192412,966379840,mA1/imu,0.2980505908584936,-0.9545496995484611,-0.0008282411827136894,-0.00017434846922889267,0.0,0.0,0.0,0.0,0.0,0.0,0.0,0.0,0.0,0.0007208138320360729,0.00040216162416902083,0.0001608926495341007,0.0,0.0,0.0,0.0,0.0,0.0,0.0,0.0,0.0,0.008396557869754996,0.039063077804692134,9.810458184929008,0.0,0.0,0.0,0.0,0.0,0.0,0.0,0.0,0.0
2025/05/25 19:00:13.18801571,1748192413,16942748,mA1/imu,0.29804475115068285,-0.9545515227726813,-0.0008306321544350426,-0.00016350567820998555,0.0,0.0,0.0,0.0,0.0,0.0,0.0,0.0,0.0,-0.0009337414080589822,0.0003786192300342731,0.00030048792323407323,0.0,0.0,0.0,0.0,0.0,0.0,0.0,0.0,0.0,0.009002170327858895,0.5579326164383571,9.811327857218796,0.0,0.0,0.0,0.0,0.0,0.0,0.0,0.0,0.0
2025/05/25 19:00:13.68152721,1748192413,67916771,mA1/imu,0.29803586299566903,-0.9545542978468831,-0.0008325164819460351,-0.00015409989715827567,0.0,0.0,0.0,0.0,0.0,0.0,0.0,0.0,0.0,-0.0008199771649164073,0.00035391522296831466,0.00039192173028956053,0.0,0.0,0.0,0.0,0.0,0.0,0.0,0.0,0.0,0.0026879091580075598,-0.06555530854458565,9.80991185914161,0.0,0.0,0.0,0.0,0.0,0.0,0.0,0.0,0.0
2025/05/25 19:00:13.118742226,1748192413,117768092,mA1/imu,0.2980272763275759,-0.954556981606159,-0.0008313146486315412,-0.00014264522753148183,0.0,0.0,0.0,0.0,0.0,0.0,0.0,0.0,0.0,0.000548030320540214,0.0005237123669435503,0.0003562062529971692,0.0,0.0,0.0,0.0,0.0,0.0,0.0,0.0,0.0,-0.0011250667612950366,-0.593835457707058,9.808959203640716,0.0,0.0,0.0,0.0,0.0,0.0,0.0,0.0,0.0
2025/05/25 19:00:13.169146373,1748192413,168836221,mA1/imu,0.298018871993294,-0.9545596078368609,-0.0008315845302368664,-0.00012445622648008705,0.0,0.0,0.0,0.0,0.0,0.0,0.0,0.0,0.0,-0.0005551392751772873,0.0008120360457286398,0.00033895208803272673,0.0,0.0,0.0,0.0,0.0,0.0,0.0,0.0,0.0,-0.004257465647562533,0.4908790579915995,9.811031893226419,0.0,0.0,0.0,0.0,0.0,0.0,0.0,0.0,0.0
2025/05/25 19:00:13.218753585,1748192413,218600925,mA1/imu,0.2980112883201681,-0.9545619775261684,-0.0008327521552126933,-9.807615601849706e-05,0.0,0.0,0.0,0.0,0.0,0.0,0.0,0.0,0.0,-0.0005920475466517593,0.0011144684614951487,0.0003029296281697287,0.0,0.0,0.0,0.0,0.0,0.0,0.0,0.0,0.0,-0.0043156093656039115,-0.0281387405421981,9.809998202757832,0.0,0.0,0.0,0.0,0.0,0.0,0.0,0.0,0.0
2025/05/25 19:00:13.269871319,1748192413,269714450,mA1/imu,0.2980036673306915,-0.9545643611930221,-0.0008308264996122463,-6.576430443782733e-05,0.0,0.0,0.0,0.0,0.0,0.0,0.0,0.0,0.0,6.977548333160396e-05,0.0013999834825774062,0.0003946130874807488,0.0,0.0,0.0,0.0,0.0,0.0,0.0,0.0,0.0,-0.01829822937080158,-0.4644410549995155,9.808436594443096,0.0,0.0,0.0,0.0,0.0,0.0,0.0,0.0,0.0
2025/05/25 19:00:13.319799414,1748192413,319586415,mA1/imu,0.2979909765180229,-0.9545683295242589,-0.0008255482835671513,-2.55564576842742e-05,0.0,0.0,0.0,0.0,0.0,0.0,0.0,0.0,0.0,0.00046679520073051337,0.0016295091739174183,0.0005652834660223683,0.0,0.0,0.0,0.0,0.0,0.0,0.0,0.0,0.0,-0.0013510567288978273,-0.32445240211521703,9.809226738613777,0.0,0.0,0.0,0.0,0.0,0.0,0.0,0.0,0.0
2025/05/25 19:00:13.370824545,1748192413,370604492,mA1/imu,0.2979766430928827,-0.95457280522505,-0.000824262516761054,1.694635821522755e-05,0.0,0.0,0.0,0.0,0.0,0.0,0.0,0.0,0.0,-0.0011625904494016763,0.0016894445515304418,0.0006832212118801046,0.0,0.0,0.0,0.0,0.0,0.0,0.0,0.0,0.0,-0.016574774511392082,0.5582249339636081,9.812362948700136,0.0,0.0,0.0,0.0,0.0,0.0,0.0,0.0,0.0
2025/05/25 19:00:13.421038118,1748192413,420781361,mA1/imu,0.29795708745876387,-0.9545789083303351,-0.0008233585219572342,6.232736576379394e-05,0.0,0.0,0.0,0.0,0.0,0.0,0.0,0.0,0.0,-0.0016196353476725677,0.001715609343009839,0.0008480499538275153,0.0,0.0,0.0,0.0,0.0,0.0,0.0,0.0,0.0,-0.001652385672018938,0.4481282522264336,9.809297255479922,0.0,0.0,0.0,0.0,0.0,0.0,0.0,0.0,0.0
2025/05/25 19:00:13.472096037,1748192413,471838958,mA1/imu,0.29793631002921317,-0.9545853989337397,-0.0008133704513211999,9.867724435398415e-05,0.0,0.0,0.0,0.0,0.0,0.0,0.0,0.0,0.0,0.0005782699303433579,0.001370221226449941,0.0008900170319055231,0.0,0.0,0.0,0.0,0.0,0.0,0.0,0.0,0.0,0.0024637307523450963,-0.48285391982840986,9.80895686407926,0.0,0.0,0.0,0.0,0.0,0.0,0.0,0.0,0.0
2025/05/25 19:00:13.522010745,1748192413,521746868,mA1/imu,0.2979144242387825,-0.9545922269890353,-0.0008122191372518691,0.0001276818764667992,0.0,0.0,0.0,0.0,0.0,0.0,0.0,0.0,0.0,-0.0008815323577259862,0.0009395873437020608,0.0009358117354636749,0.0,0.0,0.0,0.0,0.0,0.0,0.0,0.0,0.0,0.0037055951130319704,0.5538336456252979,9.810846445719076,0.0,0.0,0.0,0.0,0.0,0.0,0.0,0.0,0.0
2025/05/25 19:00:13.573672068,1748192413,573342720,mA1/imu,0.2978916212262338,-0.9545993486691119,-0.0008034709957419086,0.0001412730426060434,0.0,0.0,0.0,0.0,0.0,0.0,0.0,0.0,0.0,0.0012953397411884669,0.0004113899125426344,0.0009718395186165306,0.0,0.0,0.0,0.0,0.0,0.0,0.0,0.0,0.0,0.0029303538994639483,-0.5442495870170946,9.808749008948764,0.0,0.0,0.0,0.0,0.0,0.0,0.0,0.0,0.0
2025/05/25 19:00:13.623181444,1748192413,623042357,mA1/imu,0.29786791990884826,-0.9546067377026676,-0.000810825325544869,0.00014554771564920845,0.0,0.0,0.0,0.0,0.0,0.0,0.0,0.0,0.0,0.0007588195030299804,-0.00017052783514301032,0.0010025006327304947,0.0,0.0,0.0,0.0,0.0,0.0,0.0,0.0,0.0,0.0020115052720937267,-0.27975363395567,9.812459093129744,0.0,0.0,0.0,0.0,0.0,0.0,0.0,0.0,0.0
2025/05/25 19:00:13.675407001,1748192413,674226992,mA1/imu,0.2978437234648822,-0.9546142900959992,-0.0008096279083523621,0.0001343120852747881,0.0,0.0,0.0,0.0,0.0,0.0,0.0,0.0,0.0,-0.001097909942749403,-0.0005783801079521187,0.0010253694664925266,0.0,0.0,0.0,0.0,0.0,0.0,0.0,0.0,0.0,0.0017702540822932453,0.5356111826215741,9.81250415430823,0.0,0.0,0.0,0.0,0.0,0.0,0.0,0.0,0.0
2025/05/25 19:00:13.714483803,1748192413,713973283,mA1/imu,0.2978188576490818,-0.954622049450273,-0.0008111915095376977,0.00011269556932918813,0.0,0.0,0.0,0.0,0.0,0.0,0.0,0.0,0.0,-0.0011758707652792754,-0.000964346862063946,0.0010413810380011017,0.0,0.0,0.0,0.0,0.0,0.0,0.0,0.0,0.0,-0.000617925798517219,0.5271152993535152,9.808073579458958,0.0,0.0,0.0,0.0,0.0,0.0,0.0,0.0,0.0
2025/05/25 19:00:13.765232661,1748192413,764979442,mA1/imu,0.2977931627204607,-0.9546300689863162,-0.0008106340633496788,8.060112700511074e-05,0.0,0.0,0.0,0.0,0.0,0.0,0.0,0.0,0.0,0.0006939784223429788,-0.0012850958355943186,0.0011422992533963118,0.0,0.0,0.0,0.0,0.0,0.0,0.0,0.0,0.0,-0.014831933731112107,0.013778835832253828,9.806861656232627,0.0,0.0,0.0,0.0,0.0,0.0,0.0,0.0,0.0
2025/05/25 19:00:13.814965430,1748192413,814789694,mA1/imu,0.2977629940231308,-0.9546394862427594,-0.0008054435897672158,4.423985846167583e-05,0.0,0.0,0.0,0.0,0.0,0.0,0.0,0.0,0.0,0.0025130117677419016,-0.0014538635014751096,0.0012905145396266923,0.0,0.0,0.0,0.0,0.0,0.0,0.0,0.0,0.0,0.0031287164004964404,-0.49395225586796376,9.808714709416998,0.0,0.0,0.0,0.0,0.0,0.0,0.0,0.0,0.0
2025/05/25 19:00:13.866151164,1748192413,865885804,mA1/imu,0.29773224370204865,-0.9546490747436714,-0.0008093935961775164,5.762150742681199e-06,0.0,0.0,0.0,0.0,0.0,0.0,0.0,0.0,0.0,0.0010091870757783325,-0.0016135222779120354,0.001295721720441098,0.0,0.0,0.0,0.0,0.0,0.0,0.0,0.0,0.0,0.0014809866818688462,0.029683636316367237,9.810692942476502,0.0,0.0,0.0,0.0,0.0,0.0,0.0,0.0,0.0
2025/05/25 19:00:13.916004060,1748192413,915642153,mA1/imu,0.2977008687858438,-0.9546588559099346,-0.0008124577930270393,-3.833044513982563e-05,0.0,0.0,0.0,0.0,0.0,0.0,0.0,0.0,0.0,-0.0005234154833048656,-0.0017615950818040424,0.0013181983270086153,0.0,0.0,0.0,0.0,0.0,0.0,0.0,0.0,0.0,0.0006296750306905262,0.5499998690784194,9.810457213246329,0.0,0.0,0.0,0.0,0.0,0.0,0.0,0.0,0.0
2025/05/25 19:00:13.967179776,1748192413,966907114,mA1/imu,0.29766912418320646,-0.9546687512173241,-0.0008127493371938466,-8.599809674673001e-05,0.0,0.0,0.0,0.0,0.0,0.0,0.0,0.0,0.0,-6.255687135571129e-05,-0.0018392367174850028,0.0013352803457766464,0.0,0.0,0.0,0.0,0.0,0.0,0.0,0.0,0.0,0.002506253772021028,-0.05209279087218911,9.80923101952736,0.0,0.0,0.0,0.0,0.0,0.0,0.0,0.0,0.0
2025/05/25 19:00:14.19943386,1748192414,19852809,mA1/imu,0.2976368242442179,-0.9546788172172208,-0.0008116063494835723,-0.00013455734142519415,0.0,0.0,0.0,0.0,0.0,0.0,0.0,0.0,0.0,0.001386698839651192,-0.001838508884869352,0.0013613341106552927,0.0,0.0,0.0,0.0,0.0,0.0,0.0,0.0,0.0,0.0019325504879142072,-0.5801294611686116,9.808815017896178,0.0,0.0,0.0,0.0,0.0,0.0,0.0,0.0,0.0
2025/05/25 19:00:14.71813957,1748192414,71580687,mA1/imu,0.2976040043996532,-0.954689045823063,-0.0008056731644251575,-0.0001823224963987693,0.0,0.0,0.0,0.0,0.0,0.0,0.0,0.0,0.0,0.0011483637802767047,-0.0016891120443371884,0.0013807790569819072,0.0,0.0,0.0,0.0,0.0,0.0,0.0,0.0,0.0,-5.5326484940065174e-05,0.1694948683442758,9.810392001342295,0.0,0.0,0.0,0.0,0.0,0.0,0.0,0.0,0.0
2025/05/25 19:00:14.121635100,1748192414,121461115,mA1/imu,0.2975707965852194,-0.9546993843685493,-0.0008108135305526213,-0.00022155669634441277,0.0,0.0,0.0,0.0,0.0,0.0,0.0,0.0,0.0,-0.0004107408586760364,-0.0014613339192951179,0.0013981675308839942,0.0,0.0,0.0,0.0,0.0,0.0,0.0,0.0,0.0,0.00129176974238783,0.5616448443556705,9.811541930068143,0.0,0.0,0.0,0.0,0.0,0.0,0.0,0.0,0.0
2025/05/25 19:00:14.172622230,1748192414,172407932,mA1/imu,0.2975348900506366,-0.9547105707750208,-0.000806755729271178,-0.00025376797103199896,0.0,0.0,0.0,0.0,0.0,0.0,0.0,0.0,0.0,0.0008862830424659052,-0.0008855837229493519,0.0016499126808798,0.0,0.0,0.0,0.0,0.0,0.0,0.0,0.0,0.0,-0.01485917480651511,-0.5938588835686973,9.808366863161474,0.0,0.0,0.0,0.0,0.0,0.0,0.0,0.0,0.0
2025/05/25 19:00:14.223724764,1748192414,222267246,mA1/imu,0.29749329808981295,-0.9547235308262599,-0.0008022857080774822,-0.0002713225532973615,0.0,0.0,0.0,0.0,0.0,0.0,0.0,0.0,0.0,0.0002897970878742162,-0.0004951545462530125,0.001747925252612202,0.0,0.0,0.0,0.0,0.0,0.0,0.0,0.0,0.0,0.0024268724592984986,-0.004274268776916902,9.808836197611573,0.0,0.0,0.0,0.0,0.0,0.0,0.0,0.0,0.0
2025/05/25 19:00:14.280583754,1748192414,278336346,mA1/imu,0.29745133754169994,-0.9547366084665211,-0.0007943135925070608,-0.0002816281507600154,0.0,0.0,0.0,0.0,0.0,0.0,0.0,0.0,0.0,0.00046626097830330254,-0.00017929502730001397,0.0017595047114228079,0.0,0.0,0.0,0.0,0.0,0.0,0.0,0.0,0.0,0.003902504983708064,0.014773396765963304,9.808936782982373,0.0,0.0,0.0,0.0,0.0,0.0,0.0,0.0,0.0
2025/05/25 19:00:14.318478224,1748192414,318333089,mA1/imu,0.29740910682873184,-0.954749767845692,-0.0007899060557494704,-0.00028288223028746144,0.0,0.0,0.0,0.0,0.0,0.0,0.0,0.0,0.0,0.001292898105117466,0.00010724263040908462,0.0017769049329995992,0.0,0.0,0.0,0.0,0.0,0.0,0.0,0.0,0.0,0.004365496755412061,-0.5508133039292423,9.809470176919426,0.0,0.0,0.0,0.0,0.0,0.0,0.0,0.0,0.0
2025/05/25 19:00:14.369545621,1748192414,369321457,mA1/imu,0.2973670531549803,-0.9547628702495908,-0.0007884700454341221,-0.0002749648591986243,0.0,0.0,0.0,0.0,0.0,0.0,0.0,0.0,0.0,0.0010499165178852977,0.00039005760344202147,0.0017497672720518042,0.0,0.0,0.0,0.0,0.0,0.0,0.0,0.0,0.0,0.007022836590081471,-0.529334055345999,9.810986046365507,0.0,0.0,0.0,0.0,0.0,0.0,0.0,0.0,0.0
2025/05/25 19:00:14.419366334,1748192414,419225103,mA1/imu,0.29732608758661777,-0.9547756286731769,-0.0007927691942913955,-0.00026086237612062146,0.0,0.0,0.0,0.0,0.0,0.0,0.0,0.0,0.0,0.0003217048763666486,0.0005468251114806966,0.0017168178707283501,0.0,0.0,0.0,0.0,0.0,0.0,0.0,0.0,0.0,0.003970367915288568,-0.6063439434233393,9.808110974273525,0.0,0.0,0.0,0.0,0.0,0.0,0.0,0.0,0.0
2025/05/25 19:00:14.471330720,1748192414,470218689,mA1/imu,0.29728501507061095,-0.9547884296912865,-0.0007831754787886089,-0.0002469378121673976,0.0,0.0,0.0,0.0,0.0,0.0,0.0,0.0,0.0,-0.0002034412803047963,0.000706034802825834,0.0017202203499052386,0.0,0.0,0.0,0.0,0.0,0.0,0.0,0.0,0.0,0.005238792596972698,0.22724175581019904,9.80938584454661,0.0,0.0,0.0,0.0,0.0,0.0,0.0,0.0,0.0
2025/05/25 19:00:14.521021281,1748192414,520706308,mA1/imu,0.29724407237110667,-0.954801180917592,-0.0007845278448421647,-0.0002255541460304853,0.0,0.0,0.0,0.0,0.0,0.0,0.0,0.0,0.0,-0.001673150384715683,0.000902450746967441,0.0017101600965826313,0.0,0.0,0.0,0.0,0.0,0.0,0.0,0.0,0.0,0.001430568101256146,0.5333969171348579,9.809079547730905,0.0,0.0,0.0,0.0,0.0,0.0,0.0,0.0,0.0
2025/05/25 19:00:14.572275177,1748192414,572058980,mA1/imu,0.29720319579354404,-0.9548139146047304,-0.0007795801864759768,-0.00020283497632381383,0.0,0.0,0.0,0.0,0.0,0.0,0.0,0.0,0.0,0.000865034283563237,0.0009565390488075784,0.0017165025647858025,0.0,0.0,0.0,0.0,0.0,0.0,0.0,0.0,0.0,0.004778480712138298,-0.31376102853591303,9.812088956158243,0.0,0.0,0.0,0.0,0.0,0.0,0.0,0.0,0.0
2025/05/25 19:00:14.623590294,1748192414,621849014,mA1/imu,0.29716218182758897,-0.9548266813872462,-0.0007844328712648958,-0.00017569164922935995,0.0,0.0,0.0,0.0,0.0,0.0,0.0,0.0,0.0,0.000849986185308811,0.0009466393307823838,0.001722951950326323,0.0,0.0,0.0,0.0,0.0,0.0,0.0,0.0,0.0,0.005230822008534334,-0.5515675714356473,9.80952628358629,0.0,0.0,0.0,0.0,0.0,0.0,0.0,0.0,0.0
2025/05/25 19:00:14.673012301,1748192414,672781286,mA1/imu,0.29712125493829883,-0.9548394166034079,-0.0007913580703922694,-0.00014871704181044007,0.0,0.0,0.0,0.0,0.0,0.0,0.0,0.0,0.0,-0.0008066749567579512,0.0009062083150555541,0.0017190362384882358,0.0,0.0,0.0,0.0,0.0,0.0,0.0,0.0,0.0,0.006809184562905179,-0.027062279443723455,9.808122351392697,0.0,0.0,0.0,0.0,0.0,0.0,0.0,0.0,0.0
2025/05/25 19:00:14.723093431,1748192414,722779553,mA1/imu,0.29708002122634797,-0.9548522459191894,-0.0007960304885970231,-0.00012564510867114662,0.0,0.0,0.0,0.0,0.0,0.0,0.0,0.0,0.0,-0.0013298122858568543,0.0007656456129944559,0.0017269222118724925,0.0,0.0,0.0,0.0,0.0,0.0,0.0,0.0,0.0,0.007891005646729912,-0.05848042691892699,9.809673101985487,0.0,0.0,0.0,0.0,0.0,0.0,0.0,0.0,0.0
2025/05/25 19:00:14.766018944,1748192414,765757800,mA1/imu,0.29703835590790856,-0.9548652095199068,-0.0007968288814198873,-0.00010877391652083936,0.0,0.0,0.0,0.0,0.0,0.0,0.0,0.0,0.0,-0.00030148506128886964,0.0005435607056198549,0.001751738615160991,0.0,0.0,0.0,0.0,0.0,0.0,0.0,0.0,0.0,0.009256343465719982,0.010315248401006798,9.809977943094578,0.0,0.0,0.0,0.0,0.0,0.0,0.0,0.0,0.0
2025/05/25 19:00:14.815834600,1748192414,815648192,mA1/imu,0.2969962961962462,-0.9548782865760527,-0.0008054344519420938,-9.563805272366652e-05,0.0,0.0,0.0,0.0,0.0,0.0,0.0,0.0,0.0,-0.0008914243070958884,0.0003148830831037993,0.0017634583225120159,0.0,0.0,0.0,0.0,0.0,0.0,0.0,0.0,0.0,0.008185285799921825,0.5834259540869774,9.811110117101636,0.0,0.0,0.0,0.0,0.0,0.0,0.0,0.0,0.0
2025/05/25 19:00:14.866944835,1748192414,866633774,mA1/imu,0.29695426363824323,-0.9548913531420802,-0.0008131080354401576,-8.863903493585925e-05,0.0,0.0,0.0,0.0,0.0,0.0,0.0,0.0,0.0,-0.00045990355944012585,9.18247451192816e-05,0.0017608623941738246,0.0,0.0,0.0,0.0,0.0,0.0,0.0,0.0,0.0,0.007348878868456811,-0.0074693933254622695,9.811906648626504,0.0,0.0,0.0,0.0,0.0,0.0,0.0,0.0,0.0
2025/05/25 19:00:14.916767982,1748192414,916610201,mA1/imu,0.2969120231738236,-0.9549044824767028,-0.0008198651702181634,-8.75318786856413e-05,0.0,0.0,0.0,0.0,0.0,0.0,0.0,0.0,0.0,0.0002944172291887647,-0.0001267681064856274,0.001775765611348943,0.0,0.0,0.0,0.0,0.0,0.0,0.0,0.0,0.0,0.007048476046963101,-0.23934149910514035,9.811512867078942,0.0,0.0,0.0,0.0,0.0,0.0,0.0,0.0,0.0
2025/05/25 19:00:14.967701619,1748192414,967481168,mA1/imu,0.29686981577540783,-0.9549175979480237,-0.0008277770567460105,-9.16285788541666e-05,0.0,0.0,0.0,0.0,0.0,0.0,0.0,0.0,0.0,5.6967581446249e-06,-0.00034230175478641776,0.001765936118421926,0.0,0.0,0.0,0.0,0.0,0.0,0.0,0.0,0.0,0.00739028858891751,0.018066653751317985,9.808731793105979,0.0,0.0,0.0,0.0,0.0,0.0,0.0,0.0,0.0
2025/05/25 19:00:15.17819059,1748192415,17544251,mA1/imu,0.2968277802046255,-0.9549306523825929,-0.0008415412526067203,-9.923341232262277e-05,0.0,0.0,0.0,0.0,0.0,0.0,0.0,0.0,0.0,-0.001525561343321117,-0.0005106516881017024,0.0017526259908848807,0.0,0.0,0.0,0.0,0.0,0.0,0.0,0.0,0.0,0.0071007720315001506,0.5364782750481618,9.809606937742286,0.0,0.0,0.0,0.0,0.0,0.0,0.0,0.0,0.0
2025/05/25 19:00:15.68689958,1748192415,68519120,mA1/imu,0.2967859910484526,-0.9549436311451007,-0.0008510657522432298,-0.00011198161917931761,0.0,0.0,0.0,0.0,0.0,0.0,0.0,0.0,0.0,-0.001158184137889768,-0.0006405340267183043,0.0017461815348039523,0.0,0.0,0.0,0.0,0.0,0.0,0.0,0.0,0.0,0.006559153948371036,-0.15161549269425234,9.811541948308948,0.0,0.0,0.0,0.0,0.0,0.0,0.0,0.0,0.0
2025/05/25 19:00:15.118568936,1748192415,118383745,mA1/imu,0.29674426495888534,-0.9549565992186381,-0.0008470148805619457,-0.0001318657508740196,0.0,0.0,0.0,0.0,0.0,0.0,0.0,0.0,0.0,0.00031327398895271375,-0.0007359426392469472,0.0017543506139760332,0.0,0.0,0.0,0.0,0.0,0.0,0.0,0.0,0.0,0.005981837355385162,0.01770799373678101,9.812276015162178,0.0,0.0,0.0,0.0,0.0,0.0,0.0,0.0,0.0
2025/05/25 19:00:15.169760597,1748192415,169494061,mA1/imu,0.29670238507243457,-0.954969610828285,-0.0008448276511575417,-0.0001528170222325808,0.0,0.0,0.0,0.0,0.0,0.0,0.0,0.0,0.0,0.00045463125747097384,-0.0007725467823638216,0.0017486741208020081,0.0,0.0,0.0,0.0,0.0,0.0,0.0,0.0,0.0,0.004081277498544308,0.6526512248348078,9.810468897981018,0.0,0.0,0.0,0.0,0.0,0.0,0.0,0.0,0.0
2025/05/25 19:00:15.219478614,1748192415,219182723,mA1/imu,0.296660730915017,-0.9549825432727016,-0.0008505895709677183,-0.00017109866201905487,0.0,0.0,0.0,0.0,0.0,0.0,0.0,0.0,0.0,0.0025234690400774856,-0.000797736632282843,0.001744879134469676,0.0,0.0,0.0,0.0,0.0,0.0,0.0,0.0,0.0,0.007279396985191014,-0.47456511211480795,9.809565401271641,0.0,0.0,0.0,0.0,0.0,0.0,0.0,0.0,0.0
2025/05/25 19:00:15.270401894,1748192415,270199834,mA1/imu,0.29661924061429457,-0.9549954203269776,-0.0008592701407895712,-0.00018683341199583815,0.0,0.0,0.0,0.0,0.0,0.0,0.0,0.0,0.0,0.0005220316609198423,-0.0007075770853669647,0.001738637414696817,0.0,0.0,0.0,0.0,0.0,0.0,0.0,0.0,0.0,0.0050594715997946665,-0.6215899681839668,9.811806573082922,0.0,0.0,0.0,0.0,0.0,0.0,0.0,0.0,0.0
2025/05/25 19:00:15.320246669,1748192415,320046241,mA1/imu,0.29657779423622077,-0.9550082960379292,-0.0008507401476142414,-0.00020665408333496752,0.0,0.0,0.0,0.0,0.0,0.0,0.0,0.0,0.0,0.00040571791618691214,-0.0006283352866195544,0.0017402990627772724,0.0,0.0,0.0,0.0,0.0,0.0,0.0,0.0,0.0,0.007525170444013933,-0.6285564343628979,9.808766783347123,0.0,0.0,0.0,0.0,0.0,0.0,0.0,0.0,0.0
2025/05/25 19:00:15.374313715,1748192415,374002882,mA1/imu,0.2965360666795962,-0.9550212597987289,-0.0008387551486085347,-0.00022578849343778948,0.0,0.0,0.0,0.0,0.0,0.0,0.0,0.0,0.0,0.00045476266155813753,-0.0005629760431573798,0.0017507833579703178,0.0,0.0,0.0,0.0,0.0,0.0,0.0,0.0,0.0,0.00889301153910757,-0.06252840474660414,9.809118129121183,0.0,0.0,0.0,0.0,0.0,0.0,0.0,0.0,0.0
2025/05/25 19:00:15.414828683,1748192415,414359666,mA1/imu,0.29649342987633276,-0.9550345006659733,-0.0008309420570857147,-0.0002410667154838423,0.0,0.0,0.0,0.0,0.0,0.0,0.0,0.0,0.0,0.0005129105717831951,-0.00035656257510984814,0.0018739583044151888,0.0,0.0,0.0,0.0,0.0,0.0,0.0,0.0,0.0,-0.002850399509088849,0.0014569316389665878,9.813081209880604,0.0,0.0,0.0,0.0,0.0,0.0,0.0,0.0,0.0
2025/05/25 19:00:15.466565283,1748192415,465281560,mA1/imu,0.29644426142322267,-0.9550497766699735,-0.0008132634637159669,-0.0002501088015248071,0.0,0.0,0.0,0.0,0.0,0.0,0.0,0.0,0.0,0.00034661512410050476,0.0001663805510483769,0.002272326597369707,0.0,0.0,0.0,0.0,0.0,0.0,0.0,0.0,0.0,-0.030276446650039035,0.6304656710476223,9.81366433306405,0.0,0.0,0.0,0.0,0.0,0.0,0.0,0.0,0.0
2025/05/25 19:00:15.515628375,1748192415,515214354,mA1/imu,0.2963798388931312,-0.9550697884337851,-0.0007962788399180316,-0.00023718923976998133,0.0,0.0,0.0,0.0,0.0,0.0,0.0,0.0,0.0,0.0005332832440808459,0.0007134924970131398,0.0027899094008027306,0.0,0.0,0.0,0.0,0.0,0.0,0.0,0.0,0.0,0.019453035361941328,-0.007765915510147572,9.809487390957944,0.0,0.0,0.0,0.0,0.0,0.0,0.0,0.0,0.0
2025/05/25 19:00:15.566414292,1748192415,566124849,mA1/imu,0.2963139568884247,-0.955090254536287,-0.0007684276035951207,-0.00023272720854225964,0.0,0.0,0.0,0.0,0.0,0.0,0.0,0.0,0.0,0.0016225157484430583,0.00043148843404900567,0.0027806300201163583,0.0,0.0,0.0,0.0,0.0,0.0,0.0,0.0,0.0,0.004142228913314335,0.07559532710015193,9.807406146045096,0.0,0.0,0.0,0.0,0.0,0.0,0.0,0.0,0.0
2025/05/25 19:00:15.616271349,1748192415,615923367,mA1/imu,0.2962465234300544,-0.9551111730219846,-0.0007712322069943668,-0.00022299116088375342,0.0,0.0,0.0,0.0,0.0,0.0,0.0,0.0,0.0,0.000463807647333071,0.0001629572057219098,0.0028079099669382082,0.0,0.0,0.0,0.0,0.0,0.0,0.0,0.0,0.0,0.021081151763118977,-0.6338688354482851,9.809899883160492,0.0,0.0,0.0,0.0,0.0,0.0,0.0,0.0,0.0
2025/05/25 19:00:15.667184274,1748192415,666984292,mA1/imu,0.2961805108795194,-0.9551316593051522,-0.0007517421265089073,-0.00023076375142454042,0.0,0.0,0.0,0.0,0.0,0.0,0.0,0.0,0.0,-0.0017646644161629535,-0.0002276220626589001,0.0027256651540217163,0.0,0.0,0.0,0.0,0.0,0.0,0.0,0.0,0.0,0.024111560624523763,0.478731956370819,9.809683390975042,0.0,0.0,0.0,0.0,0.0,0.0,0.0,0.0,0.0
2025/05/25 19:00:15.717470720,1748192415,717210405,mA1/imu,0.29611703053202587,-0.9551513488935881,-0.0007368618590146986,-0.00024893825622748626,0.0,0.0,0.0,0.0,0.0,0.0,0.0,0.0,0.0,0.0013619656302285626,-0.0006656918990197751,0.0026256492869613725,0.0,0.0,0.0,0.0,0.0,0.0,0.0,0.0,0.0,0.019135103978558964,0.077449528505244,9.809764412699534,0.0,0.0,0.0,0.0,0.0,0.0,0.0,0.0,0.0
2025/05/25 19:00:15.768406392,1748192415,768248940,mA1/imu,0.296055184180034,-0.9551705063911144,-0.0007485136111023772,-0.00026714797806111384,0.0,0.0,0.0,0.0,0.0,0.0,0.0,0.0,0.0,-0.0001646032613526205,-0.0009510496222812723,0.0025664660779388766,0.0,0.0,0.0,0.0,0.0,0.0,0.0,0.0,0.0,0.018717343860426224,-0.02072665720889353,9.812406852099587,0.0,0.0,0.0,0.0,0.0,0.0,0.0,0.0,0.0
2025/05/25 19:00:15.818321601,1748192415,818167931,mA1/imu,0.29599470806147293,-0.9551892407156845,-0.0007482077287973387,-0.00029564470607350366,0.0,0.0,0.0,0.0,0.0,0.0,0.0,0.0,0.0,-0.0010628976223636885,-0.001148988033610598,0.0025076267834963735,0.0,0.0,0.0,0.0,0.0,0.0,0.0,0.0,0.0,0.01794066642303839,0.42390536326734346,9.808224611217348,0.0,0.0,0.0,0.0,0.0,0.0,0.0,0.0,0.0
2025/05/25 19:00:15.873267103,1748192415,872342587,mA1/imu,0.29593666177882405,-0.9552072038963381,-0.0007649775397583901,-0.00032349514529204416,0.0,0.0,0.0,0.0,0.0,0.0,0.0,0.0,0.0,-9.054262142622808e-06,-0.0013221983655360332,0.0023483709395820647,0.0,0.0,0.0,0.0,0.0,0.0,0.0,0.0,0.0,0.01643495983926439,0.012601135890351393,9.808785535442953,0.0,0.0,0.0,0.0,0.0,0.0,0.0,0.0,0.0
2025/05/25 19:00:15.922982300,1748192415,922302305,mA1/imu,0.29588193769503496,-0.9552241334162395,-0.0007802433024325466,-0.00035370243834158987,0.0,0.0,0.0,0.0,0.0,0.0,0.0,0.0,0.0,-0.0004984367885940388,-0.0013358783715319987,0.002268002986023984,0.0,0.0,0.0,0.0,0.0,0.0,0.0,0.0,0.0,0.01646231077082815,0.08393296385526373,9.81080863350627,0.0,0.0,0.0,0.0,0.0,0.0,0.0,0.0,0.0
2025/05/25 19:00:15.973434958,1748192415,973230954,mA1/imu,0.29582817385939575,-0.9552407609269463,-0.0007963649874769643,-0.00038212240252490516,0.0,0.0,0.0,0.0,0.0,0.0,0.0,0.0,0.0,2.0387843171051777e-05,-0.0011464756038388848,0.0022882958063940285,0.0,0.0,0.0,0.0,0.0,0.0,0.0,0.0,0.0,-0.0032021378075789177,0.03915619774672438,9.80674385329174,0.0,0.0,0.0,0.0,0.0,0.0,0.0,0.0,0.0
2025/05/25 19:00:16.23803361,1748192416,23237338,mA1/imu,0.29577201571148576,-0.9552581184313758,-0.0008273473801674244,-0.0003967231085979953,0.0,0.0,0.0,0.0,0.0,0.0,0.0,0.0,0.0,-0.001453939801216219,-0.0008749717587620885,0.0023393966918510136,0.0,0.0,0.0,0.0,0.0,0.0,0.0,0.0,0.0,0.016653276117090537,-0.0600682322818414,9.811349926502013,0.0,0.0,0.0,0.0,0.0,0.0,0.0,0.0,0.0
2025/05/25 19:00:16.66405947,1748192416,65132153,mA1/imu,0.29571685480062776,-0.9552751766417031,-0.0008417854425727175,-0.0004124030261941718,0.0,0.0,0.0,0.0,0.0,0.0,0.0,0.0,0.0,-0.0026423165355983548,-0.0006847061025054925,0.002288937442456452,0.0,0.0,0.0,0.0,0.0,0.0,0.0,0.0,0.0,0.01631526918629678,0.4928804960224633,9.810671517300667,0.0,0.0,0.0,0.0,0.0,0.0,0.0,0.0,0.0
2025/05/25 19:00:16.116100648,1748192416,114995577,mA1/imu,0.2956633270706053,-0.9552917305875002,-0.00085197381668313,-0.00042501446441102627,0.0,0.0,0.0,0.0,0.0,0.0,0.0,0.0,0.0,0.0003752645370983375,-0.0005230570532293047,0.0022057420843243592,0.0,0.0,0.0,0.0,0.0,0.0,0.0,0.0,0.0,0.016143545975569995,0.07840925981843491,9.81094749857645,0.0,0.0,0.0,0.0,0.0,0.0,0.0,0.0,0.0
2025/05/25 19:00:16.166445945,1748192416,166062149,mA1/imu,0.29561131720928047,-0.9553077979740212,-0.0008831225887147344,-0.0004246908453038777,0.0,0.0,0.0,0.0,0.0,0.0,0.0,0.0,0.0,-0.001140179205204156,-0.0002561900961555138,0.002160787511502371,0.0,0.0,0.0,0.0,0.0,0.0,0.0,0.0,0.0,0.015225268320716055,-0.028487685153978537,9.813056044971907,0.0,0.0,0.0,0.0,0.0,0.0,0.0,0.0,0.0
2025/05/25 19:00:16.216493226,1748192416,216138706,mA1/imu,0.29556033257309106,-0.9553235672934024,-0.0008892901883584983,-0.00042514239127224756,0.0,0.0,0.0,0.0,0.0,0.0,0.0,0.0,0.0,0.0001617317499584762,3.296779354053779e-05,0.002117268845962077,0.0,0.0,0.0,0.0,0.0,0.0,0.0,0.0,0.0,0.014505527113982435,0.06161298534742993,9.808551862685748,0.0,0.0,0.0,0.0,0.0,0.0,0.0,0.0,0.0
2025/05/25 19:00:16.267667465,1748192416,267405129,mA1/imu,0.2955104407115081,-0.9553389853008494,-0.0009121470335013555,-0.00041301649268739586,0.0,0.0,0.0,0.0,0.0,0.0,0.0,0.0,0.0,0.0005169289760109703,0.00028434289551419344,0.0020704391018030394,0.0,0.0,0.0,0.0,0.0,0.0,0.0,0.0,0.0,0.014860295699535878,-0.1525490323359636,9.809833272863237,0.0,0.0,0.0,0.0,0.0,0.0,0.0,0.0,0.0
2025/05/25 19:00:16.317439070,1748192416,317109498,mA1/imu,0.2954617131070647,-0.955354048637799,-0.0009278129961909913,-0.00039623509242451237,0.0,0.0,0.0,0.0,0.0,0.0,0.0,0.0,0.0,-0.0024231956671276144,0.000556571099853469,0.002022105892546219,0.0,0.0,0.0,0.0,0.0,0.0,0.0,0.0,0.0,0.01569329629022246,0.5020401609206154,9.811622727917017,0.0,0.0,0.0,0.0,0.0,0.0,0.0,0.0,0.0
2025/05/25 19:00:16.368348106,1748192416,368054366,mA1/imu,0.29541408916827394,-0.9553687871314821,-0.0009229747972278062,-0.0003802805852594343,0.0,0.0,0.0,0.0,0.0,0.0,0.0,0.0,0.0,3.5291067133756214e-05,0.0007564189721056583,0.001975548704540951,0.0,0.0,0.0,0.0,0.0,0.0,0.0,0.0,0.0,0.014987914670529682,0.18693026658602643,9.809551772732739,0.0,0.0,0.0,0.0,0.0,0.0,0.0,0.0,0.0
2025/05/25 19:00:16.418344771,1748192416,417954913,mA1/imu,0.2953667776744439,-0.9553834142760959,-0.0009349736219759349,-0.0003524155100689257,0.0,0.0,0.0,0.0,0.0,0.0,0.0,0.0,0.0,-1.2351154092464578e-05,0.0010022486361384133,0.001986952614556912,0.0,0.0,0.0,0.0,0.0,0.0,0.0,0.0,0.0,0.014788513812292655,0.02332301273493588,9.812345325154139,0.0,0.0,0.0,0.0,0.0,0.0,0.0,0.0,0.0
2025/05/25 19:00:16.469250539,1748192416,468992638,mA1/imu,0.2953199494787649,-0.9553979057334364,-0.0009289036899806934,-0.0003260336766093741,0.0,0.0,0.0,0.0,0.0,0.0,0.0,0.0,0.0,-9.654296406772673e-05,0.0011193541559020043,0.0019442838398043578,0.0,0.0,0.0,0.0,0.0,0.0,0.0,0.0,0.0,0.016006292800679972,0.011222862415436559,9.810373073137962,0.0,0.0,0.0,0.0,0.0,0.0,0.0,0.0,0.0
2025/05/25 19:00:16.519060429,1748192416,518822478,mA1/imu,0.29527414565876653,-0.9554120776186332,-0.00092306705547384,-0.00029798178400262194,0.0,0.0,0.0,0.0,0.0,0.0,0.0,0.0,0.0,0.0014532099131367925,0.001150810444455787,0.001901786633234816,0.0,0.0,0.0,0.0,0.0,0.0,0.0,0.0,0.0,0.015548873080589326,-0.2963654795947111,9.80991590923578,0.0,0.0,0.0,0.0,0.0,0.0,0.0,0.0,0.0
2025/05/25 19:00:16.570541039,1748192416,570225426,mA1/imu,0.2952293503629361,-0.9554259235103303,-0.0009300780433639081,-0.00026518586747310477,0.0,0.0,0.0,0.0,0.0,0.0,0.0,0.0,0.0,-0.0013324428944791933,0.0011490488407140584,0.0018601852335752053,0.0,0.0,0.0,0.0,0.0,0.0,0.0,0.0,0.0,0.017020790780874144,-0.1262144469708107,9.812346892641063,0.0,0.0,0.0,0.0,0.0,0.0,0.0,0.0,0.0
2025/05/25 19:00:16.620465808,1748192416,620191985,mA1/imu,0.2951855575419642,-0.9554394852968634,-0.0009037719381485294,-0.00024443933466831037,0.0,0.0,0.0,0.0,0.0,0.0,0.0,0.0,0.0,1.580693384784553e-05,0.0010869507800136552,0.001817035322461287,0.0,0.0,0.0,0.0,0.0,0.0,0.0,0.0,0.0,0.015508027339230065,-0.010825143349880427,9.80814435913491,0.0,0.0,0.0,0.0,0.0,0.0,0.0,0.0,0.0
2025/05/25 19:00:16.671585796,1748192416,671138974,mA1/imu,0.29514284267930724,-0.955452695971702,-0.0008939449759711102,-0.00022144517176978865,0.0,0.0,0.0,0.0,0.0,0.0,0.0,0.0,0.0,0.0013885054495764936,0.0009076493291785436,0.0017613879299120166,0.0,0.0,0.0,0.0,0.0,0.0,0.0,0.0,0.0,0.018873388193260378,-0.31090950860754174,9.808577788810295,0.0,0.0,0.0,0.0,0.0,0.0,0.0,0.0,0.0
2025/05/25 19:00:16.721369742,1748192416,721181222,mA1/imu,0.2951023264472944,-0.9554652279615515,-0.0008790122940875579,-0.00020595912648221904,0.0,0.0,0.0,0.0,0.0,0.0,0.0,0.0,0.0,-0.0011314440757067459,0.0006923549137527877,0.001668926964424655,0.0,0.0,0.0,0.0,0.0,0.0,0.0,0.0,0.0,0.016005719994712984,0.2497338419918468,9.810892212028776,0.0,0.0,0.0,0.0,0.0,0.0,0.0,0.0,0.0
2025/05/25 19:00:16.772407192,1748192416,772203777,mA1/imu,0.2950630825756807,-0.9554773724638663,-0.000853420412730301,-0.0001992086400316535,0.0,0.0,0.0,0.0,0.0,0.0,0.0,0.0,0.0,-0.0003878488309006008,0.00048474240654451537,0.0016253883652281606,0.0,0.0,0.0,0.0,0.0,0.0,0.0,0.0,0.0,0.016367492401726205,0.2301143181099823,9.809185686793443,0.0,0.0,0.0,0.0,0.0,0.0,0.0,0.0,0.0
2025/05/25 19:00:16.823223922,1748192416,822376079,mA1/imu,0.2950248770190768,-0.9554891869117405,-0.0008350355249471799,-0.00019583230555426402,0.0,0.0,0.0,0.0,0.0,0.0,0.0,0.0,0.0,0.0010026938372688834,0.0002594226155344129,0.0015824785350113007,0.0,0.0,0.0,0.0,0.0,0.0,0.0,0.0,0.0,0.015223381573380424,-0.43083064180980574,9.808441132417933,0.0,0.0,0.0,0.0,0.0,0.0,0.0,0.0,0.0
2025/05/25 19:00:16.873404311,1748192416,873244421,mA1/imu,0.2949877640809119,-0.9555006645682529,-0.0008119331544257669,-0.00019954128366527667,0.0,0.0,0.0,0.0,0.0,0.0,0.0,0.0,0.0,0.0012248853733943137,3.046321362329368e-05,0.0015243901370415578,0.0,0.0,0.0,0.0,0.0,0.0,0.0,0.0,0.0,0.01856798313047988,0.03056967660675007,9.809247180505286,0.0,0.0,0.0,0.0,0.0,0.0,0.0,0.0,0.0
2025/05/25 19:00:16.923428876,1748192416,923025704,mA1/imu,0.29495242385854226,-0.9555115889618556,-0.0007921002066729995,-0.00020879852359554567,0.0,0.0,0.0,0.0,0.0,0.0,0.0,0.0,0.0,0.0013206969801205287,-0.00020447775933011073,0.0014594864982619572,0.0,0.0,0.0,0.0,0.0,0.0,0.0,0.0,0.0,0.015288377233237994,-0.032604697882442066,9.808998118290338,0.0,0.0,0.0,0.0,0.0,0.0,0.0,0.0,0.0
2025/05/25 19:00:16.974350550,1748192416,974161380,mA1/imu,0.29491848961967426,-0.9555220749178092,-0.0007740530772055328,-0.00022286105224823748,0.0,0.0,0.0,0.0,0.0,0.0,0.0,0.0,0.0,0.0013234330351966496,-0.00045292809213280216,0.0013487944509752655,0.0,0.0,0.0,0.0,0.0,0.0,0.0,0.0,0.0,0.024781660111558797,-0.36577882254534616,9.809245599252925,0.0,0.0,0.0,0.0,0.0,0.0,0.0,0.0,0.0
2025/05/25 19:00:17.14445988,1748192417,14237568,mA1/imu,0.2948908448298114,-0.9555306155384655,-0.0007560218247860248,-0.0002466480117853016,0.0,0.0,0.0,0.0,0.0,0.0,0.0,0.0,0.0,0.0014408791886989568,-0.000788961141927005,0.0010960698343921943,0.0,0.0,0.0,0.0,0.0,0.0,0.0,0.0,0.0,0.014413804507282923,0.045230843755018776,9.810254840598247,0.0,0.0,0.0,0.0,0.0,0.0,0.0,0.0,0.0
2025/05/25 19:00:17.65711832,1748192417,65276152,mA1/imu,0.2948653110478254,-0.955538501712757,-0.0007383684393418169,-0.00027367363134513816,0.0,0.0,0.0,0.0,0.0,0.0,0.0,0.0,0.0,0.0008773273072876124,-0.0008390832870061692,0.0010494188725436754,0.0,0.0,0.0,0.0,0.0,0.0,0.0,0.0,0.0,0.01312126312939185,0.6441461757876944,9.810521751827299,0.0,0.0,0.0,0.0,0.0,0.0,0.0,0.0,0.0
2025/05/25 19:00:17.115561759,1748192417,115325335,mA1/imu,0.2948408698840865,-0.9555460401372989,-0.0007336423235060222,-0.00029730937387020297,0.0,0.0,0.0,0.0,0.0,0.0,0.0,0.0,0.0,0.0010332028952637533,-0.0008500379312428641,0.0010044908356356397,0.0,0.0,0.0,0.0,0.0,0.0,0.0,0.0,0.0,0.01309739832534234,0.03019684639217748,9.808784540968327,0.0,0.0,0.0,0.0,0.0,0.0,0.0,0.0,0.0
2025/05/25 19:00:17.166514521,1748192417,166244330,mA1/imu,0.29481738735416885,-0.9555532818583976,-0.000728831715367561,-0.00032007442581881993,0.0,0.0,0.0,0.0,0.0,0.0,0.0,0.0,0.0,0.001269402166563785,-0.0007728028683164157,0.0009809519792889753,0.0,0.0,0.0,0.0,0.0,0.0,0.0,0.0,0.0,0.008095053955085047,-0.5738496436831705,9.809553574133796,0.0,0.0,0.0,0.0,0.0,0.0,0.0,0.0,0.0
2025/05/25 19:00:17.216802415,1748192417,216165556,mA1/imu,0.29479305783464865,-0.9555607894924081,-0.000718015184441466,-0.00033925114340567215,0.0,0.0,0.0,0.0,0.0,0.0,0.0,0.0,0.0,0.0010578078776335967,-0.0005449067616708233,0.0010202639511150118,0.0,0.0,0.0,0.0,0.0,0.0,0.0,0.0,0.0,0.013659584009236291,-0.5847105564723659,9.809820960962004,0.0,0.0,0.0,0.0,0.0,0.0,0.0,0.0,0.0
2025/05/25 19:00:17.267430423,1748192417,267243367,mA1/imu,0.2947700744168756,-0.9555678779828077,-0.0007126187738406122,-0.00035492278961668034,0.0,0.0,0.0,0.0,0.0,0.0,0.0,0.0,0.0,-0.00016148473007056204,-0.0007468892485162524,0.000793680126328237,0.0,0.0,0.0,0.0,0.0,0.0,0.0,0.0,0.0,0.06312073308736277,-0.02753499384575807,9.808473184603049,0.0,0.0,0.0,0.0,0.0,0.0,0.0,0.0,0.0
2025/05/25 19:00:17.317383110,1748192417,317115809,mA1/imu,0.2947631313423958,-0.9555700061074558,-0.0007115934772522159,-0.0003917444900858668,0.0,0.0,0.0,0.0,0.0,0.0,0.0,0.0,0.0,-0.0005211813278171994,-0.0014713302980835568,0.00015716989668813008,0.0,0.0,0.0,0.0,0.0,0.0,0.0,0.0,0.0,0.010173587155522653,-0.04193084228330349,9.811202534323042,0.0,0.0,0.0,0.0,0.0,0.0,0.0,0.0,0.0
2025/05/25 19:00:17.368629423,1748192417,368362825,mA1/imu,0.29475965846736324,-0.9555710616205382,-0.000714010814134566,-0.00042440800914803035,0.0,0.0,0.0,0.0,0.0,0.0,0.0,0.0,0.0,-0.0008671782627816133,-0.0011223100418577831,0.00011670406543103323,0.0,0.0,0.0,0.0,0.0,0.0,0.0,0.0,0.0,0.010502863262462992,0.5678694103847832,9.812904796596227,0.0,0.0,0.0,0.0,0.0,0.0,0.0,0.0,0.0
2025/05/25 19:00:17.418474459,1748192417,418188982,mA1/imu,0.29475806993504367,-0.9555715379084091,-0.000719371409908562,-0.0004457042744960377,0.0,0.0,0.0,0.0,0.0,0.0,0.0,0.0,0.0,-0.0007807363833965235,-0.0006954737522236637,5.31715940289726e-05,0.0,0.0,0.0,0.0,0.0,0.0,0.0,0.0,0.0,0.009223330804990066,0.5899121337121838,9.810209103799153,0.0,0.0,0.0,0.0,0.0,0.0,0.0,0.0,0.0
2025/05/25 19:00:17.469509834,1748192417,469217019,mA1/imu,0.29475713172184304,-0.9555718154567103,-0.0007299904345526676,-0.000453781714120111,0.0,0.0,0.0,0.0,0.0,0.0,0.0,0.0,0.0,-0.0008369496524554596,-0.0002578372120409477,2.052508434618412e-05,0.0,0.0,0.0,0.0,0.0,0.0,0.0,0.0,0.0,0.012182358310918273,0.5987250977109183,9.810735171025897,0.0,0.0,0.0,0.0,0.0,0.0,0.0,0.0,0.0
2025/05/25 19:00:17.519770810,1748192417,519476440,mA1/imu,0.29475731205883193,-0.9555717558330518,-0.0007364965228748968,-0.0004516800445203142,0.0,0.0,0.0,0.0,0.0,0.0,0.0,0.0,0.0,-0.00019983896491201092,0.00018473820546793587,-1.55106647831457e-05,0.0,0.0,0.0,0.0,0.0,0.0,0.0,0.0,0.0,0.009271430349240262,-0.07973682262062959,9.810884337057864,0.0,0.0,0.0,0.0,0.0,0.0,0.0,0.0,0.0
2025/05/25 19:00:17.570799291,1748192417,570542437,mA1/imu,0.2947579735008518,-0.9555715566093632,-0.0007377756683676154,-0.00043925379134542107,0.0,0.0,0.0,0.0,0.0,0.0,0.0,0.0,0.0,0.0007991078867064552,0.0006238482835810037,-4.2473654984559006e-05,0.0,0.0,0.0,0.0,0.0,0.0,0.0,0.0,0.0,0.011595420663384821,-0.5299500405541682,9.80998259554822,0.0,0.0,0.0,0.0,0.0,0.0,0.0,0.0,0.0
2025/05/25 19:00:17.620629834,1748192417,620374227,mA1/imu,0.2947595931273724,-0.9555710612868096,-0.0007467433307320728,-0.00041408330622967127,0.0,0.0,0.0,0.0,0.0,0.0,0.0,0.0,0.0,-0.0007298397110360588,0.0010230101653470557,-7.441682996952784e-05,0.0,0.0,0.0,0.0,0.0,0.0,0.0,0.0,0.0,0.009344169148060263,0.24461192701022058,9.81044601546924,0.0,0.0,0.0,0.0,0.0,0.0,0.0,0.0,0.0
2025/05/25 19:00:17.672917328,1748192417,672459008,mA1/imu,0.2947616716478808,-0.9555704281749985,-0.0007549017373385525,-0.0003792732050017249,0.0,0.0,0.0,0.0,0.0,0.0,0.0,0.0,0.0,-0.0007157770592634067,0.001353679253592086,-0.00010151469866136985,0.0,0.0,0.0,0.0,0.0,0.0,0.0,0.0,0.0,0.012778380783393724,0.005049856385051987,9.810133881291451,0.0,0.0,0.0,0.0,0.0,0.0,0.0,0.0,0.0
2025/05/25 19:00:17.722539572,1748192417,722348908,mA1/imu,0.29476473903660066,-0.9555694970768149,-0.0007544569202935505,-0.00034010557632689603,0.0,0.0,0.0,0.0,0.0,0.0,0.0,0.0,0.0,0.00045245884180028143,0.00159250701103743,-0.00013489846482121062,0.0,0.0,0.0,0.0,0.0,0.0,0.0,0.0,0.0,0.01015445026460433,-0.5441334737954475,9.810123964441383,0.0,0.0,0.0,0.0,0.0,0.0,0.0,0.0,0.0
2025/05/25 19:00:17.773619829,1748192417,773321868,mA1/imu,0.294768544406217,-0.9555683369125926,-0.0007559971032289009,-0.0002952746550813908,0.0,0.0,0.0,0.0,0.0,0.0,0.0,0.0,0.0,0.0001474824262788395,0.0017156521806985534,-0.0001857085061552871,0.0,0.0,0.0,0.0,0.0,0.0,0.0,0.0,0.0,0.013750197979641395,-0.5476734617559941,9.809266928354885,0.0,0.0,0.0,0.0,0.0,0.0,0.0,0.0,0.0
2025/05/25 19:00:17.822344083,1748192417,818707993,mA1/imu,0.2947735220975241,-0.9555668111668876,-0.0007604313558399272,-0.0002486176171989504,0.0,0.0,0.0,0.0,0.0,0.0,0.0,0.0,0.0,-0.0013227297031916936,0.001743753151246518,-0.00021185078345244796,0.0,0.0,0.0,0.0,0.0,0.0,0.0,0.0,0.0,0.011473204350513097,0.5893093291923616,9.811138165074864,0.0,0.0,0.0,0.0,0.0,0.0,0.0,0.0,0.0
2025/05/25 19:00:17.873596821,1748192417,869740303,mA1/imu,0.2947782020447452,-0.9555653779895519,-0.0007609150203663347,-0.00020247292157672084,0.0,0.0,0.0,0.0,0.0,0.0,0.0,0.0,0.0,-0.0009100255866080993,0.0017845120555745194,-0.0001620036320703134,0.0,0.0,0.0,0.0,0.0,0.0,0.0,0.0,0.0,0.007290104537207216,-0.010850838603472407,9.81002675802985,0.0,0.0,0.0,0.0,0.0,0.0,0.0,0.0,0.0
2025/05/25 19:00:17.919838507,1748192417,919673500,mA1/imu,0.29478167718611964,-0.9555643121145361,-0.0007640245844821644,-0.00015644438724112878,0.0,0.0,0.0,0.0,0.0,0.0,0.0,0.0,0.0,-5.400503433353314e-05,0.0016472976229488705,-0.00014438495951639736,0.0,0.0,0.0,0.0,0.0,0.0,0.0,0.0,0.0,0.01177589889907241,-0.5856484340984646,9.808708690218591,0.0,0.0,0.0,0.0,0.0,0.0,0.0,0.0,0.0
2025/05/25 19:00:17.971075388,1748192417,970687129,mA1/imu,0.29478517057335135,-0.9555632390874039,-0.0007653489143403154,-0.00011642966980590324,0.0,0.0,0.0,0.0,0.0,0.0,0.0,0.0,0.0,1.5150303863405994e-05,0.0014024397195831905,-0.00014508656271381887,0.0,0.0,0.0,0.0,0.0,0.0,0.0,0.0,0.0,0.012536465691812904,-0.5888682194715822,9.807848546174625,0.0,0.0,0.0,0.0,0.0,0.0,0.0,0.0,0.0
2025/05/25 19:00:18.20926305,1748192418,20687992,mA1/imu,0.29479136106196396,-0.9555613341146784,-0.0007632114558900067,-8.772960891636689e-05,0.0,0.0,0.0,0.0,0.0,0.0,0.0,0.0,0.0,-0.0014319642666793509,0.0009549987765728296,-0.0003260316299474111,0.0,0.0,0.0,0.0,0.0,0.0,0.0,0.0,0.0,0.013501639312986447,0.562211459520081,9.810231196245972,0.0,0.0,0.0,0.0,0.0,0.0,0.0,0.0,0.0
2025/05/25 19:00:18.71938513,1748192418,71688335,mA1/imu,0.29479937451340293,-0.9555588654669224,-0.0007606714995845238,-6.923109443202066e-05,0.0,0.0,0.0,0.0,0.0,0.0,0.0,0.0,0.0,-0.001513245950079843,0.0005894888572101811,-0.00034970401876572237,0.0,0.0,0.0,0.0,0.0,0.0,0.0,0.0,0.0,0.01494777212494958,0.5494620777635474,9.80970769616907,0.0,0.0,0.0,0.0,0.0,0.0,0.0,0.0,0.0
2025/05/25 19:00:18.121731787,1748192418,121549763,mA1/imu,0.29480874130494705,-0.9555559705625154,-0.0007679028583870527,-5.9141542735619517e-05,0.0,0.0,0.0,0.0,0.0,0.0,0.0,0.0,0.0,-0.0006160149953967997,0.00013549749896906243,-0.0004050003017353379,0.0,0.0,0.0,0.0,0.0,0.0,0.0,0.0,0.0,0.011201711485362727,-0.024040080634367054,9.809358400470327,0.0,0.0,0.0,0.0,0.0,0.0,0.0,0.0,0.0
2025/05/25 19:00:18.172674297,1748192418,172449127,mA1/imu,0.29481889325877664,-0.955552842821462,-0.0007620172353606649,-6.390012122904629e-05,0.0,0.0,0.0,0.0,0.0,0.0,0.0,0.0,0.0,0.001550956587187112,-0.000288114682558797,-0.0004521833195726417,0.0,0.0,0.0,0.0,0.0,0.0,0.0,0.0,0.0,0.013804478367706461,-0.41845614283731036,9.808518022695779,0.0,0.0,0.0,0.0,0.0,0.0,0.0,0.0,0.0
2025/05/25 19:00:18.222650626,1748192418,222332522,mA1/imu,0.294830140185556,-0.9555493699214398,-0.0007643448690136051,-7.653643677308524e-05,0.0,0.0,0.0,0.0,0.0,0.0,0.0,0.0,0.0,-3.650312449619017e-05,-0.0006415852794911189,-0.00047430855718260913,0.0,0.0,0.0,0.0,0.0,0.0,0.0,0.0,0.0,0.011458472032360017,0.6249540331265059,9.810324358845957,0.0,0.0,0.0,0.0,0.0,0.0,0.0,0.0,0.0
2025/05/25 19:00:18.273539007,1748192418,273359238,mA1/imu,0.294841615781434,-0.9555458190240542,-0.0007748137579774178,-9.493515244874827e-05,0.0,0.0,0.0,0.0,0.0,0.0,0.0,0.0,0.0,-0.0014368540190630762,-0.0009526504611313232,-0.0004933202131171712,0.0,0.0,0.0,0.0,0.0,0.0,0.0,0.0,0.0,0.013862139761510264,0.52322373822311,9.810046273859145,0.0,0.0,0.0,0.0,0.0,0.0,0.0,0.0,0.0
2025/05/25 19:00:18.323580862,1748192418,323212115,mA1/imu,0.29485414989498443,-0.955541945729452,-0.000777747001058541,-0.00012389867456486127,0.0,0.0,0.0,0.0,0.0,0.0,0.0,0.0,0.0,0.0003634740487359662,-0.0012397732095763413,-0.0005347691727568833,0.0,0.0,0.0,0.0,0.0,0.0,0.0,0.0,0.0,0.009956721665786858,-0.6144853947298219,9.808977040255012,0.0,0.0,0.0,0.0,0.0,0.0,0.0,0.0,0.0
2025/05/25 19:00:18.374883181,1748192418,374622228,mA1/imu,0.2948670433009873,-0.9555379644602853,-0.0007742816385214673,-0.00016043058517826626,0.0,0.0,0.0,0.0,0.0,0.0,0.0,0.0,0.0,0.0008007430294473003,-0.001456946019186954,-0.0005469042004334645,0.0,0.0,0.0,0.0,0.0,0.0,0.0,0.0,0.0,0.016170277413109745,0.04562602313305064,9.810145254040524,0.0,0.0,0.0,0.0,0.0,0.0,0.0,0.0,0.0
2025/05/25 19:00:18.415102127,1748192418,414608709,mA1/imu,0.2948797634724843,-0.9555340295092156,-0.0007762668929421714,-0.0002023709566049379,0.0,0.0,0.0,0.0,0.0,0.0,0.0,0.0,0.0,0.0006787576379350381,-0.0017161317390374537,-0.0005128585110468607,0.0,0.0,0.0,0.0,0.0,0.0,0.0,0.0,0.0,0.014571864792786313,0.026993798239858518,9.81031036901162,0.0,0.0,0.0,0.0,0.0,0.0,0.0,0.0,0.0
2025/05/25 19:00:18.467992100,1748192418,466385892,mA1/imu,0.29489091256005,-0.955530573473957,-0.0007818146497308406,-0.00024821741559830454,0.0,0.0,0.0,0.0,0.0,0.0,0.0,0.0,0.0,-0.0002727785642218266,-0.0018995725790898008,-0.0004381388166261913,0.0,0.0,0.0,0.0,0.0,0.0,0.0,0.0,0.0,0.01889785997225728,0.13235525636273243,9.810617236205978,0.0,0.0,0.0,0.0,0.0,0.0,0.0,0.0,0.0
2025/05/25 19:00:18.515736154,1748192418,515413144,mA1/imu,0.29490036148230936,-0.955527645222808,-0.0007775260629591704,-0.00030243310115582174,0.0,0.0,0.0,0.0,0.0,0.0,0.0,0.0,0.0,0.001719351961455674,-0.0021048008049331735,-0.0003668551595703059,0.0,0.0,0.0,0.0,0.0,0.0,0.0,0.0,0.0,0.019762545186165735,-0.5420283239086925,9.80929930293936,0.0,0.0,0.0,0.0,0.0,0.0,0.0,0.0,0.0
2025/05/25 19:00:18.568054803,1748192418,567551886,mA1/imu,0.2949084693436775,-0.9555251254284114,-0.0007747243802112139,-0.00035942526690541197,0.0,0.0,0.0,0.0,0.0,0.0,0.0,0.0,0.0,0.0006328247890379358,-0.002167998589517824,-0.0003310889290638811,0.0,0.0,0.0,0.0,0.0,0.0,0.0,0.0,0.0,0.01911396756463818,0.28629256852405893,9.809521804620976,0.0,0.0,0.0,0.0,0.0,0.0,0.0,0.0,0.0
2025/05/25 19:00:18.618026945,1748192418,617387454,mA1/imu,0.2949158688576113,-0.9555228182128157,-0.0007757409386651234,-0.0004152066890410522,0.0,0.0,0.0,0.0,0.0,0.0,0.0,0.0,0.0,0.0006556895316482616,-0.002113204300971012,-0.00032583619059590524,0.0,0.0,0.0,0.0,0.0,0.0,0.0,0.0,0.0,0.01893168982098806,0.18384121081995855,9.811459795547973,0.0,0.0,0.0,0.0,0.0,0.0,0.0,0.0,0.0
2025/05/25 19:00:18.669626583,1748192418,669324555,mA1/imu,0.2949237883229038,-0.9555203484772183,-0.0007774905729778109,-0.00046715698772616793,0.0,0.0,0.0,0.0,0.0,0.0,0.0,0.0,0.0,0.00016113004865425795,-0.0018516133999825555,-0.0002776758793255084,0.0,0.0,0.0,0.0,0.0,0.0,0.0,0.0,0.0,0.0001501786115961131,-0.017485880042576975,9.810252704346954,0.0,0.0,0.0,0.0,0.0,0.0,0.0,0.0,0.0
2025/05/25 19:00:18.719416105,1748192418,719131314,mA1/imu,0.2949256284024062,-0.9555197649312447,-0.0007715593170631919,-0.0005071818260230789,0.0,0.0,0.0,0.0,0.0,0.0,0.0,0.0,0.0,0.0015349045416678873,-0.0013121891935596965,-3.923505543970572e-05,0.0,0.0,0.0,0.0,0.0,0.0,0.0,0.0,0.0,0.019769266723141644,-0.5539086140386361,9.809723597029823,0.0,0.0,0.0,0.0,0.0,0.0,0.0,0.0,0.0
2025/05/25 19:00:18.770486674,1748192418,770233411,mA1/imu,0.29492725003350695,-0.9555192456022311,-0.0007754435970867129,-0.0005358718543941052,0.0,0.0,0.0,0.0,0.0,0.0,0.0,0.0,0.0,0.0015554926433397134,-0.0010377025291704559,-6.932831746745524e-05,0.0,0.0,0.0,0.0,0.0,0.0,0.0,0.0,0.0,0.018760024967756667,-0.5412618492716336,9.809060068441134,0.0,0.0,0.0,0.0,0.0,0.0,0.0,0.0,0.0
2025/05/25 19:00:18.820334502,1748192418,820041649,mA1/imu,0.2949276720277493,-0.9555191021949173,-0.0007767192524237283,-0.0005570638334120891,0.0,0.0,0.0,0.0,0.0,0.0,0.0,0.0,0.0,-0.0012574658546219634,-0.0006786998889433057,1.6681800828429163e-05,0.0,0.0,0.0,0.0,0.0,0.0,0.0,0.0,0.0,0.019745319077579586,0.5285870289508614,9.811812437434765,0.0,0.0,0.0,0.0,0.0,0.0,0.0,0.0,0.0
2025/05/25 19:00:18.871451459,1748192418,871234503,mA1/imu,0.29492766997783915,-0.9555191005481294,-0.000767913723884188,-0.0005729551897284511,0.0,0.0,0.0,0.0,0.0,0.0,0.0,0.0,0.0,-0.00020305103437576468,-0.0002979849699565145,1.8351216628619795e-05,0.0,0.0,0.0,0.0,0.0,0.0,0.0,0.0,0.0,0.008860691488538588,0.4933920532388018,9.813910055748767,0.0,0.0,0.0,0.0,0.0,0.0,0.0,0.0,0.0
2025/05/25 19:00:18.921373668,1748192418,921008316,mA1/imu,0.29492622158059234,-0.9555195389299551,-0.000781943308739119,-0.0005684293651642362,0.0,0.0,0.0,0.0,0.0,0.0,0.0,0.0,0.0,-0.0007920843479024726,0.00012041839895057095,5.076996745533945e-05,0.0,0.0,0.0,0.0,0.0,0.0,0.0,0.0,0.0,0.0228964923642539,-0.03790409184037255,9.807930717451772,0.0,0.0,0.0,0.0,0.0,0.0,0.0,0.0,0.0
2025/05/25 19:00:18.973106584,1748192418,972211673,mA1/imu,0.29492538951467967,-0.9555198008115449,-0.0007818034457650093,-0.000560053615480637,0.0,0.0,0.0,0.0,0.0,0.0,0.0,0.0,0.0,0.00047308356281683384,0.00045589303694115214,2.325130300856363e-05,0.0,0.0,0.0,0.0,0.0,0.0,0.0,0.0,0.0,0.019993008117213232,-0.5663050670596926,9.810203128305476,0.0,0.0,0.0,0.0,0.0,0.0,0.0,0.0,0.0
2025/05/25 19:00:19.22139862,1748192419,21930033,mA1/imu,0.29492527480538194,-0.9555198405890629,-0.0007901034450306725,-0.000540609071514353,0.0,0.0,0.0,0.0,0.0,0.0,0.0,0.0,0.0,-0.00011873282132574288,0.0007591792779830304,-5.648916291025348e-06,0.0,0.0,0.0,0.0,0.0,0.0,0.0,0.0,0.0,0.020735179566215428,0.03332747353760119,9.810748434444603,0.0,0.0,0.0,0.0,0.0,0.0,0.0,0.0,0.0
2025/05/25 19:00:19.73082586,1748192419,72901532,mA1/imu,0.2949259538428527,-0.9555196406335953,-0.0007957684444525223,-0.0005146512522822951,0.0,0.0,0.0,0.0,0.0,0.0,0.0,0.0,0.0,-0.0005457543918300383,0.0010355864493356392,-4.850582906943269e-05,0.0,0.0,0.0,0.0,0.0,0.0,0.0,0.0,0.0,0.021369414930807136,0.6496406931067416,9.811654119143476,0.0,0.0,0.0,0.0,0.0,0.0,0.0,0.0,0.0
2025/05/25 19:00:19.122986071,1748192419,122773155,mA1/imu,0.2949279725440441,-0.9555190167092136,-0.0008199519037688552,-0.00047686160750992765,0.0,0.0,0.0,0.0,0.0,0.0,0.0,0.0,0.0,-0.0008180270617940671,0.001214545495759023,-0.00010201137746896316,0.0,0.0,0.0,0.0,0.0,0.0,0.0,0.0,0.0,0.021632495366229833,-0.08402513426341415,9.807670147034623,0.0,0.0,0.0,0.0,0.0,0.0,0.0,0.0,0.0
2025/05/25 19:00:19.174054915,1748192419,173784408,mA1/imu,0.2949300068427738,-0.9555183926242035,-0.0008384777126533957,-0.000435173190051514,0.0,0.0,0.0,0.0,0.0,0.0,0.0,0.0,0.0,-0.0013235688996290171,0.0015089898397896624,-3.0947719803052436e-05,0.0,0.0,0.0,0.0,0.0,0.0,0.0,0.0,0.0,0.013359461419698697,-0.6509607228582979,9.808861869514852,0.0,0.0,0.0,0.0,0.0,0.0,0.0,0.0,0.0
2025/05/25 19:00:19.214464315,1748192419,214330444,mA1/imu,0.29493042345098397,-0.9555182700758805,-0.0008540916096703782,-0.000389103767633386,0.0,0.0,0.0,0.0,0.0,0.0,0.0,0.0,0.0,-0.002463095900061818,0.0015850956365201356,-2.853985034763192e-05,0.0,0.0,0.0,0.0,0.0,0.0,0.0,0.0,0.0,0.021646907014546565,-0.09423960852814618,9.808971757238155,0.0,0.0,0.0,0.0,0.0,0.0,0.0,0.0,0.0
2025/05/25 19:00:19.265432634,1748192419,265343959,mA1/imu,0.2949319184644757,-0.9555178173453154,-0.0008627370069892591,-0.00034625332505023817,0.0,0.0,0.0,0.0,0.0,0.0,0.0,0.0,0.0,-0.0028488633973549095,0.0014496252904614565,-0.00013514283485517944,0.0,0.0,0.0,0.0,0.0,0.0,0.0,0.0,0.0,0.03722007114867516,0.4940362226323954,9.80819056430936,0.0,0.0,0.0,0.0,0.0,0.0,0.0,0.0,0.0
2025/05/25 19:00:19.315338223,1748192419,315176378,mA1/imu,0.29494015765777115,-0.955515267498104,-0.0008838843176074491,-0.00030939836588300923,0.0,0.0,0.0,0.0,0.0,0.0,0.0,0.0,0.0,-0.0018326135604745846,0.0010694417150567852,-0.00041498903014020527,0.0,0.0,0.0,0.0,0.0,0.0,0.0,0.0,0.0,0.02061245356479409,-0.0491385446553557,9.810016907237872,0.0,0.0,0.0,0.0,0.0,0.0,0.0,0.0,0.0
2025/05/25 19:00:19.367278923,1748192419,366271935,mA1/imu,0.2949514894165825,-0.9555117657661624,-0.0008980288775218954,-0.0002791370726627384,0.0,0.0,0.0,0.0,0.0,0.0,0.0,0.0,0.0,-0.0019652238956714085,0.000910094913797038,-0.0005663950722328471,0.0,0.0,0.0,0.0,0.0,0.0,0.0,0.0,0.0,0.032749128098159906,0.5523976696004398,9.812619904745986,0.0,0.0,0.0,0.0,0.0,0.0,0.0,0.0,0.0
2025/05/25 19:00:19.416167752,1748192419,415961029,mA1/imu,0.29497117318478117,-0.9555056742936815,-0.0009208321687995253,-0.00025583332001471803,0.0,0.0,0.0,0.0,0.0,0.0,0.0,0.0,0.0,-0.0014357683854176104,0.0005349311950567582,-0.0009145449686569776,0.0,0.0,0.0,0.0,0.0,0.0,0.0,0.0,0.0,0.01613041989319769,0.2580732283877684,9.807964514239933,0.0,0.0,0.0,0.0,0.0,0.0,0.0,0.0,0.0
2025/05/25 19:00:19.468628769,1748192419,466997849,mA1/imu,0.29499483529898135,-0.9554983580509264,-0.0009373264793295815,-0.00023733516728253996,0.0,0.0,0.0,0.0,0.0,0.0,0.0,0.0,0.0,-0.00043082742356529357,0.00046275053010083524,-0.0010915016056260156,0.0,0.0,0.0,0.0,0.0,0.0,0.0,0.0,0.0,0.026798094871165294,-0.32108077010144365,9.811052012585352,0.0,0.0,0.0,0.0,0.0,0.0,0.0,0.0,0.0
2025/05/25 19:00:19.521495416,1748192419,518696155,mA1/imu,0.29502512283301413,-0.9554889942872985,-0.0009534558137604277,-0.00022274474854356771,0.0,0.0,0.0,0.0,0.0,0.0,0.0,0.0,0.0,-0.00039018337305584425,0.0003886232796358611,-0.0013215705619157776,0.0,0.0,0.0,0.0,0.0,0.0,0.0,0.0,0.0,0.010585170622917061,-0.16520545657071545,9.808977132667156,0.0,0.0,0.0,0.0,0.0,0.0,0.0,0.0,0.0
2025/05/25 19:00:19.574640635,1748192419,573529963,mA1/imu,0.29506009164721925,-0.9554781853858726,-0.0009677261036251834,-0.00020754527896323116,0.0,0.0,0.0,0.0,0.0,0.0,0.0,0.0,0.0,-0.0011704436288710693,0.0003831502607110949,-0.0016286447604043303,0.0,0.0,0.0,0.0,0.0,0.0,0.0,0.0,0.0,0.0186929806636444,0.4807816688569958,9.81025856464551,0.0,0.0,0.0,0.0,0.0,0.0,0.0,0.0,0.0
2025/05/25 19:00:19.615824487,1748192419,615115605,mA1/imu,0.29510045709892524,-0.9554657236438358,-0.0009663327383579175,-0.0001932946074929027,0.0,0.0,0.0,0.0,0.0,0.0,0.0,0.0,0.0,0.0011068231719605567,0.0007447084869464626,-0.0016567461462454194,0.0,0.0,0.0,0.0,0.0,0.0,0.0,0.0,0.0,-0.0014163886597610975,-0.5383950692755756,9.808118181328862,0.0,0.0,0.0,0.0,0.0,0.0,0.0,0.0,0.0
2025/05/25 19:00:19.670993345,1748192419,670545205,mA1/imu,0.2951387633785852,-0.9554538990382677,-0.0009639355146997434,-0.00016730886060600694,0.0,0.0,0.0,0.0,0.0,0.0,0.0,0.0,0.0,0.0008231195094599001,0.0011800676229931555,-0.001564009424297919,0.0,0.0,0.0,0.0,0.0,0.0,0.0,0.0,0.0,-0.0016543571716059573,-0.2790834843616173,9.810075490714965,0.0,0.0,0.0,0.0,0.0,0.0,0.0,0.0,0.0
2025/05/25 19:00:19.723792409,1748192419,723596403,mA1/imu,0.29517874984093956,-0.9554415598964163,-0.0009550769109989616,-0.00013817791816022717,0.0,0.0,0.0,0.0,0.0,0.0,0.0,0.0,0.0,0.0012719820082447767,0.0012443723021498914,-0.0017390075239982837,0.0,0.0,0.0,0.0,0.0,0.0,0.0,0.0,0.0,0.002372526413967624,-0.5598481954556016,9.808562506611192,0.0,0.0,0.0,0.0,0.0,0.0,0.0,0.0,0.0
2025/05/25 19:00:19.764757684,1748192419,764593975,mA1/imu,0.295222219278779,-0.9554281491755355,-0.0009387246224856354,-0.00010864256103770636,0.0,0.0,0.0,0.0,0.0,0.0,0.0,0.0,0.0,-0.0002710294073372546,0.001235766161792337,-0.00198401369627513,0.0,0.0,0.0,0.0,0.0,0.0,0.0,0.0,0.0,0.015639204066736613,0.5708990110665311,9.812328754550286,0.0,0.0,0.0,0.0,0.0,0.0,0.0,0.0,0.0
2025/05/25 19:00:19.815113188,1748192419,814930736,mA1/imu,0.29527103776838104,-0.9554130856887522,-0.0009184722547403575,-7.974081513698657e-05,0.0,0.0,0.0,0.0,0.0,0.0,0.0,0.0,0.0,0.0006059722361904345,0.0014911168704973517,-0.0020049200853480193,0.0,0.0,0.0,0.0,0.0,0.0,0.0,0.0,0.0,-0.005645052376397625,-0.001099977033295195,9.812114092124496,0.0,0.0,0.0,0.0,0.0,0.0,0.0,0.0,0.0
2025/05/25 19:00:19.866370716,1748192419,866111413,mA1/imu,0.2953181610751809,-0.9553985489259768,-0.000891278165001259,-4.5525205340068335e-05,0.0,0.0,0.0,0.0,0.0,0.0,0.0,0.0,0.0,0.0017167812538994957,0.0016030960623701638,-0.0020238596972736527,0.0,0.0,0.0,0.0,0.0,0.0,0.0,0.0,0.0,0.02062778214483685,-0.5765696931020874,9.808323782634366,0.0,0.0,0.0,0.0,0.0,0.0,0.0,0.0,0.0
2025/05/25 19:00:19.916262486,1748192419,915921380,mA1/imu,0.29537178119267804,-0.9553819943855201,-0.0008691542238029756,-1.58096846007875e-05,0.0,0.0,0.0,0.0,0.0,0.0,0.0,0.0,0.0,0.0019504181000888395,0.0013934718417359419,-0.0022664746523825374,0.0,0.0,0.0,0.0,0.0,0.0,0.0,0.0,0.0,-0.006607909210528895,-0.5565260628383762,9.810456699471194,0.0,0.0,0.0,0.0,0.0,0.0,0.0,0.0,0.0
2025/05/25 19:00:19.967404282,1748192419,966950744,mA1/imu,0.29542466290629193,-0.9553656734326924,-0.0008356947339091629,1.3693557398594057e-05,0.0,0.0,0.0,0.0,0.0,0.0,0.0,0.0,0.0,0.0005636108367134612,0.0015947055222225108,-0.0021736020321197914,0.0,0.0,0.0,0.0,0.0,0.0,0.0,0.0,0.0,-0.0072076210657563465,0.46178366875591825,9.812446639759731,0.0,0.0,0.0,0.0,0.0,0.0,0.0,0.0,0.0
2025/05/25 19:00:20.16883558,1748192420,16735180,mA1/imu,0.29548026898947827,-0.9553484996349163,-0.0008081650272377353,4.1862973279432214e-05,0.0,0.0,0.0,0.0,0.0,0.0,0.0,0.0,0.0,-0.00023308492316896265,0.0012331966415515252,-0.002460135310220973,0.0,0.0,0.0,0.0,0.0,0.0,0.0,0.0,0.0,0.007180130172714103,0.5428725931892099,9.81316611200957,0.0,0.0,0.0,0.0,0.0,0.0,0.0,0.0,0.0
2025/05/25 19:00:20.68790025,1748192420,68370841,mA1/imu,0.295539702594963,-0.9553301375284443,-0.000780038261895166,6.372028440836363e-05,0.0,0.0,0.0,0.0,0.0,0.0,0.0,0.0,0.0,0.0008353106334550566,0.001204926896280991,-0.0024580089957774885,0.0,0.0,0.0,0.0,0.0,0.0,0.0,0.0,0.0,-0.009070047203760066,-0.42665191916096235,9.810179011424975,0.0,0.0,0.0,0.0,0.0,0.0,0.0,0.0,0.0
2025/05/25 19:00:20.118551662,1748192420,118207812,mA1/imu,0.2955970050343475,-0.955312435743193,-0.0007439602795674909,8.516005071568841e-05,0.0,0.0,0.0,0.0,0.0,0.0,0.0,0.0,0.0,0.0022385789735480015,0.0012550156615917104,-0.002356120385193743,0.0,0.0,0.0,0.0,0.0,0.0,0.0,0.0,0.0,-0.008709366585027033,-0.3567245822323074,9.809931363959869,0.0,0.0,0.0,0.0,0.0,0.0,0.0,0.0,0.0
2025/05/25 19:00:20.169489037,1748192420,169265737,mA1/imu,0.295652053657198,-0.9552954174423091,-0.0007186161252404512,0.00011033073219947058,0.0,0.0,0.0,0.0,0.0,0.0,0.0,0.0,0.0,0.0006178963574126355,0.0012573343245556158,-0.0022886151038873973,0.0,0.0,0.0,0.0,0.0,0.0,0.0,0.0,0.0,-0.009896022970299984,0.5834920540286741,9.810776500157896,0.0,0.0,0.0,0.0,0.0,0.0,0.0,0.0,0.0
2025/05/25 19:00:20.219266913,1748192420,218974021,mA1/imu,0.2957073288643713,-0.9552783202669544,-0.000698537933937085,0.00013611979873121664,0.0,0.0,0.0,0.0,0.0,0.0,0.0,0.0,0.0,0.0001655161611408671,0.0011907926467375305,-0.002296481803891509,0.0,0.0,0.0,0.0,0.0,0.0,0.0,0.0,0.0,-0.009401892133688467,-0.18094824221992376,9.811037239047687,0.0,0.0,0.0,0.0,0.0,0.0,0.0,0.0,0.0
2025/05/25 19:00:20.270373094,1748192420,270049273,mA1/imu,0.29576113125968334,-0.9552616836836577,-0.0006670516584510898,0.00015480290871018463,0.0,0.0,0.0,0.0,0.0,0.0,0.0,0.0,0.0,0.00040172855395441035,0.0009997933233092833,-0.0022370862299376476,0.0,0.0,0.0,0.0,0.0,0.0,0.0,0.0,0.0,-0.0037297917074922944,-0.0156626579600773,9.810222335789632,0.0,0.0,0.0,0.0,0.0,0.0,0.0,0.0,0.0
2025/05/25 19:00:20.320946079,1748192420,320539190,mA1/imu,0.295798804375323,-0.9552500337023557,-0.000636148930325697,0.00018909340660732419,0.0,0.0,0.0,0.0,0.0,0.0,0.0,0.0,0.0,0.0008313993405825652,0.0021460453844056263,-0.0011130097984553113,0.0,0.0,0.0,0.0,0.0,0.0,0.0,0.0,0.0,-0.03513668827226238,0.6506280924324948,9.810783679336044,0.0,0.0,0.0,0.0,0.0,0.0,0.0,0.0,0.0
2025/05/25 19:00:20.371704076,1748192420,371406057,mA1/imu,0.29582003514666627,-0.9552434624072237,-0.0006157770920945054,0.00023484602780410096,0.0,0.0,0.0,0.0,0.0,0.0,0.0,0.0,0.0,0.0007946155242751303,0.0021900015457435446,-0.0005180934656019401,0.0,0.0,0.0,0.0,0.0,0.0,0.0,0.0,0.0,-0.08617681762242345,0.02657429248258779,9.807759141090203,0.0,0.0,0.0,0.0,0.0,0.0,0.0,0.0,0.0
2025/05/25 19:00:20.422096502,1748192420,421866704,mA1/imu,0.29581050345403265,-0.9552464157336216,-0.0005819946690418816,0.00030423107362313186,0.0,0.0,0.0,0.0,0.0,0.0,0.0,0.0,0.0,0.0003177791258509633,0.0030764635898539294,0.0007100346926323944,0.0,0.0,0.0,0.0,0.0,0.0,0.0,0.0,0.0,-0.002240293357895567,-0.012255439473629927,9.81182127174404,0.0,0.0,0.0,0.0,0.0,0.0,0.0,0.0,0.0
2025/05/25 19:00:20.473151208,1748192420,472895861,mA1/imu,0.2957881066534965,-0.955253355515781,-0.0005409115526769821,0.000360767061802946,0.0,0.0,0.0,0.0,0.0,0.0,0.0,0.0,0.0,0.00226798191934158,0.0027587393208771648,0.001326130584347429,0.0,0.0,0.0,0.0,0.0,0.0,0.0,0.0,0.0,-0.09387182596597324,-0.33664625184126784,9.814131851903861,0.0,0.0,0.0,0.0,0.0,0.0,0.0,0.0,0.0
2025/05/25 19:00:20.522864152,1748192420,522646059,mA1/imu,0.295740344919652,-0.95526813169629,-0.000510974095767631,0.00042878637854260114,0.0,0.0,0.0,0.0,0.0,0.0,0.0,0.0,0.0,0.0021651760381948292,0.002528422448757441,0.0021948092329323785,0.0,0.0,0.0,0.0,0.0,0.0,0.0,0.0,0.0,0.004466589743004649,-0.5058273344311679,9.806290419960167,0.0,0.0,0.0,0.0,0.0,0.0,0.0,0.0,0.0
2025/05/25 19:00:20.574238504,1748192420,574021294,mA1/imu,0.2956859335562696,-0.9552849645095534,-0.0004958376289803843,0.00046842713859448245,0.0,0.0,0.0,0.0,0.0,0.0,0.0,0.0,0.0,0.0012387980913534289,0.0015304987029392306,0.0026010432269396267,0.0,0.0,0.0,0.0,0.0,0.0,0.0,0.0,0.0,-0.08404721348731367,-0.16900540395967023,9.812271145963852,0.0,0.0,0.0,0.0,0.0,0.0,0.0,0.0,0.0
2025/05/25 19:00:20.624100463,1748192420,623835990,mA1/imu,0.295608457562411,-0.955308932971619,-0.0004810594845214428,0.0005009830050972388,0.0,0.0,0.0,0.0,0.0,0.0,0.0,0.0,0.0,0.0014159065606470808,0.0008427891560176898,0.003404032560044858,0.0,0.0,0.0,0.0,0.0,0.0,0.0,0.0,0.0,0.012258091150384006,-0.380890690239132,9.807045446596707,0.0,0.0,0.0,0.0,0.0,0.0,0.0,0.0,0.0
2025/05/25 19:00:20.665458625,1748192420,665229858,mA1/imu,0.29552731632387935,-0.9553340318441274,-0.0004953934250887127,0.0004974858831956128,0.0,0.0,0.0,0.0,0.0,0.0,0.0,0.0,0.0,-0.0007264986187948888,-0.0009267097178226005,0.0035090116822503676,0.0,0.0,0.0,0.0,0.0,0.0,0.0,0.0,0.0,-0.017468353853684303,-0.026800403271282996,9.806518199964525,0.0,0.0,0.0,0.0,0.0,0.0,0.0,0.0,0.0
2025/05/25 19:00:20.715243024,1748192420,715066516,mA1/imu,0.29543384673698797,-0.9553629490569595,-0.0005120372801914122,0.0004643158396496758,0.0,0.0,0.0,0.0,0.0,0.0,0.0,0.0,0.0,-0.0006538256147449533,-0.0020900478257556976,0.003998261955612434,0.0,0.0,0.0,0.0,0.0,0.0,0.0,0.0,0.0,0.02409477323905795,0.04271006367870086,9.807669916395799,0.0,0.0,0.0,0.0,0.0,0.0,0.0,0.0,0.0
2025/05/25 19:00:20.767061031,1748192420,766116747,mA1/imu,0.2953384573147628,-0.9553924544164338,-0.0005478133566225384,0.0003918872346549855,0.0,0.0,0.0,0.0,0.0,0.0,0.0,0.0,0.0,-0.0005111996985232529,-0.0037153916268053188,0.004109821745532708,0.0,0.0,0.0,0.0,0.0,0.0,0.0,0.0,0.0,-0.019977183031823324,0.012794633335217305,9.812051374609526,0.0,0.0,0.0,0.0,0.0,0.0,0.0,0.0,0.0
2025/05/25 19:00:20.816227841,1748192420,816000106,mA1/imu,0.29523040536754014,-0.9554258562446948,-0.0005934419248138557,0.0002979803549210485,0.0,0.0,0.0,0.0,0.0,0.0,0.0,0.0,0.0,-0.0007309410829790928,-0.0046582223969012775,0.00460681576316814,0.0,0.0,0.0,0.0,0.0,0.0,0.0,0.0,0.0,0.024570196989460683,-0.003235353010702817,9.809929299898991,0.0,0.0,0.0,0.0,0.0,0.0,0.0,0.0,0.0
2025/05/25 19:00:20.867604499,1748192420,867184823,mA1/imu,0.29512047162954463,-0.9554598125699588,-0.0006513461323259513,0.00017186375502509124,0.0,0.0,0.0,0.0,0.0,0.0,0.0,0.0,0.0,-0.00062725499399848,-0.005859231600658893,0.004714472254327987,0.0,0.0,0.0,0.0,0.0,0.0,0.0,0.0,0.0,-0.017523545220252623,0.027849280533952893,9.806791112220003,0.0,0.0,0.0,0.0,0.0,0.0,0.0,0.0,0.0
2025/05/25 19:00:20.917014881,1748192420,916846066,mA1/imu,0.2949984477930162,-0.9554974595578534,-0.0007205891635009617,3.64617204727714e-05,0.0,0.0,0.0,0.0,0.0,0.0,0.0,0.0,0.0,-0.0013061061405549009,-0.006292718254035916,0.005180919380930558,0.0,0.0,0.0,0.0,0.0,0.0,0.0,0.0,0.0,0.023727731115312824,-0.024629000282739504,9.808814042900005,0.0,0.0,0.0,0.0,0.0,0.0,0.0,0.0,0.0
2025/05/25 19:00:20.968221721,1748192420,967879526,mA1/imu,0.29487529660979556,-0.955535407067447,-0.0007945810361907872,-0.00011802843003782358,0.0,0.0,0.0,0.0,0.0,0.0,0.0,0.0,0.0,-0.0007424122056050496,-0.006988622171741735,0.005170539572997453,0.0,0.0,0.0,0.0,0.0,0.0,0.0,0.0,0.0,0.006460859171841556,-0.3668121348525976,9.810872100243117,0.0,0.0,0.0,0.0,0.0,0.0,0.0,0.0,0.0
2025/05/25 19:00:21.19289943,1748192421,18065521,mA1/imu,0.29474894817617603,-0.9555742908636089,-0.0008683888010559268,-0.0002794466660234777,0.0,0.0,0.0,0.0,0.0,0.0,0.0,0.0,0.0,0.0001614402368462797,-0.007130254191378938,0.005295089339622807,0.0,0.0,0.0,0.0,0.0,0.0,0.0,0.0,0.0,0.021835572606044525,-0.5075612369529426,9.810558459180223,0.0,0.0,0.0,0.0,0.0,0.0,0.0,0.0,0.0
2025/05/25 19:00:21.70379067,1748192421,70174951,mA1/imu,0.2946232339825368,-0.955612922663515,-0.0009469079196707537,-0.0004420424841598388,0.0,0.0,0.0,0.0,0.0,0.0,0.0,0.0,0.0,-0.001139758494152978,-0.007102709310433513,0.005230020018093822,0.0,0.0,0.0,0.0,0.0,0.0,0.0,0.0,0.0,0.018730621965172722,0.625564732301788,9.811924356255076,0.0,0.0,0.0,0.0,0.0,0.0,0.0,0.0,0.0
2025/05/25 19:00:21.120830072,1748192421,120030386,mA1/imu,0.2944990450372797,-0.9556510352940066,-0.0010268585323486663,-0.0005973066031701394,0.0,0.0,0.0,0.0,0.0,0.0,0.0,0.0,0.0,-0.0009589355838308481,-0.006673980677870288,0.005166271237145325,0.0,0.0,0.0,0.0,0.0,0.0,0.0,0.0,0.0,0.01761878992844247,-0.2232819543402731,9.810277968627743,0.0,0.0,0.0,0.0,0.0,0.0,0.0,0.0,0.0
2025/05/25 19:00:21.171364319,1748192421,171047436,mA1/imu,0.29437648261608934,-0.9556886200114092,-0.0010972795636545944,-0.00073759123269947,0.0,0.0,0.0,0.0,0.0,0.0,0.0,0.0,0.0,-0.0016813282303884014,-0.005816738364163604,0.0050757706214787385,0.0,0.0,0.0,0.0,0.0,0.0,0.0,0.0,0.0,0.014637163737303584,0.4942139981871344,9.811554656783878,0.0,0.0,0.0,0.0,0.0,0.0,0.0,0.0,0.0
2025/05/25 19:00:21.224272706,1748192421,223256291,mA1/imu,0.2942570165239772,-0.9557252520988664,-0.001148527193938678,-0.0008553433526776268,0.0,0.0,0.0,0.0,0.0,0.0,0.0,0.0,0.0,0.00020612395675933488,-0.004611412601807878,0.004962345699574241,0.0,0.0,0.0,0.0,0.0,0.0,0.0,0.0,0.0,0.01488613975338978,-0.3419020438692768,9.810563888650604,0.0,0.0,0.0,0.0,0.0,0.0,0.0,0.0,0.0
2025/05/25 19:00:21.274545012,1748192421,274364983,mA1/imu,0.2941392899657863,-0.9557613565222551,-0.0011936653960969335,-0.0009394892675585355,0.0,0.0,0.0,0.0,0.0,0.0,0.0,0.0,0.0,-0.0008521836959202377,-0.0031600972286328606,0.00489805618695694,0.0,0.0,0.0,0.0,0.0,0.0,0.0,0.0,0.0,0.013963196474242122,0.21566578051835528,9.8125778612768,0.0,0.0,0.0,0.0,0.0,0.0,0.0,0.0,0.0
2025/05/25 19:00:21.314120129,1748192421,313976674,mA1/imu,0.2940230928290394,-0.9557970324435431,-0.0012129047483992474,-0.0009912201742998815,0.0,0.0,0.0,0.0,0.0,0.0,0.0,0.0,0.0,0.0006397211769351002,-0.0015592729730942,0.0048356735205142345,0.0,0.0,0.0,0.0,0.0,0.0,0.0,0.0,0.0,0.014054500610927452,0.06172900611825437,9.813081004246895,0.0,0.0,0.0,0.0,0.0,0.0,0.0,0.0,0.0
2025/05/25 19:00:21.366516763,1748192421,366324766,mA1/imu,0.29390838389790847,-0.9558322857091767,-0.001224467341298549,-0.0010020729617327357,0.0,0.0,0.0,0.0,0.0,0.0,0.0,0.0,0.0,0.0007966234633511825,9.968256177693209e-05,0.00478684123091602,0.0,0.0,0.0,0.0,0.0,0.0,0.0,0.0,0.0,0.014168710291055087,-0.22044886034188246,9.81166294628753,0.0,0.0,0.0,0.0,0.0,0.0,0.0,0.0,0.0
2025/05/25 19:00:21.416385793,1748192421,416137075,mA1/imu,0.29379370896050866,-0.9558675754510938,-0.001217596251228808,-0.0009758257243776585,0.0,0.0,0.0,0.0,0.0,0.0,0.0,0.0,0.0,0.001115872993934323,0.0017062005698471605,0.004788129053730816,0.0,0.0,0.0,0.0,0.0,0.0,0.0,0.0,0.0,0.01587310310667714,-0.5677657384166107,9.809166121156494,0.0,0.0,0.0,0.0,0.0,0.0,0.0,0.0,0.0
2025/05/25 19:00:21.467608470,1748192421,467224772,mA1/imu,0.293679398877081,-0.9559027965224682,-0.001190965164939049,-0.0009142634723096261,0.0,0.0,0.0,0.0,0.0,0.0,0.0,0.0,0.0,0.0006060762717802509,0.003427013058261164,0.004916390492737376,0.0,0.0,0.0,0.0,0.0,0.0,0.0,0.0,0.0,-0.024741540189433243,-0.3496987243989948,9.806786008214067,0.0,0.0,0.0,0.0,0.0,0.0,0.0,0.0,0.0
2025/05/25 19:00:21.517157034,1748192421,517012015,mA1/imu,0.2935571063702043,-0.9559405098310889,-0.0011434293103696755,-0.0008121162740453254,0.0,0.0,0.0,0.0,0.0,0.0,0.0,0.0,0.0,-0.0005316189584655638,0.004932904082850319,0.005118665182123528,0.0,0.0,0.0,0.0,0.0,0.0,0.0,0.0,0.0,0.020468721199612117,0.5454359142593252,9.811397281458545,0.0,0.0,0.0,0.0,0.0,0.0,0.0,0.0,0.0
2025/05/25 19:00:21.568565618,1748192421,568262772,mA1/imu,0.29343567306977725,-0.9559779574328869,-0.001085466859976577,-0.0006873385105660651,0.0,0.0,0.0,0.0,0.0,0.0,0.0,0.0,0.0,-8.031923559757154e-05,0.0057581732498427915,0.005064920138617896,0.0,0.0,0.0,0.0,0.0,0.0,0.0,0.0,0.0,0.022777252765817893,0.23775541671015132,9.810978481752564,0.0,0.0,0.0,0.0,0.0,0.0,0.0,0.0,0.0
2025/05/25 19:00:21.619454468,1748192421,617968509,mA1/imu,0.29331558668366675,-0.9560149718353508,-0.0010194982279147606,-0.0005485056365691213,0.0,0.0,0.0,0.0,0.0,0.0,0.0,0.0,0.0,0.0010714180483117456,0.006251675410043228,0.005008631043505905,0.0,0.0,0.0,0.0,0.0,0.0,0.0,0.0,0.0,0.02271207643817464,0.009563834640606578,9.81080856254333,0.0,0.0,0.0,0.0,0.0,0.0,0.0,0.0,0.0
2025/05/25 19:00:21.669401825,1748192421,669009096,mA1/imu,0.2931968078723069,-0.9560515542745874,-0.0009451725432556496,-0.00040505740171827183,0.0,0.0,0.0,0.0,0.0,0.0,0.0,0.0,0.0,0.0024058237404682645,0.0063704375511767245,0.004954500023734396,0.0,0.0,0.0,0.0,0.0,0.0,0.0,0.0,0.0,0.024427064827674566,-0.3008486787126607,9.80939128536473,0.0,0.0,0.0,0.0,0.0,0.0,0.0,0.0,0.0
2025/05/25 19:00:21.719167863,1748192421,718860230,mA1/imu,0.2930792742369338,-0.956087702796545,-0.000880599772981807,-0.00026099428658662885,0.0,0.0,0.0,0.0,0.0,0.0,0.0,0.0,0.0,0.0008464732351967218,0.0061376928030581895,0.004901759028310149,0.0,0.0,0.0,0.0,0.0,0.0,0.0,0.0,0.0,0.025241047946698673,-0.01244693974608076,9.807823859526293,0.0,0.0,0.0,0.0,0.0,0.0,0.0,0.0,0.0
2025/05/25 19:00:21.771069562,1748192421,770541928,mA1/imu,0.2929626340958516,-0.9561235354826104,-0.0008144481762511087,-0.00012881778549509395,0.0,0.0,0.0,0.0,0.0,0.0,0.0,0.0,0.0,0.0009643866157684776,0.005638572788197458,0.004917112547788873,0.0,0.0,0.0,0.0,0.0,0.0,0.0,0.0,0.0,0.011787162462144897,-0.002298655421194562,9.808074215903842,0.0,0.0,0.0,0.0,0.0,0.0,0.0,0.0,0.0
2025/05/25 19:00:21.820725127,1748192421,820403694,mA1/imu,0.2928438438033154,-0.9561599880880196,-0.0007484488514816067,-1.2261083525391339e-05,0.0,0.0,0.0,0.0,0.0,0.0,0.0,0.0,0.0,0.0019311363267317796,0.0048402255483105784,0.00496577604192563,0.0,0.0,0.0,0.0,0.0,0.0,0.0,0.0,0.0,0.0277501312025739,-0.36842764933160216,9.807706668715301,0.0,0.0,0.0,0.0,0.0,0.0,0.0,0.0,0.0
2025/05/25 19:00:21.871974581,1748192421,871701696,mA1/imu,0.29272659007158325,-0.9561959294292826,-0.0006940548742173195,7.934585852476329e-05,0.0,0.0,0.0,0.0,0.0,0.0,0.0,0.0,0.0,0.0018674583191685145,0.003645273809391713,0.004837472288376738,0.0,0.0,0.0,0.0,0.0,0.0,0.0,0.0,0.0,0.02621853936092477,0.06729873116739432,9.808438092301813,0.0,0.0,0.0,0.0,0.0,0.0,0.0,0.0,0.0
2025/05/25 19:00:21.921500854,1748192421,921327312,mA1/imu,0.2926123948099551,-0.9562309036309674,-0.0006521921764996788,0.00014138617812826574,0.0,0.0,0.0,0.0,0.0,0.0,0.0,0.0,0.0,0.0016693738602318248,0.0022955459001060934,0.004761382353735873,0.0,0.0,0.0,0.0,0.0,0.0,0.0,0.0,0.0,0.028236692346758727,0.062307760131055726,9.808285452554676,0.0,0.0,0.0,0.0,0.0,0.0,0.0,0.0,0.0
2025/05/25 19:00:21.972545070,1748192421,972298721,mA1/imu,0.29249917917004353,-0.9562655481959781,-0.0006336887167004274,0.0001730806351205318,0.0,0.0,0.0,0.0,0.0,0.0,0.0,0.0,0.0,2.3923699154961835e-05,0.0008280846759541138,0.004721611463211568,0.0,0.0,0.0,0.0,0.0,0.0,0.0,0.0,0.0,0.02791006067386351,0.34936394468546883,9.809037328758468,0.0,0.0,0.0,0.0,0.0,0.0,0.0,0.0,0.0
2025/05/25 19:00:22.22356783,1748192422,22139184,mA1/imu,0.29238683570984825,-0.9562999129805179,-0.0006217483458847277,0.00016782738281687453,0.0,0.0,0.0,0.0,0.0,0.0,0.0,0.0,0.0,-0.00019615342399862992,-0.0006553494008450661,0.004684338723155135,0.0,0.0,0.0,0.0,0.0,0.0,0.0,0.0,0.0,0.02744835145825964,0.24281261178798444,9.810329011007482,0.0,0.0,0.0,0.0,0.0,0.0,0.0,0.0,0.0
2025/05/25 19:00:22.73773953,1748192422,73539979,mA1/imu,0.29227534090012725,-0.9563339972149643,-0.0006276236044541146,0.00013023507214150767,0.0,0.0,0.0,0.0,0.0,0.0,0.0,0.0,0.0,0.00031539060347350573,-0.0020665323456453655,0.004649000701053217,0.0,0.0,0.0,0.0,0.0,0.0,0.0,0.0,0.0,0.026600895043961528,-0.627884666656882,9.809506902349895,0.0,0.0,0.0,0.0,0.0,0.0,0.0,0.0,0.0
2025/05/25 19:00:22.123431997,1748192422,123239055,mA1/imu,0.29216462728200965,-0.9563678281240107,-0.000635964230987523,5.8685810176973305e-05,0.0,0.0,0.0,0.0,0.0,0.0,0.0,0.0,0.0,-0.0001958759226517943,-0.0033216928862776847,0.004615376981071346,0.0,0.0,0.0,0.0,0.0,0.0,0.0,0.0,0.0,0.025526588544214728,-0.021076210765485263,9.80876421500196,0.0,0.0,0.0,0.0,0.0,0.0,0.0,0.0,0.0
2025/05/25 19:00:22.174465088,1748192422,174192268,mA1/imu,0.2920565159573712,-0.9564008302411966,-0.0006648190441422991,-3.763549243599899e-05,0.0,0.0,0.0,0.0,0.0,0.0,0.0,0.0,0.0,-9.974089672456601e-05,-0.004502284930400632,0.00439130603717794,0.0,0.0,0.0,0.0,0.0,0.0,0.0,0.0,0.0,0.030468736533688683,-0.0027093427514158722,9.810576784154268,0.0,0.0,0.0,0.0,0.0,0.0,0.0,0.0,0.0
2025/05/25 19:00:22.217615029,1748192422,216178605,mA1/imu,0.2919534368706225,-0.9564322562580334,-0.0007114467213688657,-0.00015405246394561956,0.0,0.0,0.0,0.0,0.0,0.0,0.0,0.0,0.0,-0.0009165678665590594,-0.005254581496521311,0.004292076835098412,0.0,0.0,0.0,0.0,0.0,0.0,0.0,0.0,0.0,0.02110995174154146,-0.19612180095257953,9.809440817457029,0.0,0.0,0.0,0.0,0.0,0.0,0.0,0.0,0.0
