time,header_stamp_secs,header_stamp_nsecs,header_frame_id,orientation_x,orientation_y,orientation_z,orientation_w,orientation_covariance_0,orientation_covariance_1,orientation_covariance_2,orientation_covariance_3,orientation_covariance_4,orientation_covariance_5,orientation_covariance_6,orientation_covariance_7,orientation_covariance_8,angular_velocity_x,angular_velocity_y,angular_velocity_z,angular_velocity_covariance_0,angular_velocity_covariance_1,angular_velocity_covariance_2,angular_velocity_covariance_3,angular_velocity_covariance_4,angular_velocity_covariance_5,angular_velocity_covariance_6,angular_velocity_covariance_7,angular_velocity_covariance_8,linear_acceleration_x,linear_acceleration_y,linear_acceleration_z,linear_acceleration_covariance_0,linear_acceleration_covariance_1,linear_acceleration_covariance_2,linear_acceleration_covariance_3,linear_acceleration_covariance_4,linear_acceleration_covariance_5,linear_acceleration_covariance_6,linear_acceleration_covariance_7,linear_acceleration_covariance_8
2025/05/14 14:46:32.163820707,1747226792,156788946,mA1/imu,0.7681398379458518,0.6402815088144659,0.0003151736419827588,0.0008243156960320874,0.0,0.0,0.0,0.0,0.0,0.0,0.0,0.0,0.0,0.00015186561948730512,0.0017221390476756322,0.0004204305681591337,0.0,0.0,0.0,0.0,0.0,0.0,0.0,0.0,0.0,0.011148499849655095,-0.6373589072880463,9.809778046145327,0.0,0.0,0.0,0.0,0.0,0.0,0.0,0.0,0.0
2025/05/14 14:46:32.212989447,1747226792,209856348,mA1/imu,0.7681464531680232,0.6402735999044736,0.00033791320320247033,0.0007934515859131647,0.0,0.0,0.0,0.0,0.0,0.0,0.0,0.0,0.0,0.0016574454946514947,0.0013119899735120637,0.0004092336994542505,0.0,0.0,0.0,0.0,0.0,0.0,0.0,0.0,0.0,0.011243528154021958,-0.538708648938787,9.809401756963466,0.0,0.0,0.0,0.0,0.0,0.0,0.0,0.0,0.0
2025/05/14 14:46:32.254780120,1747226792,252995699,mA1/imu,0.7681528914178367,0.6402658879423265,0.0003568827724943653,0.0007750990438746664,0.0,0.0,0.0,0.0,0.0,0.0,0.0,0.0,0.0,-1.0871338637326703e-05,0.0008630799077284743,0.00039852108090214196,0.0,0.0,0.0,0.0,0.0,0.0,0.0,0.0,0.0,0.010572074591194908,0.605365233531482,9.810538423673025,0.0,0.0,0.0,0.0,0.0,0.0,0.0,0.0,0.0
2025/05/14 14:46:32.309828533,1747226792,307332284,mA1/imu,0.7681591674638184,0.6402583578699109,0.0003703433724165592,0.000769067490534637,0.0,0.0,0.0,0.0,0.0,0.0,0.0,0.0,0.0,-0.0014079716996909337,0.0003769358794836105,0.0003888284829609405,0.0,0.0,0.0,0.0,0.0,0.0,0.0,0.0,0.0,0.010486430223491775,0.5069809192058967,9.809845395753873,0.0,0.0,0.0,0.0,0.0,0.0,0.0,0.0,0.0
2025/05/14 14:46:32.355137398,1747226792,352468881,mA1/imu,0.7681635234626678,0.6402531375180351,0.0003686016957782291,0.0007650179875733736,0.0,0.0,0.0,0.0,0.0,0.0,0.0,0.0,0.0,0.00028278794090560755,-0.00014230513714742828,0.00019437313561772396,0.0,0.0,0.0,0.0,0.0,0.0,0.0,0.0,0.0,0.011330447997698789,-0.644331896581473,9.81030954541945,0.0,0.0,0.0,0.0,0.0,0.0,0.0,0.0,0.0
2025/05/14 14:46:32.422166618,1747226792,407465384,mA1/imu,0.7681659199903264,0.6402502736694753,0.0003523289073619446,0.0007630831661381668,0.0,0.0,0.0,0.0,0.0,0.0,0.0,0.0,0.0,0.0017662492545423988,-0.0006506621164097053,0.0001440954335156351,0.0,0.0,0.0,0.0,0.0,0.0,0.0,0.0,0.0,0.010482280671362754,-0.5381169921844268,9.809128736138819,0.0,0.0,0.0,0.0,0.0,0.0,0.0,0.0,0.0
2025/05/14 14:46:32.463150263,1747226792,456168702,mA1/imu,0.7681681182242543,0.6402476337765576,0.00033234316369634334,0.0007740383379929453,0.0,0.0,0.0,0.0,0.0,0.0,0.0,0.0,0.0,7.89269388696659e-05,-0.0010595266207636671,0.0001317872544627218,0.0,0.0,0.0,0.0,0.0,0.0,0.0,0.0,0.0,0.009156644484812983,0.6052957488802393,9.810429181846889,0.0,0.0,0.0,0.0,0.0,0.0,0.0,0.0,0.0
2025/05/14 14:46:32.508266427,1747226792,506724996,mA1/imu,0.768170128622232,0.6402452063168267,0.0003092050097402058,0.0007960358594441373,0.0,0.0,0.0,0.0,0.0,0.0,0.0,0.0,0.0,-0.001343177242806678,-0.0013929967445607105,0.00012140808686760535,0.0,0.0,0.0,0.0,0.0,0.0,0.0,0.0,0.0,0.008379045983294423,0.5071471548288468,9.809779874785024,0.0,0.0,0.0,0.0,0.0,0.0,0.0,0.0,0.0
2025/05/14 14:46:32.567189455,1747226792,558343075,mA1/imu,0.7681726124191466,0.6402422155242643,0.00027160973451561225,0.0008180573799262319,0.0,0.0,0.0,0.0,0.0,0.0,0.0,0.0,0.0,0.0004092876935285057,-0.0018992666330641715,0.00017713955424377619,0.0,0.0,0.0,0.0,0.0,0.0,0.0,0.0,0.0,0.016514131593262614,-0.6348970029100036,9.810570452293804,0.0,0.0,0.0,0.0,0.0,0.0,0.0,0.0,0.0
2025/05/14 14:46:32.610199391,1747226792,602948188,mA1/imu,0.7681761905678943,0.6402379141287473,0.0002240649145043433,0.0008386605885390209,0.0,0.0,0.0,0.0,0.0,0.0,0.0,0.0,0.0,0.0018468413524270176,-0.0019879495771880328,0.0002581558317502635,0.0,0.0,0.0,0.0,0.0,0.0,0.0,0.0,0.0,0.0040546243490011,-0.5400411775545642,9.808780945240537,0.0,0.0,0.0,0.0,0.0,0.0,0.0,0.0,0.0
2025/05/14 14:46:32.665440011,1747226792,653631859,mA1/imu,0.7681803528311619,0.6402328970345962,0.0001826506860071701,0.0008658623485472432,0.0,0.0,0.0,0.0,0.0,0.0,0.0,0.0,0.0,0.00010742123201934054,-0.0019519493398647333,0.00025988780279193204,0.0,0.0,0.0,0.0,0.0,0.0,0.0,0.0,0.0,0.006178079928097562,0.6054391312564334,9.810490349574753,0.0,0.0,0.0,0.0,0.0,0.0,0.0,0.0,0.0
2025/05/14 14:46:32.708249717,1747226792,703191297,mA1/imu,0.7681845379279026,0.6402278407835269,0.0001479231286453632,0.0008976039803559434,0.0,0.0,0.0,0.0,0.0,0.0,0.0,0.0,0.0,-0.0013661406795458418,-0.0018067213907230792,0.00026179862096711507,0.0,0.0,0.0,0.0,0.0,0.0,0.0,0.0,0.0,0.005980153338515667,0.5069195061967408,9.809872129209209,0.0,0.0,0.0,0.0,0.0,0.0,0.0,0.0,0.0
2025/05/14 14:46:32.762032903,1747226792,758503555,mA1/imu,0.7681887635347509,0.6402227457632329,0.00011186406607961025,0.0009202569033862105,0.0,0.0,0.0,0.0,0.0,0.0,0.0,0.0,0.0,0.00032328103949179717,-0.0015860889533426987,0.00026428542235596797,0.0,0.0,0.0,0.0,0.0,0.0,0.0,0.0,0.0,0.006334690321364607,-0.6367305802125096,9.809562318551242,0.0,0.0,0.0,0.0,0.0,0.0,0.0,0.0,0.0
2025/05/14 14:46:32.802964466,1747226792,799906370,mA1/imu,0.7681930405922993,0.6402175996516287,7.731956761071766e-05,0.0009335435443410519,0.0,0.0,0.0,0.0,0.0,0.0,0.0,0.0,0.0,0.0017271835862241235,-0.0012770800342429296,0.0002686892502896493,0.0,0.0,0.0,0.0,0.0,0.0,0.0,0.0,0.0,0.006085535432579265,-0.5384642746710799,9.809292485794733,0.0,0.0,0.0,0.0,0.0,0.0,0.0,0.0,0.0
2025/05/14 14:46:32.857290074,1747226792,852348238,mA1/imu,0.7681965708817684,0.6402133427910925,5.4898565946552374e-05,0.0009493070602464837,0.0,0.0,0.0,0.0,0.0,0.0,0.0,0.0,0.0,-3.8831771771794335e-05,-0.0009758241583643198,0.00018836974189866473,0.0,0.0,0.0,0.0,0.0,0.0,0.0,0.0,0.0,0.008660457342122199,0.6064618166391492,9.81105871188248,0.0,0.0,0.0,0.0,0.0,0.0,0.0,0.0,0.0
2025/05/14 14:46:32.908505391,1747226792,906016840,mA1/imu,0.7681987824175608,0.6402106641843194,4.3809590401143515e-05,0.000966559656513112,0.0,0.0,0.0,0.0,0.0,0.0,0.0,0.0,0.0,-0.0015334050966245535,-0.0006385016007570781,0.00010419415942482233,0.0,0.0,0.0,0.0,0.0,0.0,0.0,0.0,0.0,0.009079410281355959,0.5079552674500403,9.810463827613976,0.0,0.0,0.0,0.0,0.0,0.0,0.0,0.0,0.0
2025/05/14 14:46:32.969138049,1747226792,959664953,mA1/imu,0.7681986396815095,0.6402108269712676,3.619664123932862e-05,0.0009724762450926084,0.0,0.0,0.0,0.0,0.0,0.0,0.0,0.0,0.0,8.542736913478823e-05,-0.00018912903297674564,-8.433388771701048e-05,0.0,0.0,0.0,0.0,0.0,0.0,0.0,0.0,0.0,0.0066670519457208925,-0.6426899619403458,9.810595527281098,0.0,0.0,0.0,0.0,0.0,0.0,0.0,0.0,0.0
2025/05/14 14:46:33.4305730,1747226793,1897460,mA1/imu,0.7681966154705512,0.6402132639699484,3.42599418722773e-05,0.0009671829153638426,0.0,0.0,0.0,0.0,0.0,0.0,0.0,0.0,0.0,0.0014601519839184567,0.0002519538255159148,-0.00012968563330262715,0.0,0.0,0.0,0.0,0.0,0.0,0.0,0.0,0.0,0.006280148136038921,-0.5378043089872332,9.809507197090246,0.0,0.0,0.0,0.0,0.0,0.0,0.0,0.0,0.0
2025/05/14 14:46:33.54883171,1747226793,53670049,mA1/imu,0.7681944629462195,0.64021585358802,4.755015222395332e-05,0.0009621082659066712,0.0,0.0,0.0,0.0,0.0,0.0,0.0,0.0,0.0,-0.00031346335019180485,0.0007136819652669528,-0.0001370290114987623,0.0,0.0,0.0,0.0,0.0,0.0,0.0,0.0,0.0,0.00585023815138919,0.6054877937107304,9.810943699811043,0.0,0.0,0.0,0.0,0.0,0.0,0.0,0.0,0.0
2025/05/14 14:46:33.108606152,1747226793,107595876,mA1/imu,0.7681921690568617,0.6402186115756543,7.421525009138416e-05,0.0009567047359404482,0.0,0.0,0.0,0.0,0.0,0.0,0.0,0.0,0.0,-0.0018019280548637988,0.0011206152762197445,-0.00014812450090868283,0.0,0.0,0.0,0.0,0.0,0.0,0.0,0.0,0.0,0.006335682771480427,0.506750434525795,9.810290383137616,0.0,0.0,0.0,0.0,0.0,0.0,0.0,0.0,0.0
2025/05/14 14:46:33.160514246,1747226793,158734798,mA1/imu,0.7681935823860797,0.6402169440876692,0.00010959771788527674,0.0009340622185412643,0.0,0.0,0.0,0.0,0.0,0.0,0.0,0.0,0.0,-0.00010623309920388477,0.0020339399300813403,0.00024463157948713827,0.0,0.0,0.0,0.0,0.0,0.0,0.0,0.0,0.0,-0.01090308834287975,-0.637746608263625,9.808788562235712,0.0,0.0,0.0,0.0,0.0,0.0,0.0,0.0,0.0
2025/05/14 14:46:33.204714656,1747226793,201386056,mA1/imu,0.7681986425732893,0.640210916443556,0.00015159155501919306,0.0008972374592211105,0.0,0.0,0.0,0.0,0.0,0.0,0.0,0.0,0.0,0.0013215762440716094,0.0022611290496168286,0.0003089256318926832,0.0,0.0,0.0,0.0,0.0,0.0,0.0,0.0,0.0,0.009196385503723582,-0.538254159639093,9.809544208176302,0.0,0.0,0.0,0.0,0.0,0.0,0.0,0.0,0.0
2025/05/14 14:46:33.259149934,1747226793,255280848,mA1/imu,0.7682046298288986,0.6402037610151364,0.00019864184932611757,0.0008669676664576552,0.0,0.0,0.0,0.0,0.0,0.0,0.0,0.0,0.0,-0.00036956200572137957,0.0022674726486876275,0.00048015005257129437,0.0,0.0,0.0,0.0,0.0,0.0,0.0,0.0,0.0,-0.006187024658383902,0.6122929202615109,9.811012790163208,0.0,0.0,0.0,0.0,0.0,0.0,0.0,0.0,0.0
2025/05/14 14:46:33.315941478,1747226793,304854741,mA1/imu,0.7682142286453886,0.6401922607802132,0.0002523482795837416,0.0008393236776682503,0.0,0.0,0.0,0.0,0.0,0.0,0.0,0.0,0.0,-0.001791234658650171,0.002352276571178712,0.0006309463008481115,0.0,0.0,0.0,0.0,0.0,0.0,0.0,0.0,0.0,0.005132226014837435,0.5065336185032255,9.810630891417537,0.0,0.0,0.0,0.0,0.0,0.0,0.0,0.0,0.0
2025/05/14 14:46:33.366814507,1747226793,361121945,mA1/imu,0.768223483822426,0.6401811755150639,0.00029553990596164163,0.0008087496830018351,0.0,0.0,0.0,0.0,0.0,0.0,0.0,0.0,0.0,-4.4926597969048995e-05,0.0019449864476313206,0.0005434487531730709,0.0,0.0,0.0,0.0,0.0,0.0,0.0,0.0,0.0,0.01431376718382175,-0.6367167055729546,9.809573557207344,0.0,0.0,0.0,0.0,0.0,0.0,0.0,0.0,0.0
2025/05/14 14:46:33.411583632,1747226793,403741398,mA1/imu,0.7682312832041408,0.6401718382977101,0.00032490902868724747,0.0007793530475734378,0.0,0.0,0.0,0.0,0.0,0.0,0.0,0.0,0.0,0.0014304802366407938,0.0014363563498985777,0.00045127949425988,0.0,0.0,0.0,0.0,0.0,0.0,0.0,0.0,0.0,0.014513823468957535,-0.5383397321360757,9.809238083255721,0.0,0.0,0.0,0.0,0.0,0.0,0.0,0.0,0.0
2025/05/14 14:46:33.461740809,1747226793,457006663,mA1/imu,0.7682382399071082,0.6401634954319376,0.0003501698897146775,0.0007637027175244828,0.0,0.0,0.0,0.0,0.0,0.0,0.0,0.0,0.0,-0.0002654451431128838,0.0009912319848637415,0.00042971786295063286,0.0,0.0,0.0,0.0,0.0,0.0,0.0,0.0,0.0,0.010043285949789399,0.6051733677111345,9.8109582744427,0.0,0.0,0.0,0.0,0.0,0.0,0.0,0.0,0.0
2025/05/14 14:46:33.518426852,1747226793,508739458,mA1/imu,0.7682449775933686,0.6401554018311328,0.0003704228787895135,0.0007607206295148414,0.0,0.0,0.0,0.0,0.0,0.0,0.0,0.0,0.0,-0.0016840362184891125,0.0005074262065952107,0.00041642835003963323,0.0,0.0,0.0,0.0,0.0,0.0,0.0,0.0,0.0,0.010116749369863256,0.5062653632494211,9.810252301429985,0.0,0.0,0.0,0.0,0.0,0.0,0.0,0.0,0.0
2025/05/14 14:46:33.559149549,1747226793,553327483,mA1/imu,0.7682515603444253,0.6401475016003372,0.00037481806615419634,0.0007587717835697927,0.0,0.0,0.0,0.0,0.0,0.0,0.0,0.0,0.0,7.030410667001898e-05,-1.8327992577631177e-05,0.0004092117362485357,0.0,0.0,0.0,0.0,0.0,0.0,0.0,0.0,0.0,0.010394808317123356,-0.6376749354226172,9.809701235502907,0.0,0.0,0.0,0.0,0.0,0.0,0.0,0.0,0.0
2025/05/14 14:46:33.609867920,1747226793,607186210,mA1/imu,0.7682580828903401,0.6401396797828868,0.00036442704231975974,0.0007587055112859476,0.0,0.0,0.0,0.0,0.0,0.0,0.0,0.0,0.0,0.0015504631017071763,-0.0005255172114663685,0.0004060979027403304,0.0,0.0,0.0,0.0,0.0,0.0,0.0,0.0,0.0,0.010495183822338761,-0.5388409010128706,9.809346505961347,0.0,0.0,0.0,0.0,0.0,0.0,0.0,0.0,0.0
2025/05/14 14:46:33.663259314,1747226793,651040768,mA1/imu,0.7682628194501798,0.6401339871957754,0.0003508760368478556,0.0007717339608419848,0.0,0.0,0.0,0.0,0.0,0.0,0.0,0.0,0.0,-0.00016468036634108846,-0.0009156755131906323,0.00022076898351143626,0.0,0.0,0.0,0.0,0.0,0.0,0.0,0.0,0.0,0.006792828740795466,0.6018202405235026,9.809968956147515,0.0,0.0,0.0,0.0,0.0,0.0,0.0,0.0,0.0
2025/05/14 14:46:33.707864581,1747226793,702873649,mA1/imu,0.7682649187205443,0.6401314460505018,0.00033439422698404534,0.0007966311003169763,0.0,0.0,0.0,0.0,0.0,0.0,0.0,0.0,0.0,-0.0016090632997425593,-0.0012879396002373497,0.0001068796695166001,0.0,0.0,0.0,0.0,0.0,0.0,0.0,0.0,0.0,0.008561462201395007,0.5067951580647029,9.810009541398726,0.0,0.0,0.0,0.0,0.0,0.0,0.0,0.0,0.0
2025/05/14 14:46:33.759935125,1747226793,758017324,mA1/imu,0.7682665935651212,0.6401294211306755,0.0003053455486668696,0.0008198651395517053,0.0,0.0,0.0,0.0,0.0,0.0,0.0,0.0,0.0,0.000156702132325509,-0.0015980741956080834,0.0001018378447563299,0.0,0.0,0.0,0.0,0.0,0.0,0.0,0.0,0.0,0.008707459016826975,-0.6364888202478484,9.80955568247923,0.0,0.0,0.0,0.0,0.0,0.0,0.0,0.0,0.0
2025/05/14 14:46:33.813558206,1747226793,809662210,mA1/imu,0.7682681952572726,0.640127489319057,0.0002663771023936924,0.0008406054086208327,0.0,0.0,0.0,0.0,0.0,0.0,0.0,0.0,0.0,0.0016464980130444166,-0.0018121758168335408,9.698202962314298e-05,0.0,0.0,0.0,0.0,0.0,0.0,0.0,0.0,0.0,0.008598420139236045,-0.538091690664946,9.809208424955706,0.0,0.0,0.0,0.0,0.0,0.0,0.0,0.0,0.0
2025/05/14 14:46:33.859727886,1747226793,854455301,mA1/imu,0.7682697122702439,0.6401256445300565,0.000229843939802368,0.0008692496419453608,0.0,0.0,0.0,0.0,0.0,0.0,0.0,0.0,0.0,-4.023717645021552e-05,-0.001880876348738175,9.211053424395075e-05,0.0,0.0,0.0,0.0,0.0,0.0,0.0,0.0,0.0,0.007057796924600662,0.605135442914332,9.810528546135844,0.0,0.0,0.0,0.0,0.0,0.0,0.0,0.0,0.0
2025/05/14 14:46:33.912238155,1747226793,905270677,mA1/imu,0.7682711474067991,0.6401238862863667,0.00019704919799503538,0.0009030168839663096,0.0,0.0,0.0,0.0,0.0,0.0,0.0,0.0,0.0,-0.0014534566972634042,-0.0018414222679683607,8.716677292935684e-05,0.0,0.0,0.0,0.0,0.0,0.0,0.0,0.0,0.0,0.006801478457025858,0.5071009991223419,9.80986500529642,0.0,0.0,0.0,0.0,0.0,0.0,0.0,0.0,0.0
2025/05/14 14:46:33.966087951,1747226793,960038522,mA1/imu,0.7682723012768159,0.6401224719406582,0.00015537837718689924,0.0009315927041366471,0.0,0.0,0.0,0.0,0.0,0.0,0.0,0.0,0.0,0.0003233235581174385,-0.002086665957352131,6.0534394812753366e-05,0.0,0.0,0.0,0.0,0.0,0.0,0.0,0.0,0.0,0.018947681496963874,-0.6344602139101471,9.810376246894789,0.0,0.0,0.0,0.0,0.0,0.0,0.0,0.0,0.0
2025/05/14 14:46:34.7642879,1747226794,1970118,mA1/imu,0.7682730864611977,0.6401215051901219,0.00010655839832253227,0.000954912470132319,0.0,0.0,0.0,0.0,0.0,0.0,0.0,0.0,0.0,0.0018198149902093246,-0.0020202858652574383,4.372472337672942e-05,0.0,0.0,0.0,0.0,0.0,0.0,0.0,0.0,0.0,0.006419981443990662,-0.5391373633515244,9.809193122856097,0.0,0.0,0.0,0.0,0.0,0.0,0.0,0.0,0.0
2025/05/14 14:46:34.58644983,1747226794,57453598,mA1/imu,0.7682737611279408,0.6401206637506663,6.906978564755705e-05,0.0009793013320007274,0.0,0.0,0.0,0.0,0.0,0.0,0.0,0.0,0.0,0.00010160806317909135,-0.001611329964998511,4.028553808259601e-05,0.0,0.0,0.0,0.0,0.0,0.0,0.0,0.0,0.0,0.005112914818019183,0.6046839841708084,9.810582801769968,0.0,0.0,0.0,0.0,0.0,0.0,0.0,0.0,0.0
2025/05/14 14:46:34.104243379,1747226794,101242838,mA1/imu,0.768275115927483,0.6401190069635175,4.643366148714958e-05,0.0010005071553018468,0.0,0.0,0.0,0.0,0.0,0.0,0.0,0.0,0.0,-0.0013276445333613805,-0.0008196818415283459,0.00019263053500765773,0.0,0.0,0.0,0.0,0.0,0.0,0.0,0.0,0.0,-0.016938902983779786,0.5093935432426343,9.811049548376387,0.0,0.0,0.0,0.0,0.0,0.0,0.0,0.0,0.0
2025/05/14 14:46:34.156452684,1747226794,152348358,mA1/imu,0.7682820123707496,0.6401107343614154,3.8866317456434164e-05,0.0009978538220206624,0.0,0.0,0.0,0.0,0.0,0.0,0.0,0.0,0.0,0.0003839181084279462,0.0002830699204649903,0.0005834936329470233,0.0,0.0,0.0,0.0,0.0,0.0,0.0,0.0,0.0,-0.011294477107815318,-0.6379949901424755,9.808594320532992,0.0,0.0,0.0,0.0,0.0,0.0,0.0,0.0,0.0
2025/05/14 14:46:34.206687662,1747226794,205067373,mA1/imu,0.7682923925212485,0.6400983073060851,4.2573495286921136e-05,0.0009771209537166633,0.0,0.0,0.0,0.0,0.0,0.0,0.0,0.0,0.0,0.0018009165013298234,0.0007995203809632475,0.000636465213152639,0.0,0.0,0.0,0.0,0.0,0.0,0.0,0.0,0.0,0.007290935824725833,-0.5387240666545101,9.809353675648497,0.0,0.0,0.0,0.0,0.0,0.0,0.0,0.0,0.0
2025/05/14 14:46:34.259531990,1747226794,255810474,mA1/imu,0.7683016341070275,0.640087242113196,5.893702763157282e-05,0.0009581434239335291,0.0,0.0,0.0,0.0,0.0,0.0,0.0,0.0,0.0,3.746507944761379e-05,0.0011491240792232728,0.0005733761776564947,0.0,0.0,0.0,0.0,0.0,0.0,0.0,0.0,0.0,0.0028000347090128518,0.6051266132575648,9.811083279638053,0.0,0.0,0.0,0.0,0.0,0.0,0.0,0.0,0.0
2025/05/14 14:46:34.311320276,1747226794,308768776,mA1/imu,0.7683113947342738,0.6400755516915309,8.905741275551745e-05,0.0009385718058535436,0.0,0.0,0.0,0.0,0.0,0.0,0.0,0.0,0.0,-0.001454469129372999,0.001616666413954551,0.0006347297030893272,0.0,0.0,0.0,0.0,0.0,0.0,0.0,0.0,0.0,0.0020773962006575882,0.5071125009839258,9.810480989237854,0.0,0.0,0.0,0.0,0.0,0.0,0.0,0.0,0.0
2025/05/14 14:46:34.361709547,1747226794,360260860,mA1/imu,0.7683173581170097,0.6400684248565135,0.00011660694703137558,0.0009138493421884931,0.0,0.0,0.0,0.0,0.0,0.0,0.0,0.0,0.0,0.00012375392276609,0.0015780412026934326,0.0002878603725303054,0.0,0.0,0.0,0.0,0.0,0.0,0.0,0.0,0.0,0.0028419679518583117,-0.643496261661253,9.810629520392432,0.0,0.0,0.0,0.0,0.0,0.0,0.0,0.0,0.0
2025/05/14 14:46:34.408558832,1747226794,401462747,mA1/imu,0.7683216177062411,0.6400633514926899,0.00014563623169766988,0.0008812668711319055,0.0,0.0,0.0,0.0,0.0,0.0,0.0,0.0,0.0,0.0015121015675239801,0.001788957836267085,0.00026443981885877104,0.0,0.0,0.0,0.0,0.0,0.0,0.0,0.0,0.0,0.007020177137977594,-0.53759505354393,9.809581131408668,0.0,0.0,0.0,0.0,0.0,0.0,0.0,0.0,0.0
2025/05/14 14:46:34.456326628,1747226794,455236434,mA1/imu,0.7683266284369803,0.6400573640863936,0.00018140469520918734,0.0008542867064483789,0.0,0.0,0.0,0.0,0.0,0.0,0.0,0.0,0.0,-0.00020463379844978789,0.001745321806836559,0.0003225870898630732,0.0,0.0,0.0,0.0,0.0,0.0,0.0,0.0,0.0,0.010445306146102321,0.6074001685614988,9.81122221580612,0.0,0.0,0.0,0.0,0.0,0.0,0.0,0.0,0.0
2025/05/14 14:46:34.508658601,1747226794,505046458,mA1/imu,0.7683311410400985,0.6400519603707536,0.00022019552308309872,0.0008350134773454142,0.0,0.0,0.0,0.0,0.0,0.0,0.0,0.0,0.0,-0.001683610833078319,0.001665660272339561,0.0002734381019017979,0.0,0.0,0.0,0.0,0.0,0.0,0.0,0.0,0.0,0.006858856704700791,0.5069119703206922,9.810283630638532,0.0,0.0,0.0,0.0,0.0,0.0,0.0,0.0,0.0
2025/05/14 14:46:34.562896224,1747226794,556238156,mA1/imu,0.7683354864514694,0.6400467626488263,0.0002520370321755064,0.0008113935390454351,0.0,0.0,0.0,0.0,0.0,0.0,0.0,0.0,0.0,9.304656354626422e-06,0.0015262658181967943,0.0002713883363289478,0.0,0.0,0.0,0.0,0.0,0.0,0.0,0.0,0.0,0.008321799473192606,-0.6373774413367965,9.80991122556512,0.0,0.0,0.0,0.0,0.0,0.0,0.0,0.0,0.0
2025/05/14 14:46:34.608997091,1747226794,607508309,mA1/imu,0.7683398020865891,0.6400416041365102,0.0002762780577178454,0.0007856044415638115,0.0,0.0,0.0,0.0,0.0,0.0,0.0,0.0,0.0,0.0014309419354817513,0.0013023728714182117,0.00026922038204875887,0.0,0.0,0.0,0.0,0.0,0.0,0.0,0.0,0.0,0.008491251612875497,-0.5387386097367612,9.80956606469295,0.0,0.0,0.0,0.0,0.0,0.0,0.0,0.0,0.0
2025/05/14 14:46:34.661145311,1747226794,658439804,mA1/imu,0.7683440741995281,0.6400364821269745,0.0003015427598281491,0.0007708832344679343,0.0,0.0,0.0,0.0,0.0,0.0,0.0,0.0,0.0,-0.00031179708229050367,0.0010345182435165176,0.0002668272491094797,0.0,0.0,0.0,0.0,0.0,0.0,0.0,0.0,0.0,0.00791234377603131,0.6056435494903089,9.810880836990178,0.0,0.0,0.0,0.0,0.0,0.0,0.0,0.0,0.0
2025/05/14 14:46:34.712150539,1747226794,708567169,mA1/imu,0.7683483052973983,0.6400313956296727,0.00032563784118149993,0.0007670169136255206,0.0,0.0,0.0,0.0,0.0,0.0,0.0,0.0,0.0,-0.001770464634067328,0.0007136633128398716,0.0002645657864530654,0.0,0.0,0.0,0.0,0.0,0.0,0.0,0.0,0.0,0.007877659285426981,0.5070971504803894,9.810188827326735,0.0,0.0,0.0,0.0,0.0,0.0,0.0,0.0,0.0
2025/05/14 14:46:34.755666088,1747226794,752084226,mA1/imu,0.7683525165867465,0.6400263393940775,0.0003373126075012097,0.0007624675963456204,0.0,0.0,0.0,0.0,0.0,0.0,0.0,0.0,0.0,-4.862160368685292e-05,0.0003240920914037233,0.0002629752573940185,0.0,0.0,0.0,0.0,0.0,0.0,0.0,0.0,0.0,0.008784719969822245,-0.637052816929394,9.80973733519304,0.0,0.0,0.0,0.0,0.0,0.0,0.0,0.0,0.0
2025/05/14 14:46:34.806811216,1747226794,801717524,mA1/imu,0.7683567101742494,0.6400213099178592,0.00033694110574373717,0.0007584536396261946,0.0,0.0,0.0,0.0,0.0,0.0,0.0,0.0,0.0,0.0014045212363341167,-7.546279690330045e-05,0.0002611050955377625,0.0,0.0,0.0,0.0,0.0,0.0,0.0,0.0,0.0,0.008873740996217122,-0.538587017325321,9.80937875890712,0.0,0.0,0.0,0.0,0.0,0.0,0.0,0.0,0.0
2025/05/14 14:46:34.854119483,1747226794,853279443,mA1/imu,0.7683608243574631,0.6400163618400906,0.00033463205306659774,0.0007669361662390435,0.0,0.0,0.0,0.0,0.0,0.0,0.0,0.0,0.0,-0.00030594058255406666,-0.0004384469726751093,0.0002540521977808506,0.0,0.0,0.0,0.0,0.0,0.0,0.0,0.0,0.0,0.007945623703027862,0.6055053565947195,9.81068695564342,0.0,0.0,0.0,0.0,0.0,0.0,0.0,0.0,0.0
2025/05/14 14:46:34.907640848,1747226794,903995776,mA1/imu,0.768364809104711,0.6400115569359015,0.0003297580556951514,0.000786369880473039,0.0,0.0,0.0,0.0,0.0,0.0,0.0,0.0,0.0,-0.0017318516162344178,-0.000770818441242117,0.00024609402548750727,0.0,0.0,0.0,0.0,0.0,0.0,0.0,0.0,0.0,0.007764299567922684,0.5073291607348412,9.809985503388358,0.0,0.0,0.0,0.0,0.0,0.0,0.0,0.0,0.0
2025/05/14 14:46:34.957808355,1747226794,955496802,mA1/imu,0.7683688936338607,0.6400066413401516,0.00031689530734293645,0.0008011951942773553,0.0,0.0,0.0,0.0,0.0,0.0,0.0,0.0,0.0,-1.3223561042652156e-05,-0.000750731704348804,0.0002604948032442741,0.0,0.0,0.0,0.0,0.0,0.0,0.0,0.0,0.0,-0.0017760946068893545,-0.6408349203268909,9.810368361280675,0.0,0.0,0.0,0.0,0.0,0.0,0.0,0.0,0.0
2025/05/14 14:46:35.6808654,1747226795,5256534,mA1/imu,0.7683731506548017,0.6400015281154325,0.000299649571521336,0.0008096745387848046,0.0,0.0,0.0,0.0,0.0,0.0,0.0,0.0,0.0,0.0014703138596165683,-0.0008205750288690258,0.00026486871144445166,0.0,0.0,0.0,0.0,0.0,0.0,0.0,0.0,0.0,0.009449055482695895,-0.536985742598703,9.809197112776355,0.0,0.0,0.0,0.0,0.0,0.0,0.0,0.0,0.0
2025/05/14 14:46:35.60731930,1747226795,56351062,mA1/imu,0.7683791500069491,0.6399943116067092,0.0002826612127433437,0.0008264673566537631,0.0,0.0,0.0,0.0,0.0,0.0,0.0,0.0,0.0,-0.00015679591927320426,-0.0010569094450923542,0.0004480145143585756,0.0,0.0,0.0,0.0,0.0,0.0,0.0,0.0,0.0,0.007898921109248409,0.612504873868464,9.809701010795099,0.0,0.0,0.0,0.0,0.0,0.0,0.0,0.0,0.0
2025/05/14 14:46:35.109177410,1747226795,106598376,mA1/imu,0.7683869536193677,0.6399849185336118,0.0002650511663485274,0.000850473370203749,0.0,0.0,0.0,0.0,0.0,0.0,0.0,0.0,0.0,-0.0015351709600537945,-0.0012123921510339252,0.0004888503030092279,0.0,0.0,0.0,0.0,0.0,0.0,0.0,0.0,0.0,0.008107372154093299,0.5074347329807865,9.809904029253861,0.0,0.0,0.0,0.0,0.0,0.0,0.0,0.0,0.0
2025/05/14 14:46:35.152546525,1747226795,150788946,mA1/imu,0.7683948196301673,0.63997545952432,0.00023843241791002664,0.0008692077658625422,0.0,0.0,0.0,0.0,0.0,0.0,0.0,0.0,0.0,0.00023434701827447008,-0.001334262621178955,0.0004923995839632254,0.0,0.0,0.0,0.0,0.0,0.0,0.0,0.0,0.0,0.008375972218816079,-0.636436271134241,9.809567431282144,0.0,0.0,0.0,0.0,0.0,0.0,0.0,0.0,0.0
2025/05/14 14:46:35.209556690,1747226795,203202043,mA1/imu,0.7684027490391014,0.639965932065717,0.00020530054980057177,0.000882562232386386,0.0,0.0,0.0,0.0,0.0,0.0,0.0,0.0,0.0,0.0017218326839679187,-0.0013776341172555846,0.000496082073417078,0.0,0.0,0.0,0.0,0.0,0.0,0.0,0.0,0.0,0.00832124591625024,-0.537857184670609,9.809273772667813,0.0,0.0,0.0,0.0,0.0,0.0,0.0,0.0,0.0
2025/05/14 14:46:35.255807829,1747226795,254121113,mA1/imu,0.7684106775482867,0.6399563940400387,0.00017744704417223695,0.000901592812708204,0.0,0.0,0.0,0.0,0.0,0.0,0.0,0.0,0.0,2.987450785344281e-05,-0.0013220594275499668,0.0004933369920962373,0.0,0.0,0.0,0.0,0.0,0.0,0.0,0.0,0.0,0.007613928652299819,0.6059828547392986,9.810706815485453,0.0,0.0,0.0,0.0,0.0,0.0,0.0,0.0,0.0
2025/05/14 14:46:35.306157344,1747226795,304347197,mA1/imu,0.768418486828887,0.6399469904997636,0.00015534198693099903,0.0009242936579859359,0.0,0.0,0.0,0.0,0.0,0.0,0.0,0.0,0.0,-0.0013902264656961932,-0.0011982912119115742,0.00048304084023600643,0.0,0.0,0.0,0.0,0.0,0.0,0.0,0.0,0.0,0.007167936010296215,0.5079435142285622,9.810097263377978,0.0,0.0,0.0,0.0,0.0,0.0,0.0,0.0,0.0
2025/05/14 14:46:35.358836655,1747226795,355368523,mA1/imu,0.7684221434886157,0.639942577532572,0.0001227396593359546,0.0009443475553304243,0.0,0.0,0.0,0.0,0.0,0.0,0.0,0.0,0.0,0.00033198453849349514,-0.0016873838524082449,5.7003347470432306e-05,0.0,0.0,0.0,0.0,0.0,0.0,0.0,0.0,0.0,0.028998370053202143,-0.6390903188682775,9.80872238431204,0.0,0.0,0.0,0.0,0.0,0.0,0.0,0.0,0.0
2025/05/14 14:46:35.411817736,1747226795,405816749,mA1/imu,0.7684198567020182,0.6399453019536603,7.98795642724348e-05,0.0009633030381929503,0.0,0.0,0.0,0.0,0.0,0.0,0.0,0.0,0.0,0.0017890713726147409,-0.0017308111796772473,-0.00019599921636245072,0.0,0.0,0.0,0.0,0.0,0.0,0.0,0.0,0.0,0.005582377719704941,-0.5378847573280772,9.809547269723401,0.0,0.0,0.0,0.0,0.0,0.0,0.0,0.0,0.0
2025/05/14 14:46:35.460874351,1747226795,456768910,mA1/imu,0.7684158312507883,0.639950107263977,4.799145298390841e-05,0.000983967888159569,0.0,0.0,0.0,0.0,0.0,0.0,0.0,0.0,0.0,7.09941887629371e-05,-0.0013631303262087618,-0.0002890738222729157,0.0,0.0,0.0,0.0,0.0,0.0,0.0,0.0,0.0,0.008031913778114179,0.6068852206038211,9.811233504229449,0.0,0.0,0.0,0.0,0.0,0.0,0.0,0.0,0.0
2025/05/14 14:46:35.520664387,1747226795,511025540,mA1/imu,0.7684102793760313,0.6399567440013876,2.8138170633868235e-05,0.0010037751916223531,0.0,0.0,0.0,0.0,0.0,0.0,0.0,0.0,0.0,-0.0013738828541602444,-0.0009337402384006512,-0.00038724899840951037,0.0,0.0,0.0,0.0,0.0,0.0,0.0,0.0,0.0,0.008311690478456223,0.5085404965611331,9.81057040488923,0.0,0.0,0.0,0.0,0.0,0.0,0.0,0.0,0.0
2025/05/14 14:46:35.553621872,1747226795,552261774,mA1/imu,0.7684038132901516,0.6399644993338663,1.2604319149667458e-05,0.0010095318908386582,0.0,0.0,0.0,0.0,0.0,0.0,0.0,0.0,0.0,0.0003175835088425295,-0.0003976676330719081,-0.0004118600080365094,0.0,0.0,0.0,0.0,0.0,0.0,0.0,0.0,0.0,0.005653525102844059,-0.6368924864829374,9.809937201154716,0.0,0.0,0.0,0.0,0.0,0.0,0.0,0.0,0.0
2025/05/14 14:46:35.603558358,1747226795,602712078,mA1/imu,0.7683971220702817,0.639972546274012,3.815572363066668e-06,0.001001396578495889,0.0,0.0,0.0,0.0,0.0,0.0,0.0,0.0,0.0,0.0017285615624792643,0.00014601663008182234,-0.0004215184751542237,0.0,0.0,0.0,0.0,0.0,0.0,0.0,0.0,0.0,0.006667728857408803,-0.5381007626716624,9.8095953078918,0.0,0.0,0.0,0.0,0.0,0.0,0.0,0.0,0.0
2025/05/14 14:46:35.655914436,1747226795,653819148,mA1/imu,0.7683903278075859,0.6399807184322975,1.1531856148992692e-05,0.0009919847013196957,0.0,0.0,0.0,0.0,0.0,0.0,0.0,0.0,0.0,-3.5679287502755166e-05,0.0006840056693907372,-0.00042681997083386794,0.0,0.0,0.0,0.0,0.0,0.0,0.0,0.0,0.0,0.006304281681432515,0.6056345503536406,9.810890247250022,0.0,0.0,0.0,0.0,0.0,0.0,0.0,0.0,0.0
2025/05/14 14:46:35.707935451,1747226795,705782087,mA1/imu,0.7683834454254357,0.6399889977350208,3.4084591053555905e-05,0.0009810262485569568,0.0,0.0,0.0,0.0,0.0,0.0,0.0,0.0,0.0,-0.0015268918216045058,0.0011688134066180661,-0.0004317837950441663,0.0,0.0,0.0,0.0,0.0,0.0,0.0,0.0,0.0,0.0064793992364726855,0.5071649905183624,9.81021142722212,0.0,0.0,0.0,0.0,0.0,0.0,0.0,0.0,0.0
2025/05/14 14:46:35.753972574,1747226795,751220658,mA1/imu,0.768376494758655,0.6399973762677659,5.987583458537767e-05,0.0009576469406767515,0.0,0.0,0.0,0.0,0.0,0.0,0.0,0.0,0.0,0.00014998707702387138,0.0015378588907914894,-0.0004362679095627792,0.0,0.0,0.0,0.0,0.0,0.0,0.0,0.0,0.0,0.008057766160495743,-0.6370154908848376,9.809841146367981,0.0,0.0,0.0,0.0,0.0,0.0,0.0,0.0,0.0
2025/05/14 14:46:35.801553029,1747226795,800851907,mA1/imu,0.7683694710710142,0.6400058543803915,8.802840447147479e-05,0.0009244110963310638,0.0,0.0,0.0,0.0,0.0,0.0,0.0,0.0,0.0,0.0015495010588055804,0.0018126442282516005,-0.0004418327137258829,0.0,0.0,0.0,0.0,0.0,0.0,0.0,0.0,0.0,0.007917543642969531,-0.5388943366867107,9.809465113234207,0.0,0.0,0.0,0.0,0.0,0.0,0.0,0.0,0.0
2025/05/14 14:46:35.854672817,1747226795,853443749,mA1/imu,0.7683612755753968,0.6400157266056128,0.00012514256797704313,0.000896790374796575,0.0,0.0,0.0,0.0,0.0,0.0,0.0,0.0,0.0,-0.0002379820871610444,0.001887139952411712,-0.000530334162756321,0.0,0.0,0.0,0.0,0.0,0.0,0.0,0.0,0.0,0.0031663320192821063,0.6047515162620203,9.811015174620639,0.0,0.0,0.0,0.0,0.0,0.0,0.0,0.0,0.0
2025/05/14 14:46:35.907777209,1747226795,907118455,mA1/imu,0.7683536216651254,0.6400249376684095,0.00017146559890050746,0.000872832276231261,0.0,0.0,0.0,0.0,0.0,0.0,0.0,0.0,0.0,-0.0017370817378549739,0.0021397431598211667,-0.00044261657124732755,0.0,0.0,0.0,0.0,0.0,0.0,0.0,0.0,0.0,0.002016724385368148,0.5063847528057639,9.810306815136869,0.0,0.0,0.0,0.0,0.0,0.0,0.0,0.0,0.0
2025/05/14 14:46:35.960710770,1747226795,958145757,mA1/imu,0.7683455145695943,0.6400346969935691,0.0002129396639683098,0.0008435293918841503,0.0,0.0,0.0,0.0,0.0,0.0,0.0,0.0,0.0,-7.122893579857999e-05,0.0019984602590653153,-0.0005181142961199077,0.0,0.0,0.0,0.0,0.0,0.0,0.0,0.0,0.0,0.0034633805615391696,-0.6388767627647399,9.809293529156527,0.0,0.0,0.0,0.0,0.0,0.0,0.0,0.0,0.0
2025/05/14 14:46:36.11966705,1747226796,9948254,mA1/imu,0.7683379527603975,0.6400438049735475,0.0002502827526536981,0.0008095810572584501,0.0,0.0,0.0,0.0,0.0,0.0,0.0,0.0,0.0,0.0013461750186360981,0.0019855404814100846,-0.00045795605683376695,0.0,0.0,0.0,0.0,0.0,0.0,0.0,0.0,0.0,0.00613247697468745,-0.5385379820756755,9.809239907020471,0.0,0.0,0.0,0.0,0.0,0.0,0.0,0.0,0.0
2025/05/14 14:46:36.54721501,1747226796,51424743,mA1/imu,0.7683295039638671,0.6400539597002013,0.0002893199411163522,0.000786323535677598,0.0,0.0,0.0,0.0,0.0,0.0,0.0,0.0,0.0,-0.0004079747625715629,0.0016422120300356431,-0.0005727043557101107,0.0,0.0,0.0,0.0,0.0,0.0,0.0,0.0,0.0,0.011398257809874822,0.6041921903897948,9.810731831376435,0.0,0.0,0.0,0.0,0.0,0.0,0.0,0.0,0.0
2025/05/14 14:46:36.104044345,1747226796,102465741,mA1/imu,0.7683194941575554,0.6400659713449784,0.000326148730423642,0.0007751455946374131,0.0,0.0,0.0,0.0,0.0,0.0,0.0,0.0,0.0,-0.0018712096423114976,0.0013218100522131176,-0.0006343034492447494,0.0,0.0,0.0,0.0,0.0,0.0,0.0,0.0,0.0,0.002628171872780168,0.5071837832593661,9.809849073478016,0.0,0.0,0.0,0.0,0.0,0.0,0.0,0.0,0.0
2025/05/14 14:46:36.154611508,1747226796,153467613,mA1/imu,0.7683102516499472,0.6400770686279347,0.00035429005391700237,0.0007602005147492037,0.0,0.0,0.0,0.0,0.0,0.0,0.0,0.0,0.0,-0.00014827108802745967,0.0012025062604728205,-0.0005387190819696397,0.0,0.0,0.0,0.0,0.0,0.0,0.0,0.0,0.0,0.00045697879102380226,-0.6385206579381726,9.809231060602624,0.0,0.0,0.0,0.0,0.0,0.0,0.0,0.0,0.0
2025/05/14 14:46:36.208006061,1747226796,203409551,mA1/imu,0.7683025741143076,0.6400862940788742,0.00037491906924464315,0.0007417394377991103,0.0,0.0,0.0,0.0,0.0,0.0,0.0,0.0,0.0,0.0013126142474864564,0.0010233357524827955,-0.00043727465714180357,0.0,0.0,0.0,0.0,0.0,0.0,0.0,0.0,0.0,0.0003046508906640582,-0.5400694167499337,9.808922526463785,0.0,0.0,0.0,0.0,0.0,0.0,0.0,0.0,0.0
2025/05/14 14:46:36.255493215,1747226796,254343467,mA1/imu,0.7682949542329153,0.6400954370111339,0.0003942654737502254,0.000734419841992504,0.0,0.0,0.0,0.0,0.0,0.0,0.0,0.0,0.0,-0.00036404924347127756,0.0006105713873886781,-0.0004922551669034076,0.0,0.0,0.0,0.0,0.0,0.0,0.0,0.0,0.0,0.004341356231654487,0.6061453182266664,9.810588708552459,0.0,0.0,0.0,0.0,0.0,0.0,0.0,0.0,0.0
2025/05/14 14:46:36.307294818,1747226796,304777204,mA1/imu,0.7682871151167762,0.6401048319856799,0.00040996637280187986,0.0007380661888809679,0.0,0.0,0.0,0.0,0.0,0.0,0.0,0.0,0.0,-0.0017625406619140385,0.0002506624750266818,-0.00048358634494138095,0.0,0.0,0.0,0.0,0.0,0.0,0.0,0.0,0.0,0.0040378620602189086,0.5070892655188324,9.809907780598767,0.0,0.0,0.0,0.0,0.0,0.0,0.0,0.0,0.0
2025/05/14 14:46:36.359541989,1747226796,356104306,mA1/imu,0.7682811270514084,0.64011201540944,0.0004108260807766541,0.0007407881032105597,0.0,0.0,0.0,0.0,0.0,0.0,0.0,0.0,0.0,4.574446259723582e-05,-0.0001967966329524209,-0.00032509230862028403,0.0,0.0,0.0,0.0,0.0,0.0,0.0,0.0,0.0,0.0053111019342838425,-0.6374765141801692,9.809713609829576,0.0,0.0,0.0,0.0,0.0,0.0,0.0,0.0,0.0
2025/05/14 14:46:36.407479537,1747226796,405555518,mA1/imu,0.7682756274039,0.6401186213250899,0.0003980893409707391,0.0007432999976810543,0.0,0.0,0.0,0.0,0.0,0.0,0.0,0.0,0.0,0.0015148197207159309,-0.0006541919750100574,-0.00039464947958910016,0.0,0.0,0.0,0.0,0.0,0.0,0.0,0.0,0.0,0.006379571302559245,-0.5450937690037024,9.81023561431484,0.0,0.0,0.0,0.0,0.0,0.0,0.0,0.0,0.0
2025/05/14 14:46:36.461724621,1747226796,457061643,mA1/imu,0.7682676661397029,0.6401281681597217,0.0003834055933690691,0.0007579530881796628,0.0,0.0,0.0,0.0,0.0,0.0,0.0,0.0,0.0,-0.00017648340939083898,-0.0009554664486052384,-0.0005659529706561399,0.0,0.0,0.0,0.0,0.0,0.0,0.0,0.0,0.0,0.0020457375256839163,0.6027734425624428,9.809968338410155,0.0,0.0,0.0,0.0,0.0,0.0,0.0,0.0,0.0
2025/05/14 14:46:36.519284214,1747226796,509929083,mA1/imu,0.7682581845122456,0.6401395266954851,0.00036799436328064717,0.0007828615314018689,0.0,0.0,0.0,0.0,0.0,0.0,0.0,0.0,0.0,-0.0016372266406368063,-0.0012125228211712139,-0.0005879287403936019,0.0,0.0,0.0,0.0,0.0,0.0,0.0,0.0,0.0,0.004018245377909649,0.5020823176130786,9.810130983033272,0.0,0.0,0.0,0.0,0.0,0.0,0.0,0.0,0.0
2025/05/14 14:46:36.553969880,1747226796,553312292,mA1/imu,0.7682489088113763,0.640150647455958,0.0003410820057908118,0.000803949570994684,0.0,0.0,0.0,0.0,0.0,0.0,0.0,0.0,0.0,0.00019065717709778164,-0.0014472537093689806,-0.0005756363873535979,0.0,0.0,0.0,0.0,0.0,0.0,0.0,0.0,0.0,0.004342748209000377,-0.638982321027178,9.809759144243863,0.0,0.0,0.0,0.0,0.0,0.0,0.0,0.0,0.0
2025/05/14 14:46:36.605169370,1747226796,604145642,mA1/imu,0.7682398347214916,0.6401615383711098,0.0003028845004134171,0.0008181677143916561,0.0,0.0,0.0,0.0,0.0,0.0,0.0,0.0,0.0,0.0018893239132786361,-0.0015944327986586976,-0.0005632846578562007,0.0,0.0,0.0,0.0,0.0,0.0,0.0,0.0,0.0,0.004322406687781992,-0.5273312899281349,9.809742632217002,0.0,0.0,0.0,0.0,0.0,0.0,0.0,0.0,0.0
2025/05/14 14:46:36.662426951,1747226796,655899743,mA1/imu,0.7682309426793501,0.6401721905026627,0.00027162004401882567,0.0008434687731764991,0.0,0.0,0.0,0.0,0.0,0.0,0.0,0.0,0.0,0.0008845166368465979,-0.0016224556364676677,-0.0005510050332834512,0.0,0.0,0.0,0.0,0.0,0.0,0.0,0.0,0.0,0.0031037466768219927,0.03316298240385375,9.809444812486099,0.0,0.0,0.0,0.0,0.0,0.0,0.0,0.0,0.0
2025/05/14 14:46:36.709177703,1747226796,707000800,mA1/imu,0.7682222654112659,0.6401825819297948,0.0002406795931140295,0.0008687884767121523,0.0,0.0,0.0,0.0,0.0,0.0,0.0,0.0,0.0,9.866869058957599e-05,-0.0015766963856628756,-0.0005374402496631849,0.0,0.0,0.0,0.0,0.0,0.0,0.0,0.0,0.0,0.0034184811970629104,-0.025615573258742464,9.808760427447885,0.0,0.0,0.0,0.0,0.0,0.0,0.0,0.0,0.0
2025/05/14 14:46:36.760653606,1747226796,758578843,mA1/imu,0.7682138018364951,0.6401927234628454,0.00020783836374881,0.0008878605507085032,0.0,0.0,0.0,0.0,0.0,0.0,0.0,0.0,0.0,0.0001426432076803837,-0.0014397794517705587,-0.000524666309107502,0.0,0.0,0.0,0.0,0.0,0.0,0.0,0.0,0.0,0.00359222138569165,-0.6562522780795924,9.810123643181258,0.0,0.0,0.0,0.0,0.0,0.0,0.0,0.0,0.0
2025/05/14 14:46:36.804003405,1747226796,801079155,mA1/imu,0.7682058444882166,0.6402022652724312,0.00017422534827668908,0.0008998220500608854,0.0,0.0,0.0,0.0,0.0,0.0,0.0,0.0,0.0,0.0008494103282069729,-0.0012841652701462039,-0.00044933906925598364,0.0,0.0,0.0,0.0,0.0,0.0,0.0,0.0,0.0,0.0061442606047528835,-0.17891131273311592,9.811335291764925,0.0,0.0,0.0,0.0,0.0,0.0,0.0,0.0,0.0
2025/05/14 14:46:36.854272171,1747226796,852442642,mA1/imu,0.7682004217343612,0.6402087618355998,0.00014676031263001108,0.0009120183597513883,0.0,0.0,0.0,0.0,0.0,0.0,0.0,0.0,0.0,-0.00014711074932572172,-0.0010669705555901776,-0.000265224674419779,0.0,0.0,0.0,0.0,0.0,0.0,0.0,0.0,0.0,0.003932116644500229,0.586444747712666,9.809692946532923,0.0,0.0,0.0,0.0,0.0,0.0,0.0,0.0,0.0
2025/05/14 14:46:36.905673632,1747226796,904468863,mA1/imu,0.7681969160664791,0.6402129596097624,0.00012598603782103978,0.0009212063709283188,0.0,0.0,0.0,0.0,0.0,0.0,0.0,0.0,0.0,-0.00022825064152053376,-0.0007362014501483439,-0.00021218744518537182,0.0,0.0,0.0,0.0,0.0,0.0,0.0,0.0,0.0,0.0026592747830928593,0.18929483881193535,9.80941423875738,0.0,0.0,0.0,0.0,0.0,0.0,0.0,0.0,0.0
2025/05/14 14:46:36.957191173,1747226796,955367435,mA1/imu,0.7682009108357896,0.6402081777484612,0.00012529299393034037,0.0009132561106553879,0.0,0.0,0.0,0.0,0.0,0.0,0.0,0.0,0.0,-6.98641367969555e-05,0.0005142326946744957,0.00037634212381302336,0.0,0.0,0.0,0.0,0.0,0.0,0.0,0.0,0.0,0.0010494344030950523,-0.04421223849560802,9.81102240476919,0.0,0.0,0.0,0.0,0.0,0.0,0.0,0.0,0.0
2025/05/14 14:46:37.7190226,1747226797,5337330,mA1/imu,0.7682073103262165,0.6402005273890098,0.0001310148892640368,0.0008921475733321077,0.0,0.0,0.0,0.0,0.0,0.0,0.0,0.0,0.0,0.0006439659385101992,0.0008275408247267301,0.00040574299059177246,0.0,0.0,0.0,0.0,0.0,0.0,0.0,0.0,0.0,0.004141084725459567,0.0071265561623822735,9.8107915887761,0.0,0.0,0.0,0.0,0.0,0.0,0.0,0.0,0.0
2025/05/14 14:46:37.62138841,1747226797,59208496,mA1/imu,0.7682139568144348,0.6401925730485253,0.00014778802008904305,0.0008741439924053488,0.0,0.0,0.0,0.0,0.0,0.0,0.0,0.0,0.0,0.00017011566601717482,0.001065118974415636,0.00042182112251636827,0.0,0.0,0.0,0.0,0.0,0.0,0.0,0.0,0.0,0.004039427900525867,-0.020401664153674406,9.808948073678424,0.0,0.0,0.0,0.0,0.0,0.0,0.0,0.0,0.0
2025/05/14 14:46:37.111203083,1747226797,109507005,mA1/imu,0.7682186941286892,0.6401869054579269,0.000166749819904819,0.00085805938751326,0.0,0.0,0.0,0.0,0.0,0.0,0.0,0.0,0.0,-0.001661540721855389,0.0006426865243871248,-1.1694728473622157e-05,0.0,0.0,0.0,0.0,0.0,0.0,0.0,0.0,0.0,0.05342152499770249,0.33757128092544986,9.809051858820549,0.0,0.0,0.0,0.0,0.0,0.0,0.0,0.0,0.0
2025/05/14 14:46:37.155012137,1747226797,152427732,mA1/imu,0.7682106568974103,0.6401965598288094,0.00016015306254797853,0.0008519176038855845,0.0,0.0,0.0,0.0,0.0,0.0,0.0,0.0,0.0,-0.00041621238272773254,-3.627005384491396e-05,-0.0006090570324005598,0.0,0.0,0.0,0.0,0.0,0.0,0.0,0.0,0.0,0.0035393035182581063,-0.047185656452301605,9.81128344402085,0.0,0.0,0.0,0.0,0.0,0.0,0.0,0.0,0.0
2025/05/14 14:46:37.205432768,1747226797,202588344,mA1/imu,0.76820052001132,0.6402087307235632,0.0001576405870948871,0.0008469410290901493,0.0,0.0,0.0,0.0,0.0,0.0,0.0,0.0,0.0,0.000953373943513872,0.00011114766434055838,-0.0006284257638147818,0.0,0.0,0.0,0.0,0.0,0.0,0.0,0.0,0.0,0.003678742645771912,0.055997531138694705,9.811111366138496,0.0,0.0,0.0,0.0,0.0,0.0,0.0,0.0,0.0
2025/05/14 14:46:37.256983159,1747226797,255469521,mA1/imu,0.7681898475570217,0.6402215292983806,0.0001655049106889197,0.0008509649154089681,0.0,0.0,0.0,0.0,0.0,0.0,0.0,0.0,0.0,0.00031943932852948533,0.00014142870738847693,-0.0006943442016124168,0.0,0.0,0.0,0.0,0.0,0.0,0.0,0.0,0.0,0.006806396564518865,0.2899805978009363,9.810253582038401,0.0,0.0,0.0,0.0,0.0,0.0,0.0,0.0,0.0
2025/05/14 14:46:37.308675815,1747226797,305879257,mA1/imu,0.7681782867835958,0.6402353971080161,0.0001724239940781269,0.0008522171829610767,0.0,0.0,0.0,0.0,0.0,0.0,0.0,0.0,0.0,0.00030791795905512557,0.00022432296903528664,-0.0007239562215793227,0.0,0.0,0.0,0.0,0.0,0.0,0.0,0.0,0.0,0.00405964597300557,0.02131708883210163,9.809225519004714,0.0,0.0,0.0,0.0,0.0,0.0,0.0,0.0,0.0
2025/05/14 14:46:37.361986501,1747226797,360164137,mA1/imu,0.7681708161088622,0.6402443530260188,0.0001927863106363888,0.0008535399098692672,0.0,0.0,0.0,0.0,0.0,0.0,0.0,0.0,0.0,-8.042765208808985e-05,0.000722899227472394,-0.00035751851211323477,0.0,0.0,0.0,0.0,0.0,0.0,0.0,0.0,0.0,0.005455682672217415,-0.6388561499946482,9.809517256617257,0.0,0.0,0.0,0.0,0.0,0.0,0.0,0.0,0.0
2025/05/14 14:46:37.402597427,1747226797,400036212,mA1/imu,0.7681652548780924,0.6402510383998816,0.0002067039191812432,0.0008404162292909718,0.0,0.0,0.0,0.0,0.0,0.0,0.0,0.0,0.0,0.0005848574629414038,0.0007826733858523129,-0.00034077399070992783,0.0,0.0,0.0,0.0,0.0,0.0,0.0,0.0,0.0,0.005130400045453624,-0.5897488252496341,9.80984604523999,0.0,0.0,0.0,0.0,0.0,0.0,0.0,0.0,0.0
2025/05/14 14:46:37.453427536,1747226797,451833640,mA1/imu,0.7681599445893106,0.6402574172980715,0.00022403445464478,0.0008300192248748201,0.0,0.0,0.0,0.0,0.0,0.0,0.0,0.0,0.0,0.0004619794485859628,0.0007983945984904551,-0.0003251486851542827,0.0,0.0,0.0,0.0,0.0,0.0,0.0,0.0,0.0,0.005192518529944627,0.035129963334327885,9.8093951560047,0.0,0.0,0.0,0.0,0.0,0.0,0.0,0.0,0.0
2025/05/14 14:46:37.505246640,1747226797,501745834,mA1/imu,0.768154871481278,0.640263500939067,0.0002461107473062794,0.0008259626689444736,0.0,0.0,0.0,0.0,0.0,0.0,0.0,0.0,0.0,-0.001129966097368947,0.0007695306082090987,-0.00030987135018491863,0.0,0.0,0.0,0.0,0.0,0.0,0.0,0.0,0.0,0.00576179211120936,0.5544549980553776,9.810215807651788,0.0,0.0,0.0,0.0,0.0,0.0,0.0,0.0,0.0
2025/05/14 14:46:37.554474119,1747226797,552865475,mA1/imu,0.7681500444807734,0.6402692920461289,0.00026466186884166747,0.0008202323024300855,0.0,0.0,0.0,0.0,0.0,0.0,0.0,0.0,0.0,-0.0009118844505436326,0.0006828985360458163,-0.00029501407376883893,0.0,0.0,0.0,0.0,0.0,0.0,0.0,0.0,0.0,0.00613729973392626,-0.06196194716764925,9.810804307096559,0.0,0.0,0.0,0.0,0.0,0.0,0.0,0.0,0.0
2025/05/14 14:46:37.604231226,1747226797,602997673,mA1/imu,0.7681454563874942,0.6402748033582345,0.00027682191786682607,0.0008107930981759652,0.0,0.0,0.0,0.0,0.0,0.0,0.0,0.0,0.0,0.0009387350325220219,0.0005652230641700999,-0.00028071562576687285,0.0,0.0,0.0,0.0,0.0,0.0,0.0,0.0,0.0,0.005324070530053207,-0.5634622068031285,9.809993351455928,0.0,0.0,0.0,0.0,0.0,0.0,0.0,0.0,0.0
2025/05/14 14:46:37.656475224,1747226797,655177343,mA1/imu,0.7681410845939565,0.6402800438409615,0.000291436549050337,0.0008091245728809447,0.0,0.0,0.0,0.0,0.0,0.0,0.0,0.0,0.0,-0.0006815480418796311,0.0004357967774803161,-0.0002670822053927034,0.0,0.0,0.0,0.0,0.0,0.0,0.0,0.0,0.0,0.006183399324194537,0.5823005347610061,9.81054306396906,0.0,0.0,0.0,0.0,0.0,0.0,0.0,0.0,0.0
2025/05/14 14:46:37.705804337,1747226797,704894130,mA1/imu,0.768136918500508,0.6402850325224385,0.0003047303669825622,0.0008116056228602841,0.0,0.0,0.0,0.0,0.0,0.0,0.0,0.0,0.0,-0.0016760288977130772,0.00028949900567101187,-0.0002553056870903175,0.0,0.0,0.0,0.0,0.0,0.0,0.0,0.0,0.0,0.005731280454898083,0.39440511308336407,9.810054278957505,0.0,0.0,0.0,0.0,0.0,0.0,0.0,0.0,0.0
2025/05/14 14:46:37.758387205,1747226797,756082163,mA1/imu,0.7681368885336042,0.6402850722702275,0.0003161801622511422,0.0008041964487705653,0.0,0.0,0.0,0.0,0.0,0.0,0.0,0.0,0.0,5.412012552241967e-05,0.0007273886298900923,0.00016691070276197813,0.0,0.0,0.0,0.0,0.0,0.0,0.0,0.0,0.0,-0.012460818254581056,-0.6355148528169094,9.808711888188538,0.0,0.0,0.0,0.0,0.0,0.0,0.0,0.0,0.0
2025/05/14 14:46:37.811248785,1747226797,807355246,mA1/imu,0.7681409950246353,0.6402801605123294,0.00032536782525971925,0.0007886397447768631,0.0,0.0,0.0,0.0,0.0,0.0,0.0,0.0,0.0,0.001525589148400047,0.0005517968481984434,0.0002607403982800901,0.0,0.0,0.0,0.0,0.0,0.0,0.0,0.0,0.0,0.00811995747697653,-0.537332160518575,9.809444007912413,0.0,0.0,0.0,0.0,0.0,0.0,0.0,0.0,0.0
2025/05/14 14:46:37.862286422,1747226797,858350626,mA1/imu,0.7681452586011965,0.6402750471825474,0.0003336796633711442,0.0007837740554105588,0.0,0.0,0.0,0.0,0.0,0.0,0.0,0.0,0.0,-0.00015634435345856346,0.0002520269070064151,0.00027060449209467466,0.0,0.0,0.0,0.0,0.0,0.0,0.0,0.0,0.0,0.007363052955813944,0.6073213420938148,9.81074892679251,0.0,0.0,0.0,0.0,0.0,0.0,0.0,0.0,0.0
2025/05/14 14:46:37.911104732,1747226797,910219074,mA1/imu,0.7681496729676764,0.640269741846942,0.000339647609972618,0.0007888183588703719,0.0,0.0,0.0,0.0,0.0,0.0,0.0,0.0,0.0,-0.0015585791474770545,-7.688075219898362e-05,0.00027951422611195573,0.0,0.0,0.0,0.0,0.0,0.0,0.0,0.0,0.0,0.008561809549164568,0.5081367318326669,9.810069024467479,0.0,0.0,0.0,0.0,0.0,0.0,0.0,0.0,0.0
2025/05/14 14:46:37.956551126,1747226797,953580203,mA1/imu,0.7681554319297194,0.6402628316960581,0.00033153362292225524,0.0007929885674096691,0.0,0.0,0.0,0.0,0.0,0.0,0.0,0.0,0.0,0.00021241294737465728,-0.000501889747802919,0.0003810103937883427,0.0,0.0,0.0,0.0,0.0,0.0,0.0,0.0,0.0,0.009335746603064288,-0.637553686273917,9.809718785506318,0.0,0.0,0.0,0.0,0.0,0.0,0.0,0.0,0.0
2025/05/14 14:46:38.8576656,1747226798,7229052,mA1/imu,0.7681616406577817,0.6402553886548538,0.00031127157370505634,0.0007963858202317556,0.0,0.0,0.0,0.0,0.0,0.0,0.0,0.0,0.0,0.001697615018739071,-0.0008529821470707515,0.00039114324901060423,0.0,0.0,0.0,0.0,0.0,0.0,0.0,0.0,0.0,0.009233208975927061,-0.5389723811148418,9.809360956870094,0.0,0.0,0.0,0.0,0.0,0.0,0.0,0.0,0.0
2025/05/14 14:46:38.61891582,1747226798,59242005,mA1/imu,0.7681680072405093,0.6402477422640324,0.0002902533258830832,0.0008105127765053946,0.0,0.0,0.0,0.0,0.0,0.0,0.0,0.0,0.0,5.826646328667653e-06,-0.0011128715651554423,0.00040118278721766945,0.0,0.0,0.0,0.0,0.0,0.0,0.0,0.0,0.0,0.007862241346950648,0.6062735499607245,9.810622508432012,0.0,0.0,0.0,0.0,0.0,0.0,0.0,0.0,0.0
2025/05/14 14:46:38.110174187,1747226798,109100510,mA1/imu,0.7681745355834175,0.6402398894143445,0.0002689278787137244,0.0008334036865324719,0.0,0.0,0.0,0.0,0.0,0.0,0.0,0.0,0.0,-0.001415008069664797,-0.0013092290292201954,0.00041215904405587683,0.0,0.0,0.0,0.0,0.0,0.0,0.0,0.0,0.0,0.007926258298831604,0.508049345839596,9.80994896965586,0.0,0.0,0.0,0.0,0.0,0.0,0.0,0.0,0.0
2025/05/14 14:46:38.153677024,1747226798,151796196,mA1/imu,0.7681794601098926,0.6402339673669678,0.00023893541305516696,0.0008526457029826905,0.0,0.0,0.0,0.0,0.0,0.0,0.0,0.0,0.0,0.00028051584141495275,-0.0014463368059965522,0.00023708566455325826,0.0,0.0,0.0,0.0,0.0,0.0,0.0,0.0,0.0,0.008366690953168176,-0.6429242150273231,9.810409687572763,0.0,0.0,0.0,0.0,0.0,0.0,0.0,0.0,0.0
2025/05/14 14:46:38.203206266,1747226798,201572446,mA1/imu,0.768182621210032,0.6402301666488387,0.0002037248324533766,0.000867571252120853,0.0,0.0,0.0,0.0,0.0,0.0,0.0,0.0,0.0,0.0017016836097877343,-0.0014295093607126304,0.00018163160594595202,0.0,0.0,0.0,0.0,0.0,0.0,0.0,0.0,0.0,0.0007914556276053652,-0.5409703501435922,9.810395871687144,0.0,0.0,0.0,0.0,0.0,0.0,0.0,0.0,0.0
2025/05/14 14:46:38.260503414,1747226798,253926082,mA1/imu,0.7681850112762582,0.6402272819772921,0.00017873952472772137,0.0008853895448464155,0.0,0.0,0.0,0.0,0.0,0.0,0.0,0.0,0.0,-2.085394763405922e-05,-0.0011015385274020964,0.000125763152954939,0.0,0.0,0.0,0.0,0.0,0.0,0.0,0.0,0.0,-0.0014086596793228112,0.6059722412178308,9.809415492004518,0.0,0.0,0.0,0.0,0.0,0.0,0.0,0.0,0.0
2025/05/14 14:46:38.307599248,1747226798,303973597,mA1/imu,0.7681864564518244,0.6402255240455444,0.00016254139967747968,0.0009055743430243137,0.0,0.0,0.0,0.0,0.0,0.0,0.0,0.0,0.0,-0.0014758946958570666,-0.0009755189355793752,7.409871553437616e-05,0.0,0.0,0.0,0.0,0.0,0.0,0.0,0.0,0.0,0.0075595165590178846,0.5079205172550719,9.809887368783405,0.0,0.0,0.0,0.0,0.0,0.0,0.0,0.0,0.0
2025/05/14 14:46:38.360630369,1747226798,356942108,mA1/imu,0.7681877043271657,0.640224017121268,0.00014483774887541186,0.0009153380206981996,0.0,0.0,0.0,0.0,0.0,0.0,0.0,0.0,0.0,0.0002633941061003776,-0.0005935196453027458,8.405274627622714e-05,0.0,0.0,0.0,0.0,0.0,0.0,0.0,0.0,0.0,-0.0026908938120711653,-0.64108254318533,9.810394764366668,0.0,0.0,0.0,0.0,0.0,0.0,0.0,0.0,0.0
2025/05/14 14:46:38.409927280,1747226798,408897311,mA1/imu,0.7681891784984606,0.6402222562160105,0.00013188386131485783,0.0009117511658809681,0.0,0.0,0.0,0.0,0.0,0.0,0.0,0.0,0.0,0.0017209922412019115,-0.00018549825764811286,9.075179685625249e-05,0.0,0.0,0.0,0.0,0.0,0.0,0.0,0.0,0.0,0.0073746914189663,-0.5358220788533675,9.80926169217936,0.0,0.0,0.0,0.0,0.0,0.0,0.0,0.0,0.0
2025/05/14 14:46:38.457193775,1747226798,454634938,mA1/imu,0.768190668415438,0.6402204744305441,0.0001323261150862772,0.000907507119000241,0.0,0.0,0.0,0.0,0.0,0.0,0.0,0.0,0.0,1.010714186658189e-05,0.00023126319806775076,9.11085592771851e-05,0.0,0.0,0.0,0.0,0.0,0.0,0.0,0.0,0.0,0.006869177010523718,0.6096183113994225,9.810731464298952,0.0,0.0,0.0,0.0,0.0,0.0,0.0,0.0,0.0
2025/05/14 14:46:38.509433915,1747226798,507454645,mA1/imu,0.7681920282337573,0.6402188443361726,0.00014161518566415266,0.0009050193925325078,0.0,0.0,0.0,0.0,0.0,0.0,0.0,0.0,0.0,-0.0014259289450491612,0.00044239037488809217,8.116748670402416e-05,0.0,0.0,0.0,0.0,0.0,0.0,0.0,0.0,0.0,0.005773889933767446,0.5113456302606851,9.810144471885092,0.0,0.0,0.0,0.0,0.0,0.0,0.0,0.0,0.0
2025/05/14 14:46:38.561272934,1747226798,558490778,mA1/imu,0.7681922979986449,0.6402185364292698,0.00015088919824947643,0.0008922669863399152,0.0,0.0,0.0,0.0,0.0,0.0,0.0,0.0,0.0,0.00024916174613878245,0.0007450683323292229,-2.6470136125862558e-05,0.0,0.0,0.0,0.0,0.0,0.0,0.0,0.0,0.0,0.00291845397639829,-0.6409652346646567,9.810549516255673,0.0,0.0,0.0,0.0,0.0,0.0,0.0,0.0,0.0
2025/05/14 14:46:38.615123351,1747226798,610693832,mA1/imu,0.7681914742056667,0.6402195522608514,0.00016075062638744238,0.0008706433689889545,0.0,0.0,0.0,0.0,0.0,0.0,0.0,0.0,0.0,0.0016846809969262055,0.0009067690424525061,-5.59387098788968e-05,0.0,0.0,0.0,0.0,0.0,0.0,0.0,0.0,0.0,0.006584379525663051,-0.5340809852172286,9.80951995895025,0.0,0.0,0.0,0.0,0.0,0.0,0.0,0.0,0.0
2025/05/14 14:46:38.657129206,1747226798,655556765,mA1/imu,0.7681906573450691,0.6402205548141244,0.00018264416416699048,0.0008495895211522325,0.0,0.0,0.0,0.0,0.0,0.0,0.0,0.0,0.0,-3.255543672217471e-05,0.0013828597619386692,-4.708735151250466e-05,0.0,0.0,0.0,0.0,0.0,0.0,0.0,0.0,0.0,-0.0054094268148432885,0.6100075610133139,9.81014413072639,0.0,0.0,0.0,0.0,0.0,0.0,0.0,0.0,0.0
2025/05/14 14:46:38.707007227,1747226798,705501870,mA1/imu,0.7681899331917389,0.6402214401233388,0.00021616244871568987,0.0008291098030631431,0.0,0.0,0.0,0.0,0.0,0.0,0.0,0.0,0.0,-0.0015077298682082462,0.0015906129306358368,-4.679561809655796e-05,0.0,0.0,0.0,0.0,0.0,0.0,0.0,0.0,0.0,0.006838781180042884,0.5136275837331504,9.810331673550904,0.0,0.0,0.0,0.0,0.0,0.0,0.0,0.0,0.0
2025/05/14 14:46:38.758778261,1747226798,757369253,mA1/imu,0.7681890611433991,0.6402225103771633,0.0002437063535624051,0.0008025915518973273,0.0,0.0,0.0,0.0,0.0,0.0,0.0,0.0,0.0,0.00022157177571008414,0.0014798710705143433,-5.901989791252068e-05,0.0,0.0,0.0,0.0,0.0,0.0,0.0,0.0,0.0,0.008226413120910148,-0.632184145010813,9.80997076024001,0.0,0.0,0.0,0.0,0.0,0.0,0.0,0.0,0.0
2025/05/14 14:46:38.811784755,1747226798,809621277,mA1/imu,0.7681879984341462,0.6402238141779297,0.0002636921235665795,0.0007728438834183512,0.0,0.0,0.0,0.0,0.0,0.0,0.0,0.0,0.0,0.0016728890192122961,0.0012847582934024605,-7.113126629845581e-05,0.0,0.0,0.0,0.0,0.0,0.0,0.0,0.0,0.0,0.008427492964681947,-0.5339523996895463,9.809621743299006,0.0,0.0,0.0,0.0,0.0,0.0,0.0,0.0,0.0
2025/05/14 14:46:38.851795396,1747226798,850559130,mA1/imu,0.7681867344538544,0.640225344973907,0.000284883881905109,0.000753328174757936,0.0,0.0,0.0,0.0,0.0,0.0,0.0,0.0,0.0,-5.48141882293681e-05,0.0010423579020669618,-8.337083590271537e-05,0.0,0.0,0.0,0.0,0.0,0.0,0.0,0.0,0.0,0.007923833957339019,0.6108898045552715,9.811032429580651,0.0,0.0,0.0,0.0,0.0,0.0,0.0,0.0,0.0
2025/05/14 14:46:38.903388586,1747226798,902705643,mA1/imu,0.7681875716968907,0.6402243450481807,0.00030930251018691964,0.0007396147781186459,0.0,0.0,0.0,0.0,0.0,0.0,0.0,0.0,0.0,-0.0014004727785417862,0.0015463057493771877,0.00038414995705054604,0.0,0.0,0.0,0.0,0.0,0.0,0.0,0.0,0.0,-0.05018656222790124,0.5319497697517115,9.811779471995377,0.0,0.0,0.0,0.0,0.0,0.0,0.0,0.0,0.0
2025/05/14 14:46:38.955503691,1747226798,953875669,mA1/imu,0.7682004320431799,0.6402089366260629,0.0003384770708825066,0.0007064743943536847,0.0,0.0,0.0,0.0,0.0,0.0,0.0,0.0,0.0,0.000479880914334736,0.0015825444258543056,0.0008430015096857298,0.0,0.0,0.0,0.0,0.0,0.0,0.0,0.0,0.0,0.011800322376238683,-0.6203586888345761,9.80949538449913,0.0,0.0,0.0,0.0,0.0,0.0,0.0,0.0,0.0
2025/05/14 14:46:39.9723763,1747226799,3647938,mA1/imu,0.7682136959688405,0.6401930393587039,0.0003563399011316658,0.0006802238116139209,0.0,0.0,0.0,0.0,0.0,0.0,0.0,0.0,0.0,0.0012767870751822577,0.0009582947096190757,0.0008197657074354959,0.0,0.0,0.0,0.0,0.0,0.0,0.0,0.0,0.0,0.011835134492497817,-0.5651125089225197,9.809316807061961,0.0,0.0,0.0,0.0,0.0,0.0,0.0,0.0,0.0
2025/05/14 14:46:39.62033476,1747226799,55521445,mA1/imu,0.7682266026815429,0.6401775621191074,0.00036360498542968274,0.0006660953578741557,0.0,0.0,0.0,0.0,0.0,0.0,0.0,0.0,0.0,0.0008280786802130274,0.00032363615212603104,0.0007978244675987205,0.0,0.0,0.0,0.0,0.0,0.0,0.0,0.0,0.0,0.009790050235074227,0.038908377525931334,9.810526175092575,0.0,0.0,0.0,0.0,0.0,0.0,0.0,0.0,0.0
2025/05/14 14:46:39.106982457,1747226799,106080438,mA1/imu,0.7682392404086451,0.6401623968056173,0.0003628118005801652,0.0006660180425295771,0.0,0.0,0.0,0.0,0.0,0.0,0.0,0.0,0.0,-0.0007081567478773216,-0.0001785383808605529,0.0007923532673891882,0.0,0.0,0.0,0.0,0.0,0.0,0.0,0.0,0.0,0.0002955945675678271,0.5617188956722619,9.811208507318023,0.0,0.0,0.0,0.0,0.0,0.0,0.0,0.0,0.0
2025/05/14 14:46:39.158437885,1747226799,157152919,mA1/imu,0.7682513682910809,0.6401478348268949,0.0003561593735526557,0.0006766356634715627,0.0,0.0,0.0,0.0,0.0,0.0,0.0,0.0,0.0,-0.0007772116235333167,-0.0007205243500796251,0.0006964886615970468,0.0,0.0,0.0,0.0,0.0,0.0,0.0,0.0,0.0,0.01201080520337685,-0.07040024071741792,9.809542493767921,0.0,0.0,0.0,0.0,0.0,0.0,0.0,0.0,0.0
2025/05/14 14:46:39.209310861,1747226799,207785058,mA1/imu,0.7682617991560883,0.6401353124139927,0.000333571034369538,0.000691728599435299,0.0,0.0,0.0,0.0,0.0,0.0,0.0,0.0,0.0,0.0008018088185817726,-0.0013105169864553754,0.0006403501512144306,0.0,0.0,0.0,0.0,0.0,0.0,0.0,0.0,0.0,0.01021828053977482,-0.5820017208744288,9.808497469802514,0.0,0.0,0.0,0.0,0.0,0.0,0.0,0.0,0.0
2025/05/14 14:46:39.261759947,1747226799,259541337,mA1/imu,0.7682718148390024,0.6401232829386025,0.00030086671784646137,0.0007145929676766838,0.0,0.0,0.0,0.0,0.0,0.0,0.0,0.0,0.0,0.0007065327942665997,-0.0017710340504476256,0.0006146152977870067,0.0,0.0,0.0,0.0,0.0,0.0,0.0,0.0,0.0,0.007957331695543707,0.04438063892481736,9.810226911465321,0.0,0.0,0.0,0.0,0.0,0.0,0.0,0.0,0.0
2025/05/14 14:46:39.311001712,1747226799,309579490,mA1/imu,0.7682814070295015,0.6401117453851793,0.00026552175316957766,0.0007500206047416872,0.0,0.0,0.0,0.0,0.0,0.0,0.0,0.0,0.0,-0.0008920914648120598,-0.0021178163372242375,0.0005872492270801369,0.0,0.0,0.0,0.0,0.0,0.0,0.0,0.0,0.0,0.007953754289795261,0.5657481067908408,9.810837043623195,0.0,0.0,0.0,0.0,0.0,0.0,0.0,0.0,0.0
2025/05/14 14:46:39.353191651,1747226799,350446230,mA1/imu,0.7682909372358598,0.6401002752156332,0.00022884036941047287,0.0007880749964979399,0.0,0.0,0.0,0.0,0.0,0.0,0.0,0.0,0.0,-0.0008422859353478954,-0.0020645595353046245,0.0005995943092208264,0.0,0.0,0.0,0.0,0.0,0.0,0.0,0.0,0.0,-0.0001668718511831039,-0.06211456686942189,9.809372703498942,0.0,0.0,0.0,0.0,0.0,0.0,0.0,0.0,0.0
2025/05/14 14:46:39.403246645,1747226799,401986433,mA1/imu,0.7683003960617224,0.6400888940052847,0.0001880973596616326,0.0008208543568145156,0.0,0.0,0.0,0.0,0.0,0.0,0.0,0.0,0.0,0.000718028158425595,-0.002135200734961695,0.0005779636951678723,0.0,0.0,0.0,0.0,0.0,0.0,0.0,0.0,0.0,0.008181507911349487,-0.5776215570654102,9.808623790018418,0.0,0.0,0.0,0.0,0.0,0.0,0.0,0.0,0.0
2025/05/14 14:46:39.453951382,1747226799,453015897,mA1/imu,0.7683097305909501,0.6400776582132292,0.00015067993385301962,0.000852426588006932,0.0,0.0,0.0,0.0,0.0,0.0,0.0,0.0,0.0,0.0005617312724757432,-0.001881295208037659,0.0005811124738948967,0.0,0.0,0.0,0.0,0.0,0.0,0.0,0.0,0.0,0.0059476488742284065,0.04404420497520134,9.81016797333927,0.0,0.0,0.0,0.0,0.0,0.0,0.0,0.0,0.0
2025/05/14 14:46:39.507622548,1747226799,502940870,mA1/imu,0.7683187327668962,0.6400668103354643,0.00012110747918799703,0.0008879861678661273,0.0,0.0,0.0,0.0,0.0,0.0,0.0,0.0,0.0,-0.0010189959203513502,-0.0017592252955808223,0.0005506023820893121,0.0,0.0,0.0,0.0,0.0,0.0,0.0,0.0,0.0,0.006615865948764002,0.563105792767256,9.810856765022649,0.0,0.0,0.0,0.0,0.0,0.0,0.0,0.0,0.0
2025/05/14 14:46:39.556652110,1747226799,553880599,mA1/imu,0.7683310686534351,0.6400519687427411,0.00010100299988203361,0.0009143570450070838,0.0,0.0,0.0,0.0,0.0,0.0,0.0,0.0,0.0,-0.0008669159672650354,-0.0009657866787619809,0.000917493294794725,0.0,0.0,0.0,0.0,0.0,0.0,0.0,0.0,0.0,-0.010195479535526896,-0.05943407406980765,9.808528259133029,0.0,0.0,0.0,0.0,0.0,0.0,0.0,0.0,0.0
2025/05/14 14:46:39.604838959,1747226799,603739102,mA1/imu,0.7683484168103829,0.6400311336082369,8.923763997765983e-05,0.0009221896641739536,0.0,0.0,0.0,0.0,0.0,0.0,0.0,0.0,0.0,0.0007698809447406849,-0.00042422208074607707,0.0011163199003355402,0.0,0.0,0.0,0.0,0.0,0.0,0.0,0.0,0.0,0.009646450143924795,-0.5775466206130523,9.808742894046302,0.0,0.0,0.0,0.0,0.0,0.0,0.0,0.0,0.0
2025/05/14 14:46:39.656837878,1747226799,654788106,mA1/imu,0.7683663683695956,0.6400095812918416,8.536647130811831e-05,0.0009233231969737723,0.0,0.0,0.0,0.0,0.0,0.0,0.0,0.0,0.0,0.0006538302228743023,-1.9253100853096484e-05,0.001120284818446539,0.0,0.0,0.0,0.0,0.0,0.0,0.0,0.0,0.0,0.008394503583702442,0.044758925684347264,9.810435478090339,0.0,0.0,0.0,0.0,0.0,0.0,0.0,0.0,0.0
2025/05/14 14:46:39.708728906,1747226799,705159650,mA1/imu,0.7683839884828704,0.6399884217260362,9.047609225652396e-05,0.0009263443474224066,0.0,0.0,0.0,0.0,0.0,0.0,0.0,0.0,0.0,-0.0008955563845428651,0.00014725134301249248,0.0010887033212487534,0.0,0.0,0.0,0.0,0.0,0.0,0.0,0.0,0.0,0.009380848822983475,0.563488775239593,9.811281867513713,0.0,0.0,0.0,0.0,0.0,0.0,0.0,0.0,0.0
2025/05/14 14:46:39.763755422,1747226799,760658793,mA1/imu,0.7684016938845832,0.6399671665364725,0.00010072807939942363,0.000923279175729161,0.0,0.0,0.0,0.0,0.0,0.0,0.0,0.0,0.0,-0.0007207569497572936,0.0006011922563782709,0.001165186299781728,0.0,0.0,0.0,0.0,0.0,0.0,0.0,0.0,0.0,-0.007735367034128551,-0.06810743112449227,9.808752485746618,0.0,0.0,0.0,0.0,0.0,0.0,0.0,0.0,0.0
2025/05/14 14:46:39.807355431,1747226799,804338229,mA1/imu,0.7684228664878393,0.6399417689329413,0.0001151447892756073,0.000904088086087537,0.0,0.0,0.0,0.0,0.0,0.0,0.0,0.0,0.0,0.0009384244296191701,0.0010141836749325336,0.0013494746797990426,0.0,0.0,0.0,0.0,0.0,0.0,0.0,0.0,0.0,0.012192605556843025,-0.5742029946202607,9.808864889573206,0.0,0.0,0.0,0.0,0.0,0.0,0.0,0.0,0.0
2025/05/14 14:46:39.856620694,1747226799,854817977,mA1/imu,0.7684443023665858,0.6399160565421973,0.0001331542703481735,0.0008814815681995892,0.0,0.0,0.0,0.0,0.0,0.0,0.0,0.0,0.0,0.0008273264703424497,0.0011330374372584215,0.0013255878756790443,0.0,0.0,0.0,0.0,0.0,0.0,0.0,0.0,0.0,0.011525573640504527,0.046429821387341016,9.810631852066692,0.0,0.0,0.0,0.0,0.0,0.0,0.0,0.0,0.0
2025/05/14 14:46:39.906152311,1747226799,904936477,mA1/imu,0.7684651522861192,0.6398910359750961,0.0001553660632569596,0.0008646744915027564,0.0,0.0,0.0,0.0,0.0,0.0,0.0,0.0,0.0,-0.0007244375846678907,0.001156759688591031,0.0012979083823590263,0.0,0.0,0.0,0.0,0.0,0.0,0.0,0.0,0.0,0.0029064691130831783,0.562984352394573,9.81158379066628,0.0,0.0,0.0,0.0,0.0,0.0,0.0,0.0,0.0
2025/05/14 14:46:39.962330223,1747226799,960316824,mA1/imu,0.7684857596600736,0.6398663076328254,0.00017617972831719772,0.0008452909069817309,0.0,0.0,0.0,0.0,0.0,0.0,0.0,0.0,0.0,-0.0005270006880769005,0.0010668693535271956,0.001272325370232784,0.0,0.0,0.0,0.0,0.0,0.0,0.0,0.0,0.0,0.013657602217922754,-0.053902353008788755,9.809830469786808,0.0,0.0,0.0,0.0,0.0,0.0,0.0,0.0,0.0
2025/05/14 14:46:40.4460904,1747226800,2704982,mA1/imu,0.7685056882353531,0.6398423988252717,0.0001874342928944498,0.0008226079345502407,0.0,0.0,0.0,0.0,0.0,0.0,0.0,0.0,0.0,0.0011060074960349785,0.0008211708268994096,0.0012273180439116116,0.0,0.0,0.0,0.0,0.0,0.0,0.0,0.0,0.0,0.013028692856982096,-0.5712629207589385,9.808995612027756,0.0,0.0,0.0,0.0,0.0,0.0,0.0,0.0,0.0
2025/05/14 14:46:40.55319649,1747226800,53686541,mA1/imu,0.7685251712504404,0.639819020176984,0.0001964519295407174,0.0008024841958701512,0.0,0.0,0.0,0.0,0.0,0.0,0.0,0.0,0.0,0.0009727610658430857,0.0007000077562877559,0.0012035759572458873,0.0,0.0,0.0,0.0,0.0,0.0,0.0,0.0,0.0,0.01261286442257754,0.048589213371202186,9.810646662529392,0.0,0.0,0.0,0.0,0.0,0.0,0.0,0.0,0.0
2025/05/14 14:46:40.105790076,1747226800,103987892,mA1/imu,0.7685439812525395,0.6397964351126066,0.00020512919035008185,0.0007927292801262687,0.0,0.0,0.0,0.0,0.0,0.0,0.0,0.0,0.0,-0.0006039841660582689,0.0003938297918627928,0.0011573735808253752,0.0,0.0,0.0,0.0,0.0,0.0,0.0,0.0,0.0,0.012982516016849351,0.5678467231910871,9.811227543051922,0.0,0.0,0.0,0.0,0.0,0.0,0.0,0.0,0.0
2025/05/14 14:46:40.156246903,1747226800,155014874,mA1/imu,0.768562372011451,0.639774350003236,0.00020923335766949344,0.000785892785868555,0.0,0.0,0.0,0.0,0.0,0.0,0.0,0.0,0.0,-0.000475465151508007,0.00019573292750038723,0.0011354744584845455,0.0,0.0,0.0,0.0,0.0,0.0,0.0,0.0,0.0,0.013317690786029613,-0.054832875792961644,9.809738666703886,0.0,0.0,0.0,0.0,0.0,0.0,0.0,0.0,0.0
2025/05/14 14:46:40.216864069,1747226800,205997804,mA1/imu,0.7685801901056323,0.6397529590988427,0.00020176557412118225,0.0007758815101064581,0.0,0.0,0.0,0.0,0.0,0.0,0.0,0.0,0.0,0.0011810364189293338,-3.8427108436613594e-05,0.001108214609022759,0.0,0.0,0.0,0.0,0.0,0.0,0.0,0.0,0.0,0.004080351489332116,-0.5713082316648511,9.808780059698648,0.0,0.0,0.0,0.0,0.0,0.0,0.0,0.0,0.0
2025/05/14 14:46:40.257896887,1747226800,257300736,mA1/imu,0.7685977385383825,0.639731887293031,0.00019259573848741341,0.0007691560715446162,0.0,0.0,0.0,0.0,0.0,0.0,0.0,0.0,0.0,0.001012901964231091,-0.00022609744037115092,0.0010798009710762495,0.0,0.0,0.0,0.0,0.0,0.0,0.0,0.0,0.0,0.012363981837738477,0.050923230075522824,9.81032633735441,0.0,0.0,0.0,0.0,0.0,0.0,0.0,0.0,0.0
2025/05/14 14:46:40.308773502,1747226800,307363757,mA1/imu,0.7686145667593087,0.6397116658898927,0.00018326968729491484,0.0007737583603090224,0.0,0.0,0.0,0.0,0.0,0.0,0.0,0.0,0.0,-0.0005992282159907569,-0.000515951933632554,0.0010331455147067716,0.0,0.0,0.0,0.0,0.0,0.0,0.0,0.0,0.0,0.012533135167101219,0.5696549789457228,9.810997156430965,0.0,0.0,0.0,0.0,0.0,0.0,0.0,0.0,0.0
2025/05/14 14:46:40.370477133,1747226800,360145198,mA1/imu,0.7686310759571234,0.6396918266061359,0.000170653205607735,0.000779053132653091,0.0,0.0,0.0,0.0,0.0,0.0,0.0,0.0,0.0,-0.0001467396365259288,-0.0005516750044978558,0.001024089254747369,0.0,0.0,0.0,0.0,0.0,0.0,0.0,0.0,0.0,0.012245391652666856,-0.18009616809673581,9.809501653925485,0.0,0.0,0.0,0.0,0.0,0.0,0.0,0.0,0.0
2025/05/14 14:46:40.403308213,1747226800,402462613,mA1/imu,0.768647006575994,0.6396726859708315,0.00015073229676527934,0.0007819107367595772,0.0,0.0,0.0,0.0,0.0,0.0,0.0,0.0,0.0,0.000670905165933254,-0.0007745188032775925,0.0009764848589370185,0.0,0.0,0.0,0.0,0.0,0.0,0.0,0.0,0.0,0.012115007019688212,0.019894632995401507,9.809833749434858,0.0,0.0,0.0,0.0,0.0,0.0,0.0,0.0,0.0
2025/05/14 14:46:40.455461681,1747226800,453813050,mA1/imu,0.7686626719738419,0.6396538554038859,0.00013391917681732058,0.0007899662225233424,0.0,0.0,0.0,0.0,0.0,0.0,0.0,0.0,0.0,5.4408904941482506e-05,-0.0007283448427852744,0.0009706774691634561,0.0,0.0,0.0,0.0,0.0,0.0,0.0,0.0,0.0,0.01153906027238117,0.17932358390492564,9.810789056012341,0.0,0.0,0.0,0.0,0.0,0.0,0.0,0.0,0.0
2025/05/14 14:46:40.511424416,1747226800,507413152,mA1/imu,0.7686777268598243,0.6396357523203708,0.00011754016548791381,0.0008017278066650687,0.0,0.0,0.0,0.0,0.0,0.0,0.0,0.0,0.0,-0.00042161796797753396,-0.0008545739274799339,0.0009216640651543476,0.0,0.0,0.0,0.0,0.0,0.0,0.0,0.0,0.0,0.012591492933008102,0.3084790276548229,9.810856057699377,0.0,0.0,0.0,0.0,0.0,0.0,0.0,0.0,0.0
2025/05/14 14:46:40.559041699,1747226800,558169286,mA1/imu,0.7686990922673959,0.6396100736250363,0.00010937290562332492,0.0008045509461410713,0.0,0.0,0.0,0.0,0.0,0.0,0.0,0.0,0.0,0.0005313173971555088,-0.0002764573026915446,0.0013982357327166927,0.0,0.0,0.0,0.0,0.0,0.0,0.0,0.0,0.0,0.014041800116321924,-0.602054555681283,9.809005816360445,0.0,0.0,0.0,0.0,0.0,0.0,0.0,0.0,0.0
2025/05/14 14:46:40.611010651,1747226800,608859067,mA1/imu,0.7687209396029611,0.6395838185881857,9.652906290306328e-05,0.0008041755004346316,0.0,0.0,0.0,0.0,0.0,0.0,0.0,0.0,0.0,-0.0002586363542962934,-0.00045106107152770026,0.001342961346232421,0.0,0.0,0.0,0.0,0.0,0.0,0.0,0.0,0.0,0.014580725158881848,0.604336390891789,9.810613839020004,0.0,0.0,0.0,0.0,0.0,0.0,0.0,0.0,0.0
2025/05/14 14:46:40.652517575,1747226800,651105679,mA1/imu,0.7687421754861883,0.6395582855857594,8.874318497012262e-05,0.0008118448210496363,0.0,0.0,0.0,0.0,0.0,0.0,0.0,0.0,0.0,-0.000765298121172343,-0.00046186872527360646,0.0013089867095825703,0.0,0.0,0.0,0.0,0.0,0.0,0.0,0.0,0.0,0.013929595872138064,0.331021157746556,9.810260121440521,0.0,0.0,0.0,0.0,0.0,0.0,0.0,0.0,0.0
2025/05/14 14:46:40.702369461,1747226800,701338769,mA1/imu,0.7687625662476081,0.6395337680202916,7.737506750768122e-05,0.00081872538657496,0.0,0.0,0.0,0.0,0.0,0.0,0.0,0.0,0.0,-0.0007005447460834676,-0.0005693096474481949,0.0012529366689017789,0.0,0.0,0.0,0.0,0.0,0.0,0.0,0.0,0.0,0.014430259754660814,0.5794208232262759,9.811158599509858,0.0,0.0,0.0,0.0,0.0,0.0,0.0,0.0,0.0
2025/05/14 14:46:40.754129299,1747226800,753041873,mA1/imu,0.7687916973567217,0.6394987524948594,8.147789730340415e-05,0.0008154717907693978,0.0,0.0,0.0,0.0,0.0,0.0,0.0,0.0,0.0,-0.0006677624360612487,0.0005275698813540584,0.0020586928997692864,0.0,0.0,0.0,0.0,0.0,0.0,0.0,0.0,0.0,0.01680078800722989,-0.050439955142098744,9.810996029205608,0.0,0.0,0.0,0.0,0.0,0.0,0.0,0.0,0.0
2025/05/14 14:46:40.807306645,1747226800,803668760,mA1/imu,0.7688240603140343,0.6394598517817577,8.85155104460808e-05,0.0008089539536750103,0.0,0.0,0.0,0.0,0.0,0.0,0.0,0.0,0.0,-0.0016018406478821828,0.000284472583013638,0.002000357538653721,0.0,0.0,0.0,0.0,0.0,0.0,0.0,0.0,0.0,0.017249370480905163,0.5193323028049445,9.810566939429583,0.0,0.0,0.0,0.0,0.0,0.0,0.0,0.0,0.0
2025/05/14 14:46:40.855745351,1747226800,854573678,mA1/imu,0.7688555808638109,0.639421965302532,8.735672449970407e-05,0.0007990194128312167,0.0,0.0,0.0,0.0,0.0,0.0,0.0,0.0,0.0,0.00014616823153527065,0.00014170305497032172,0.0019464909303364148,0.0,0.0,0.0,0.0,0.0,0.0,0.0,0.0,0.0,0.016737306167753513,0.08609843604606833,9.809900140362666,0.0,0.0,0.0,0.0,0.0,0.0,0.0,0.0,0.0
2025/05/14 14:46:40.907474950,1747226800,906675448,mA1/imu,0.7688861009385182,0.6393852670695521,8.692103381081982e-05,0.0007977986552374946,0.0,0.0,0.0,0.0,0.0,0.0,0.0,0.0,0.0,0.00012127496639529977,1.1715809834323782e-06,0.001889771107373313,0.0,0.0,0.0,0.0,0.0,0.0,0.0,0.0,0.0,0.007858529748479672,0.6441669639650685,9.810746920490445,0.0,0.0,0.0,0.0,0.0,0.0,0.0,0.0,0.0
2025/05/14 14:46:40.960301551,1747226800,957717452,mA1/imu,0.7689158865156566,0.6393494385641152,9.038786064385489e-05,0.0008041776094452667,0.0,0.0,0.0,0.0,0.0,0.0,0.0,0.0,0.0,0.00038092362783841437,-0.00014845212637403904,0.001838657579181614,0.0,0.0,0.0,0.0,0.0,0.0,0.0,0.0,0.0,0.015990420199349247,0.00042534383342547957,9.809489702574954,0.0,0.0,0.0,0.0,0.0,0.0,0.0,0.0,0.0
2025/05/14 14:46:41.10535245,1747226801,8936791,mA1/imu,0.76894536674998,0.6393139712605198,9.085962038682106e-05,0.0008129264244836462,0.0,0.0,0.0,0.0,0.0,0.0,0.0,0.0,0.0,0.0005005098411208843,-0.0001484061142457347,0.0019262129072216444,0.0,0.0,0.0,0.0,0.0,0.0,0.0,0.0,0.0,-0.002534136749042069,-0.5814474514945341,9.81027108102724,0.0,0.0,0.0,0.0,0.0,0.0,0.0,0.0,0.0
2025/05/14 14:46:41.60977698,1747226801,60098467,mA1/imu,0.7689775790171961,0.6392752237603649,8.991142370126903e-05,0.0008143530703741025,0.0,0.0,0.0,0.0,0.0,0.0,0.0,0.0,0.0,0.0004962706490531347,-0.00014048725979279246,0.002005809615468023,0.0,0.0,0.0,0.0,0.0,0.0,0.0,0.0,0.0,0.01619140155011104,-0.5820671130672729,9.810334100544308,0.0,0.0,0.0,0.0,0.0,0.0,0.0,0.0,0.0
2025/05/14 14:46:41.100979873,1747226801,99970149,mA1/imu,0.7690088404424374,0.6392376116811698,8.56232319222955e-05,0.0008196354029972395,0.0,0.0,0.0,0.0,0.0,0.0,0.0,0.0,0.0,-0.0013597879723897097,-0.00033834433952101175,0.0018984744931596876,0.0,0.0,0.0,0.0,0.0,0.0,0.0,0.0,0.0,0.015891081575210735,0.5470607469864306,9.81040435588317,0.0,0.0,0.0,0.0,0.0,0.0,0.0,0.0,0.0
2025/05/14 14:46:41.156675433,1747226801,151533989,mA1/imu,0.7690375607934454,0.6392030489672152,7.792203754348597e-05,0.0008283767496424094,0.0,0.0,0.0,0.0,0.0,0.0,0.0,0.0,0.0,-0.0014765541777092119,-0.0005144768761419278,0.0017639512617623608,0.0,0.0,0.0,0.0,0.0,0.0,0.0,0.0,0.0,0.015182353587698146,0.5433123924974157,9.810051575027293,0.0,0.0,0.0,0.0,0.0,0.0,0.0,0.0,0.0
2025/05/14 14:46:41.206928430,1747226801,203277967,mA1/imu,0.7690651392759655,0.6391698553806484,6.715254637526617e-05,0.0008384590965498282,0.0,0.0,0.0,0.0,0.0,0.0,0.0,0.0,0.0,0.00017897772728012174,-0.000628251949539685,0.001700324960549028,0.0,0.0,0.0,0.0,0.0,0.0,0.0,0.0,0.0,0.014340104743742126,0.029437078129285192,9.80970693961905,0.0,0.0,0.0,0.0,0.0,0.0,0.0,0.0,0.0
2025/05/14 14:46:41.257139548,1747226801,253945813,mA1/imu,0.7690919934221335,0.6391375320352393,5.724525386257472e-05,0.00084706602655475,0.0,0.0,0.0,0.0,0.0,0.0,0.0,0.0,0.0,0.0008011423865704088,-0.0004885001959549515,0.0016610155636938677,0.0,0.0,0.0,0.0,0.0,0.0,0.0,0.0,0.0,0.013877121329919476,0.07309973104606338,9.809496720946271,0.0,0.0,0.0,0.0,0.0,0.0,0.0,0.0,0.0
2025/05/14 14:46:41.305976611,1747226801,304769435,mA1/imu,0.7691179327545128,0.6391063059758971,4.845637033145804e-05,0.000856054465347707,0.0,0.0,0.0,0.0,0.0,0.0,0.0,0.0,0.0,-0.00032385245786439783,-0.0005056173965523773,0.0015987895489613156,0.0,0.0,0.0,0.0,0.0,0.0,0.0,0.0,0.0,0.01429720788573533,0.6194242575713188,9.811346634120786,0.0,0.0,0.0,0.0,0.0,0.0,0.0,0.0,0.0
2025/05/14 14:46:41.361680833,1747226801,357730473,mA1/imu,0.7691463810062052,0.6390720622337397,4.622402655069679e-05,0.000861232089638034,0.0,0.0,0.0,0.0,0.0,0.0,0.0,0.0,0.0,0.0013766440828316669,-8.346941860115216e-05,0.001861238270577798,0.0,0.0,0.0,0.0,0.0,0.0,0.0,0.0,0.0,0.014402780904651656,-0.5208939067047431,9.809205637316849,0.0,0.0,0.0,0.0,0.0,0.0,0.0,0.0,0.0
2025/05/14 14:46:41.415193849,1747226801,403680423,mA1/imu,0.7691755834017953,0.6390369099036236,4.5813931954422613e-05,0.0008646273299137638,0.0,0.0,0.0,0.0,0.0,0.0,0.0,0.0,0.0,0.0003902889539596917,-0.00012039294380840955,0.0018054378891756602,0.0,0.0,0.0,0.0,0.0,0.0,0.0,0.0,0.0,0.015598845319244742,0.036053135767629356,9.809151865802502,0.0,0.0,0.0,0.0,0.0,0.0,0.0,0.0,0.0
2025/05/14 14:46:41.464693827,1747226801,458457761,mA1/imu,0.7692073728312807,0.6389986439282769,5.2996858886312365e-05,0.0008647723141245728,0.0,0.0,0.0,0.0,0.0,0.0,0.0,0.0,0.0,-0.0014198386493095392,0.00032661623312386494,0.0020594904734503733,0.0,0.0,0.0,0.0,0.0,0.0,0.0,0.0,0.0,0.01700397993799629,0.5369827377883465,9.810752911381893,0.0,0.0,0.0,0.0,0.0,0.0,0.0,0.0,0.0
2025/05/14 14:46:41.508754272,1747226801,502790000,mA1/imu,0.769239692788029,0.638959753865542,5.0900938899194113e-05,0.0008516974576967605,0.0,0.0,0.0,0.0,0.0,0.0,0.0,0.0,0.0,-0.0003322730298553062,0.0002353818005878924,0.0019971551584874194,0.0,0.0,0.0,0.0,0.0,0.0,0.0,0.0,0.0,0.016589130619444253,0.4031253788221029,9.808372522093608,0.0,0.0,0.0,0.0,0.0,0.0,0.0,0.0,0.0
2025/05/14 14:46:41.563958243,1747226801,555678250,mA1/imu,0.7692709964926394,0.6389220712525607,5.27584300532386e-05,0.0008473712924283922,0.0,0.0,0.0,0.0,0.0,0.0,0.0,0.0,0.0,-0.000355778424010003,0.00013050788793670916,0.0019345144680776786,0.0,0.0,0.0,0.0,0.0,0.0,0.0,0.0,0.0,0.016344981731770285,0.603693282829222,9.80984511996954,0.0,0.0,0.0,0.0,0.0,0.0,0.0,0.0,0.0
2025/05/14 14:46:41.610098107,1747226801,606194625,mA1/imu,0.7693013152773335,0.638885570484219,5.190275216505544e-05,0.0008434724197978372,0.0,0.0,0.0,0.0,0.0,0.0,0.0,0.0,0.0,0.00022799011458370807,3.08492233976883e-05,0.0018740549055258292,0.0,0.0,0.0,0.0,0.0,0.0,0.0,0.0,0.0,0.015960862319124313,0.011733198637697733,9.808760865437678,0.0,0.0,0.0,0.0,0.0,0.0,0.0,0.0,0.0
2025/05/14 14:46:41.661614613,1747226801,657650595,mA1/imu,0.7693308794377042,0.6388499763403557,4.920442876413223e-05,0.0008386014905582932,0.0,0.0,0.0,0.0,0.0,0.0,0.0,0.0,0.0,0.001285096588578351,7.287312336832499e-05,0.001839645218078502,0.0,0.0,0.0,0.0,0.0,0.0,0.0,0.0,0.0,0.013184959681890025,-0.5451681726342122,9.80953219845336,0.0,0.0,0.0,0.0,0.0,0.0,0.0,0.0,0.0
2025/05/14 14:46:41.711317160,1747226801,709721600,mA1/imu,0.7693597075276536,0.6388152677247348,4.4932301370524425e-05,0.0008319470097974176,0.0,0.0,0.0,0.0,0.0,0.0,0.0,0.0,0.0,0.0006403039442428541,-9.685471829004625e-08,0.0017809577177011785,0.0,0.0,0.0,0.0,0.0,0.0,0.0,0.0,0.0,0.015837369400661674,0.03690214110677628,9.8108502420074,0.0,0.0,0.0,0.0,0.0,0.0,0.0,0.0,0.0
2025/05/14 14:46:41.753702972,1747226801,752111201,mA1/imu,0.7693875927551758,0.6387816834608009,4.3164221978858955e-05,0.0008313400211125894,0.0,0.0,0.0,0.0,0.0,0.0,0.0,0.0,0.0,-0.0008702155491793199,-6.600640507985115e-05,0.001723038606714506,0.0,0.0,0.0,0.0,0.0,0.0,0.0,0.0,0.0,0.015530561217030767,0.4640470105216883,9.810535021242023,0.0,0.0,0.0,0.0,0.0,0.0,0.0,0.0,0.0
2025/05/14 14:46:41.807225159,1747226801,802332717,mA1/imu,0.7694145773421986,0.6387491886636614,3.487886169062067e-05,0.0008251898601084696,0.0,0.0,0.0,0.0,0.0,0.0,0.0,0.0,0.0,0.0004250749499914624,-0.00011932091861866131,0.001667049835230335,0.0,0.0,0.0,0.0,0.0,0.0,0.0,0.0,0.0,0.014664584785725177,-0.28672264640742384,9.80974080028499,0.0,0.0,0.0,0.0,0.0,0.0,0.0,0.0,0.0
2025/05/14 14:46:41.856914994,1747226801,855077320,mA1/imu,0.7694409749360945,0.6387174037286896,2.4710657013983527e-05,0.00081464891713901,0.0,0.0,0.0,0.0,0.0,0.0,0.0,0.0,0.0,0.0010961687891238748,-3.3405846845830076e-05,0.0016335099515724673,0.0,0.0,0.0,0.0,0.0,0.0,0.0,0.0,0.0,0.01442656731084828,-0.11027996207534316,9.810206118843427,0.0,0.0,0.0,0.0,0.0,0.0,0.0,0.0,0.0
2025/05/14 14:46:41.907195364,1747226801,906398406,mA1/imu,0.7694665502132735,0.638686599707614,1.872726982286632e-05,0.000809386248577173,0.0,0.0,0.0,0.0,0.0,0.0,0.0,0.0,0.0,0.0009423369792401521,-6.771450070135284e-05,0.001580992942055453,0.0,0.0,0.0,0.0,0.0,0.0,0.0,0.0,0.0,0.014721704163473726,0.053129437035115724,9.809689625812377,0.0,0.0,0.0,0.0,0.0,0.0,0.0,0.0,0.0
2025/05/14 14:46:41.959956365,1747226801,957278656,mA1/imu,0.7694983386968007,0.6386483203665148,2.5718537886125926e-05,0.0007930790945304116,0.0,0.0,0.0,0.0,0.0,0.0,0.0,0.0,0.0,0.00020742689891698187,0.0007180895770310298,0.002051178686094729,0.0,0.0,0.0,0.0,0.0,0.0,0.0,0.0,0.0,0.015871678909808583,0.004072224948314933,9.809832450975135,0.0,0.0,0.0,0.0,0.0,0.0,0.0,0.0,0.0
2025/05/14 14:46:42.10616856,1747226802,7815599,mA1/imu,0.7695306703241326,0.6386093779821441,3.585511796338982e-05,0.0007800629209907747,0.0,0.0,0.0,0.0,0.0,0.0,0.0,0.0,0.0,-0.0001518647895527066,0.0005952001028962231,0.0020073417065614627,0.0,0.0,0.0,0.0,0.0,0.0,0.0,0.0,0.0,0.01544518855160003,-0.10662157319344602,9.809941611773864,0.0,0.0,0.0,0.0,0.0,0.0,0.0,0.0,0.0
2025/05/14 14:46:42.54534627,1747226802,52323285,mA1/imu,0.7695623136164954,0.638571256871073,4.395278992364444e-05,0.0007703424414639015,0.0,0.0,0.0,0.0,0.0,0.0,0.0,0.0,0.0,4.9409909525042474e-05,0.000421804509169817,0.0019653667694343895,0.0,0.0,0.0,0.0,0.0,0.0,0.0,0.0,0.0,0.016209108581198655,-0.6310149359233486,9.810129921453866,0.0,0.0,0.0,0.0,0.0,0.0,0.0,0.0,0.0
2025/05/14 14:46:42.106663926,1747226802,102765256,mA1/imu,0.7695933145274423,0.6385339171224499,3.8824908541399306e-05,0.0007519385292882767,0.0,0.0,0.0,0.0,0.0,0.0,0.0,0.0,0.0,0.0012593146792176043,0.0002392898487881435,0.0019255370198677194,0.0,0.0,0.0,0.0,0.0,0.0,0.0,0.0,0.0,0.015492094798858692,-0.5419899436781049,9.810491847680508,0.0,0.0,0.0,0.0,0.0,0.0,0.0,0.0,0.0
2025/05/14 14:46:42.154705829,1747226802,153940910,mA1/imu,0.7696260982742383,0.638494411642833,4.452889729844909e-05,0.0007437561577253332,0.0,0.0,0.0,0.0,0.0,0.0,0.0,0.0,0.0,-0.00038418922203583086,0.0003506273472703088,0.00207209473744989,0.0,0.0,0.0,0.0,0.0,0.0,0.0,0.0,0.0,0.01639332319243098,0.6057623286957339,9.810760620930951,0.0,0.0,0.0,0.0,0.0,0.0,0.0,0.0,0.0
2025/05/14 14:46:42.205805091,1747226802,203598720,mA1/imu,0.769658640571058,0.6384551879315198,4.874270727618039e-05,0.0007400147210624333,0.0,0.0,0.0,0.0,0.0,0.0,0.0,0.0,0.0,-0.0009072049652357605,0.00014976864212504397,0.0019882065398873234,0.0,0.0,0.0,0.0,0.0,0.0,0.0,0.0,0.0,0.01521267374454763,0.5105076917810554,9.809611227882705,0.0,0.0,0.0,0.0,0.0,0.0,0.0,0.0,0.0
2025/05/14 14:46:42.258412572,1747226802,254651946,mA1/imu,0.7696891040120768,0.6384184670454521,4.593922828026979e-05,0.0007361997071832164,0.0,0.0,0.0,0.0,0.0,0.0,0.0,0.0,0.0,0.0002467204078978557,-7.132290612947405e-05,0.0018862395373071394,0.0,0.0,0.0,0.0,0.0,0.0,0.0,0.0,0.0,0.015020429127784774,-0.4782109626430097,9.810126894143389,0.0,0.0,0.0,0.0,0.0,0.0,0.0,0.0,0.0
2025/05/14 14:46:42.306059824,1747226802,304669079,mA1/imu,0.769718837794877,0.6383826147550319,4.20819248613962e-05,0.0007390205299941772,0.0,0.0,0.0,0.0,0.0,0.0,0.0,0.0,0.0,0.0007026987361883535,-0.00027532610161388885,0.0018477526795574121,0.0,0.0,0.0,0.0,0.0,0.0,0.0,0.0,0.0,0.01520078333591623,-0.12133336493863901,9.810329772942094,0.0,0.0,0.0,0.0,0.0,0.0,0.0,0.0,0.0
2025/05/14 14:46:42.356557332,1747226802,355767034,mA1/imu,0.7697511779044185,0.6383436141015674,4.4125257496393296e-05,0.0007433057722036186,0.0,0.0,0.0,0.0,0.0,0.0,0.0,0.0,0.0,-0.0005433016469782545,8.500481429707565e-06,0.00210104086939086,0.0,0.0,0.0,0.0,0.0,0.0,0.0,0.0,0.0,0.015854977236216348,-0.013575102933203081,9.810133373775454,0.0,0.0,0.0,0.0,0.0,0.0,0.0,0.0,0.0
2025/05/14 14:46:42.409461871,1747226802,407446685,mA1/imu,0.7697844418661545,0.6383034960035725,4.3789154354957334e-05,0.0007470829542859157,0.0,0.0,0.0,0.0,0.0,0.0,0.0,0.0,0.0,-1.3827573239637588e-05,-0.00018086864922082737,0.0020738392299393554,0.0,0.0,0.0,0.0,0.0,0.0,0.0,0.0,0.0,0.01503064145181285,-0.31495682230227345,9.80913024650445,0.0,0.0,0.0,0.0,0.0,0.0,0.0,0.0,0.0
2025/05/14 14:46:42.453581005,1747226802,451042261,mA1/imu,0.7698161665971944,0.6382652278777118,4.017436940596033e-05,0.0007529368057861994,0.0,0.0,0.0,0.0,0.0,0.0,0.0,0.0,0.0,0.0004319440751063655,-0.0003059038191874413,0.0019434423555815723,0.0,0.0,0.0,0.0,0.0,0.0,0.0,0.0,0.0,0.013855541515258907,-0.06262386342342138,9.809006530038527,0.0,0.0,0.0,0.0,0.0,0.0,0.0,0.0,0.0
2025/05/14 14:46:42.503291557,1747226802,500704769,mA1/imu,0.7698467912568807,0.6382282757045674,3.776332381019183e-05,0.0007646284004343902,0.0,0.0,0.0,0.0,0.0,0.0,0.0,0.0,0.0,-2.666560267226644e-05,-0.0004162374107540192,0.001904884396317633,0.0,0.0,0.0,0.0,0.0,0.0,0.0,0.0,0.0,0.013417783350172463,0.03270474631531298,9.809838389738589,0.0,0.0,0.0,0.0,0.0,0.0,0.0,0.0,0.0
2025/05/14 14:46:42.554239437,1747226802,553478035,mA1/imu,0.7698862360235467,0.6381806895869476,5.3604019810047764e-05,0.000766907056121855,0.0,0.0,0.0,0.0,0.0,0.0,0.0,0.0,0.0,-0.0004181916406293411,0.000768068324635751,0.002723028799043607,0.0,0.0,0.0,0.0,0.0,0.0,0.0,0.0,0.0,0.012583722772648258,0.006578531207420427,9.809187586176574,0.0,0.0,0.0,0.0,0.0,0.0,0.0,0.0,0.0
2025/05/14 14:46:42.605368929,1747226802,603200326,mA1/imu,0.7699298613022533,0.6381280610740564,7.25439573295133e-05,0.0007622875654871642,0.0,0.0,0.0,0.0,0.0,0.0,0.0,0.0,0.0,0.00011527723509558757,0.0006230343509231298,0.0027311516709512696,0.0,0.0,0.0,0.0,0.0,0.0,0.0,0.0,0.0,0.01494312422443523,-0.5793887130665203,9.809276118677323,0.0,0.0,0.0,0.0,0.0,0.0,0.0,0.0,0.0
2025/05/14 14:46:42.655627780,1747226802,654759881,mA1/imu,0.7699633273797801,0.6380876714353355,6.69138463983089e-05,0.0007704382038447933,0.0,0.0,0.0,0.0,0.0,0.0,0.0,0.0,0.0,0.00010947535143679608,-0.0008429631447852894,0.0018163634823871616,0.0,0.0,0.0,0.0,0.0,0.0,0.0,0.0,0.0,0.011178933331302411,0.05562099786224866,9.81017664359624,0.0,0.0,0.0,0.0,0.0,0.0,0.0,0.0,0.0
2025/05/14 14:46:42.705352483,1747226802,704466400,mA1/imu,0.769991904336602,0.6380531569366902,5.957589183663793e-05,0.0007953803677912523,0.0,0.0,0.0,0.0,0.0,0.0,0.0,0.0,0.0,-0.0007601724237355098,-0.000864348288486048,0.0017743847528643387,0.0,0.0,0.0,0.0,0.0,0.0,0.0,0.0,0.0,0.01122826730396221,-0.004835486238766215,9.809297564440014,0.0,0.0,0.0,0.0,0.0,0.0,0.0,0.0,0.0
2025/05/14 14:46:42.758462165,1747226802,757595147,mA1/imu,0.7700197274671692,0.6380195492832373,5.1556464032802925e-05,0.0008193813106540502,0.0,0.0,0.0,0.0,0.0,0.0,0.0,0.0,0.0,-7.807529499268277e-05,-0.0008554141936497721,0.0017248249116534056,0.0,0.0,0.0,0.0,0.0,0.0,0.0,0.0,0.0,0.011898987733482589,-0.5962227585922542,9.808948341790957,0.0,0.0,0.0,0.0,0.0,0.0,0.0,0.0,0.0
2025/05/14 14:46:42.811443941,1747226802,809629521,mA1/imu,0.7700474641241005,0.6379860488444963,4.2944911064051784e-05,0.000838231211970298,0.0,0.0,0.0,0.0,0.0,0.0,0.0,0.0,0.0,-0.0017052185295515457,-0.0005476989475984277,0.0018256734601711708,0.0,0.0,0.0,0.0,0.0,0.0,0.0,0.0,0.0,-0.00688816197298644,-0.08283158487633922,9.811532391371696,0.0,0.0,0.0,0.0,0.0,0.0,0.0,0.0,0.0
2025/05/14 14:46:42.855511212,1747226802,850637071,mA1/imu,0.7700787121369779,0.6379483292177172,3.3749778244929294e-05,0.0008397754040608311,0.0,0.0,0.0,0.0,0.0,0.0,0.0,0.0,0.0,0.00043882628814206106,-0.0002736579077479528,0.0019606245400856544,0.0,0.0,0.0,0.0,0.0,0.0,0.0,0.0,0.0,0.012498056805432926,-0.4120735743092319,9.810248073641601,0.0,0.0,0.0,0.0,0.0,0.0,0.0,0.0,0.0
2025/05/14 14:46:42.902036555,1747226802,900838825,mA1/imu,0.7701096118717112,0.6379110211546104,3.0134010873974213e-05,0.0008449166976557526,0.0,0.0,0.0,0.0,0.0,0.0,0.0,0.0,0.0,-0.0004697611423261972,-0.00021903512909179635,0.0019223292484690751,0.0,0.0,0.0,0.0,0.0,0.0,0.0,0.0,0.0,0.013045659615551644,0.6160180982343412,9.811066156475837,0.0,0.0,0.0,0.0,0.0,0.0,0.0,0.0,0.0
2025/05/14 14:46:42.957614876,1747226802,953976271,mA1/imu,0.7701396155648974,0.6378747959352877,2.685015652293635e-05,0.000846479259159614,0.0,0.0,0.0,0.0,0.0,0.0,0.0,0.0,0.0,0.0008386920974216969,-6.109602996749173e-05,0.0018449588940072034,0.0,0.0,0.0,0.0,0.0,0.0,0.0,0.0,0.0,0.008045334641855653,0.07504677102541998,9.810121954279374,0.0,0.0,0.0,0.0,0.0,0.0,0.0,0.0,0.0
2025/05/14 14:46:43.4886953,1747226803,4085627,mA1/imu,0.770168944269992,0.6378393860886878,2.8392983040274314e-05,0.000845002893487984,0.0,0.0,0.0,0.0,0.0,0.0,0.0,0.0,0.0,0.00041598474937620415,0.00014703163298689063,0.0018315779911171044,0.0,0.0,0.0,0.0,0.0,0.0,0.0,0.0,0.0,0.011044161395774344,0.03729560168960511,9.812094841159155,0.0,0.0,0.0,0.0,0.0,0.0,0.0,0.0,0.0
2025/05/14 14:46:43.59625232,1747226803,56742223,mA1/imu,0.7701989689971798,0.637803138194942,3.471563975983934e-05,0.0008389631633130278,0.0,0.0,0.0,0.0,0.0,0.0,0.0,0.0,0.0,8.127720555133396e-05,0.0005235571272796643,0.0019527718439843952,0.0,0.0,0.0,0.0,0.0,0.0,0.0,0.0,0.0,0.008116933489381159,0.009324572880965618,9.81165537437389,0.0,0.0,0.0,0.0,0.0,0.0,0.0,0.0,0.0
2025/05/14 14:46:43.111367909,1747226803,106730958,mA1/imu,0.7702301154785269,0.6377655358948009,4.631559170366898e-05,0.0008296322187419552,0.0,0.0,0.0,0.0,0.0,0.0,0.0,0.0,0.0,-0.0005879284042746171,0.0006250257624436057,0.0019451184736601153,0.0,0.0,0.0,0.0,0.0,0.0,0.0,0.0,0.0,0.011312479178115974,-0.04238042399783002,9.811877215169664,0.0,0.0,0.0,0.0,0.0,0.0,0.0,0.0,0.0
2025/05/14 14:46:43.162149323,1747226803,158343842,mA1/imu,0.7702601101795589,0.6377293328173802,5.005081078646753e-05,0.0008113109079323892,0.0,0.0,0.0,0.0,0.0,0.0,0.0,0.0,0.0,-0.0007323852707609442,0.0005560020169131329,0.001835507308066609,0.0,0.0,0.0,0.0,0.0,0.0,0.0,0.0,0.0,0.016105053528494888,-0.05970564122240715,9.810692699697213,0.0,0.0,0.0,0.0,0.0,0.0,0.0,0.0,0.0
2025/05/14 14:46:43.208221892,1747226803,202208124,mA1/imu,0.7702889016040576,0.6376945784279036,5.276866748672547e-05,0.000793677982974932,0.0,0.0,0.0,0.0,0.0,0.0,0.0,0.0,0.0,0.00023482650426910818,0.0005374000256261378,0.001794538647957801,0.0,0.0,0.0,0.0,0.0,0.0,0.0,0.0,0.0,0.01149277351233675,0.006037187813670526,9.809690543140398,0.0,0.0,0.0,0.0,0.0,0.0,0.0,0.0,0.0
2025/05/14 14:46:43.254386448,1747226803,253307486,mA1/imu,0.7703160783564221,0.6376617708906657,5.5583511051032926e-05,0.0007760674172762906,0.0,0.0,0.0,0.0,0.0,0.0,0.0,0.0,0.0,0.0005695421837033017,0.0005377960913899581,0.0016731418507696081,0.0,0.0,0.0,0.0,0.0,0.0,0.0,0.0,0.0,0.010742546477577504,0.029807993839451673,9.81160930067118,0.0,0.0,0.0,0.0,0.0,0.0,0.0,0.0,0.0
2025/05/14 14:46:43.304650780,1747226803,303445717,mA1/imu,0.7703423613656958,0.6376300353220202,6.093966232894682e-05,0.0007619889242753183,0.0,0.0,0.0,0.0,0.0,0.0,0.0,0.0,0.0,0.0005104454474086892,0.0005179667496892309,0.0016315767297792304,0.0,0.0,0.0,0.0,0.0,0.0,0.0,0.0,0.0,0.010471593719898397,-0.2686934290227967,9.810008390149507,0.0,0.0,0.0,0.0,0.0,0.0,0.0,0.0,0.0
2025/05/14 14:46:43.356413778,1747226803,354628338,mA1/imu,0.7703691307461107,0.6375977096789789,6.4036148308645e-05,0.0007475994742416759,0.0,0.0,0.0,0.0,0.0,0.0,0.0,0.0,0.0,0.00022985104452268073,0.0004076225074228087,0.0017154161573723736,0.0,0.0,0.0,0.0,0.0,0.0,0.0,0.0,0.0,0.012229472391071212,0.007403842647663392,9.809487723090138,0.0,0.0,0.0,0.0,0.0,0.0,0.0,0.0,0.0
2025/05/14 14:46:43.406620545,1747226803,404581527,mA1/imu,0.7703971645086091,0.6375638544249371,6.243537070344522e-05,0.0007324955544110857,0.0,0.0,0.0,0.0,0.0,0.0,0.0,0.0,0.0,0.0006316796962643088,0.0002848736554064016,0.0017663614761262792,0.0,0.0,0.0,0.0,0.0,0.0,0.0,0.0,0.0,0.01279625200083543,0.03419953572265882,9.809912055073589,0.0,0.0,0.0,0.0,0.0,0.0,0.0,0.0,0.0
2025/05/14 14:46:43.459087465,1747226803,457228342,mA1/imu,0.7704217766016062,0.6375341145898431,6.133702707872773e-05,0.0007315120906622671,0.0,0.0,0.0,0.0,0.0,0.0,0.0,0.0,0.0,-0.00026393913728611296,-0.00017293969549738412,0.0014334435190775647,0.0,0.0,0.0,0.0,0.0,0.0,0.0,0.0,0.0,0.014838567889706656,-0.045917182019134424,9.809980939803959,0.0,0.0,0.0,0.0,0.0,0.0,0.0,0.0,0.0
2025/05/14 14:46:43.508946699,1747226803,507923773,mA1/imu,0.770443782077351,0.6375075271386335,4.892289610161247e-05,0.0007273970594786407,0.0,0.0,0.0,0.0,0.0,0.0,0.0,0.0,0.0,-0.0006107934604987347,-0.00033355050002888516,0.0013399119422264336,0.0,0.0,0.0,0.0,0.0,0.0,0.0,0.0,0.0,0.01488766516050526,0.587972753747769,9.81069415659121,0.0,0.0,0.0,0.0,0.0,0.0,0.0,0.0,0.0
2025/05/14 14:46:43.554491930,1747226803,552873789,mA1/imu,0.7704648134301592,0.6374821017304428,4.2064357031150164e-05,0.0007344861857633874,0.0,0.0,0.0,0.0,0.0,0.0,0.0,0.0,0.0,0.000564533006073835,-0.00042047774083036065,0.0013103775491668747,0.0,0.0,0.0,0.0,0.0,0.0,0.0,0.0,0.0,0.011309031376524408,-0.5861230839291156,9.808756525151566,0.0,0.0,0.0,0.0,0.0,0.0,0.0,0.0,0.0
2025/05/14 14:46:43.615206205,1747226803,603742719,mA1/imu,0.7704854916515722,0.6374571015931846,3.3590592928190496e-05,0.0007413868921401186,0.0,0.0,0.0,0.0,0.0,0.0,0.0,0.0,0.0,0.00044270576403414714,-0.0004634100209916017,0.0012878571630745952,0.0,0.0,0.0,0.0,0.0,0.0,0.0,0.0,0.0,0.012522155848065696,-0.5674620170081219,9.808940098756127,0.0,0.0,0.0,0.0,0.0,0.0,0.0,0.0,0.0
2025/05/14 14:46:43.659132662,1747226803,655272704,mA1/imu,0.7705069316476516,0.6374311836413411,2.084377602730534e-05,0.0007442916478465967,0.0,0.0,0.0,0.0,0.0,0.0,0.0,0.0,0.0,-0.0009502054927522826,-0.00047873880251499465,0.0013722039553650679,0.0,0.0,0.0,0.0,0.0,0.0,0.0,0.0,0.0,0.013198600178242854,0.5776397163871544,9.80974152507466,0.0,0.0,0.0,0.0,0.0,0.0,0.0,0.0,0.0
2025/05/14 14:46:43.710006468,1747226803,707747633,mA1/imu,0.770528605652498,0.6374049695039755,1.3904966643791346e-05,0.0007566567947293226,0.0,0.0,0.0,0.0,0.0,0.0,0.0,0.0,0.0,-0.0007318352594399597,-0.0005439023481515336,0.001352151818631013,0.0,0.0,0.0,0.0,0.0,0.0,0.0,0.0,0.0,0.012829905378577103,0.6006830870556571,9.810222530296508,0.0,0.0,0.0,0.0,0.0,0.0,0.0,0.0,0.0
2025/05/14 14:46:43.761863833,1747226803,760173305,mA1/imu,0.7705499554506222,0.6373791427487625,7.812648255802715e-06,0.000771027145647505,0.0,0.0,0.0,0.0,0.0,0.0,0.0,0.0,0.0,-0.0004657728666495252,-0.0005524408759379732,0.001332149547116723,0.0,0.0,0.0,0.0,0.0,0.0,0.0,0.0,0.0,0.01285805654841007,-0.12209538414630357,9.808638364582958,0.0,0.0,0.0,0.0,0.0,0.0,0.0,0.0,0.0
2025/05/14 14:46:43.800922679,1747226803,799911856,mA1/imu,0.7705710537995474,0.6373536218362188,-1.3726392798481062e-06,0.0007821615084722522,0.0,0.0,0.0,0.0,0.0,0.0,0.0,0.0,0.0,0.00016324381969509873,-0.0006228677085727627,0.0013287016304142525,0.0,0.0,0.0,0.0,0.0,0.0,0.0,0.0,0.0,0.018884507388749645,0.04300590331917484,9.809414381873157,0.0,0.0,0.0,0.0,0.0,0.0,0.0,0.0,0.0
2025/05/14 14:46:43.851877382,1747226803,850920079,mA1/imu,0.7705924337038812,0.6373277501846651,-8.84874861605369e-06,0.0007999278605159661,0.0,0.0,0.0,0.0,0.0,0.0,0.0,0.0,0.0,-0.00028204275266068853,-0.000730088553105337,0.0013554639604427612,0.0,0.0,0.0,0.0,0.0,0.0,0.0,0.0,0.0,0.018166834652493025,0.2284990582815991,9.810550829209971,0.0,0.0,0.0,0.0,0.0,0.0,0.0,0.0,0.0
2025/05/14 14:46:43.902536561,1747226803,901258892,mA1/imu,0.7706137610368767,0.6373019329615377,-1.6466135956996178e-05,0.0008229659490818564,0.0,0.0,0.0,0.0,0.0,0.0,0.0,0.0,0.0,-0.0005176609977770901,-0.0008754428518197262,0.0013370081352577156,0.0,0.0,0.0,0.0,0.0,0.0,0.0,0.0,0.0,0.019609032200178702,-0.18198646107716063,9.809463899527252,0.0,0.0,0.0,0.0,0.0,0.0,0.0,0.0,0.0
2025/05/14 14:46:43.954530335,1747226803,952244745,mA1/imu,0.7706354852388565,0.6372756324812007,-2.859888702346668e-05,0.0008463559897736387,0.0,0.0,0.0,0.0,0.0,0.0,0.0,0.0,0.0,-0.001410735008740098,-0.0010333431206905929,0.0013903159835036436,0.0,0.0,0.0,0.0,0.0,0.0,0.0,0.0,0.0,0.02179044138643812,0.5756358025127684,9.809083467027078,0.0,0.0,0.0,0.0,0.0,0.0,0.0,0.0,0.0
2025/05/14 14:46:44.3249484,1747226804,2507692,mA1/imu,0.7706573912523366,0.6372491127162804,-4.718678609267246e-05,0.0008668470819899593,0.0,0.0,0.0,0.0,0.0,0.0,0.0,0.0,0.0,-0.0009056267978787059,-0.0011195668120557365,0.0013392149317577916,0.0,0.0,0.0,0.0,0.0,0.0,0.0,0.0,0.0,0.022246225749661615,0.6094682492828736,9.811624570519646,0.0,0.0,0.0,0.0,0.0,0.0,0.0,0.0,0.0
2025/05/14 14:46:44.54217406,1747226804,53459835,mA1/imu,0.7706794331948861,0.6372224094310982,-5.666304877455225e-05,0.0008994212217717653,0.0,0.0,0.0,0.0,0.0,0.0,0.0,0.0,0.0,-0.0008683905406839477,-0.0011165796367655282,0.00139667995719846,0.0,0.0,0.0,0.0,0.0,0.0,0.0,0.0,0.0,0.01932176497497806,0.4291442621701511,9.810137737769882,0.0,0.0,0.0,0.0,0.0,0.0,0.0,0.0,0.0
2025/05/14 14:46:44.106525145,1747226804,103378433,mA1/imu,0.7707016481940251,0.6371954952359955,-6.586100462178582e-05,0.0009305827720709706,0.0,0.0,0.0,0.0,0.0,0.0,0.0,0.0,0.0,0.000608064344741219,-0.001058376018140486,0.001395235739754013,0.0,0.0,0.0,0.0,0.0,0.0,0.0,0.0,0.0,0.01987780969096936,-0.5430348774693479,9.809704166034113,0.0,0.0,0.0,0.0,0.0,0.0,0.0,0.0,0.0
2025/05/14 14:46:44.157694390,1747226804,156506409,mA1/imu,0.7707304945889062,0.6371605756817866,-6.264358111082355e-05,0.0009495174435976749,0.0,0.0,0.0,0.0,0.0,0.0,0.0,0.0,0.0,-0.00011521696233957884,-0.0002722804153300324,0.0018896393121075388,0.0,0.0,0.0,0.0,0.0,0.0,0.0,0.0,0.0,0.02181943661939427,-0.5994712556921027,9.811514773163779,0.0,0.0,0.0,0.0,0.0,0.0,0.0,0.0,0.0
2025/05/14 14:46:44.210927128,1747226804,209477967,mA1/imu,0.7707607462702782,0.6371239803713789,-7.097873864069209e-05,0.0009490029679137383,0.0,0.0,0.0,0.0,0.0,0.0,0.0,0.0,0.0,-0.0007264731822510398,-0.00020828597129100824,0.0019034272687943582,0.0,0.0,0.0,0.0,0.0,0.0,0.0,0.0,0.0,0.022123973478665744,0.6170472255117999,9.809530816125354,0.0,0.0,0.0,0.0,0.0,0.0,0.0,0.0,0.0
2025/05/14 14:46:44.253591915,1747226804,250450595,mA1/imu,0.7707910842161587,0.6370872452666144,-5.950980828551297e-05,0.0009710149626210092,0.0,0.0,0.0,0.0,0.0,0.0,0.0,0.0,0.0,-0.00029027136581887626,-0.00020944729581555464,0.0019069739452727212,0.0,0.0,0.0,0.0,0.0,0.0,0.0,0.0,0.0,0.022231286295189622,0.016873279119456967,9.810387452408639,0.0,0.0,0.0,0.0,0.0,0.0,0.0,0.0,0.0
2025/05/14 14:46:44.302303592,1747226804,301508413,mA1/imu,0.7708214479490948,0.63705049329138,-5.7459139199083026e-05,0.0009803455094227905,0.0,0.0,0.0,0.0,0.0,0.0,0.0,0.0,0.0,-0.0003569564572159506,-0.0001467839198419839,0.0019079623273760094,0.0,0.0,0.0,0.0,0.0,0.0,0.0,0.0,0.0,0.021051647445678168,0.007736868514215484,9.810894110862133,0.0,0.0,0.0,0.0,0.0,0.0,0.0,0.0,0.0
2025/05/14 14:46:44.355816771,1747226804,353370445,mA1/imu,0.7708512979888688,0.6370143565905129,-5.271227606918819e-05,0.0009915179610398275,0.0,0.0,0.0,0.0,0.0,0.0,0.0,0.0,0.0,-0.0004459608558352057,-0.00013523691998766616,0.0018524251891487973,0.0,0.0,0.0,0.0,0.0,0.0,0.0,0.0,0.0,0.02363248422883714,-0.003121640856778688,9.810821120776613,0.0,0.0,0.0,0.0,0.0,0.0,0.0,0.0,0.0
2025/05/14 14:46:44.405637888,1747226804,403193231,mA1/imu,0.770880350093756,0.6369791876647803,-5.0147968069003763e-05,0.0009989026108582959,0.0,0.0,0.0,0.0,0.0,0.0,0.0,0.0,0.0,-0.0008472049721629762,-7.035661604987045e-05,0.00181776105354821,0.0,0.0,0.0,0.0,0.0,0.0,0.0,0.0,0.0,0.02089592885850723,0.3362043408178042,9.811031160281647,0.0,0.0,0.0,0.0,0.0,0.0,0.0,0.0,0.0
2025/05/14 14:46:44.458509470,1747226804,456505791,mA1/imu,0.7709092792798404,0.6369441650251814,-4.43378690277671e-05,0.0010058800946281515,0.0,0.0,0.0,0.0,0.0,0.0,0.0,0.0,0.0,-0.002192103969547761,5.424254347388697e-05,0.0018169188121211035,0.0,0.0,0.0,0.0,0.0,0.0,0.0,0.0,0.0,0.021320443799975893,0.49067394151535054,9.8119509069357,0.0,0.0,0.0,0.0,0.0,0.0,0.0,0.0,0.0
2025/05/14 14:46:44.507566381,1747226804,506597001,mA1/imu,0.7709379934771576,0.6369094147672186,-4.3169070164895994e-05,0.0010028612687629493,0.0,0.0,0.0,0.0,0.0,0.0,0.0,0.0,0.0,-0.0004924146245927569,0.00014142214846688697,0.0017712582152796916,0.0,0.0,0.0,0.0,0.0,0.0,0.0,0.0,0.0,0.02386833637470419,-0.025940003780715176,9.80890548749691,0.0,0.0,0.0,0.0,0.0,0.0,0.0,0.0,0.0
2025/05/14 14:46:44.563689463,1747226804,558507627,mA1/imu,0.7709658448694539,0.6368757092755772,-4.047180019242289e-05,0.0009976680274681596,0.0,0.0,0.0,0.0,0.0,0.0,0.0,0.0,0.0,7.361247751853609e-05,0.00032187485522911576,0.001768825406721134,0.0,0.0,0.0,0.0,0.0,0.0,0.0,0.0,0.0,0.015090331746454827,0.00587306495844101,9.809574745670478,0.0,0.0,0.0,0.0,0.0,0.0,0.0,0.0,0.0
2025/05/14 14:46:44.610559794,1747226804,609087233,mA1/imu,0.7709941061388453,0.636841511745802,-3.3992948304833526e-05,0.0009879579768921063,0.0,0.0,0.0,0.0,0.0,0.0,0.0,0.0,0.0,0.0009150857819734754,0.0005076109923885761,0.001750917558313189,0.0,0.0,0.0,0.0,0.0,0.0,0.0,0.0,0.0,0.02003620013660841,-0.06945867200624904,9.809925763618518,0.0,0.0,0.0,0.0,0.0,0.0,0.0,0.0,0.0
2025/05/14 14:46:44.653998780,1747226804,651342526,mA1/imu,0.771021736088736,0.6368080762129501,-2.1318378668389113e-05,0.0009778006952626465,0.0,0.0,0.0,0.0,0.0,0.0,0.0,0.0,0.0,-0.0007063191839194505,0.0007872974178214879,0.0017612002155338005,0.0,0.0,0.0,0.0,0.0,0.0,0.0,0.0,0.0,0.011686144493644192,0.5711063909343608,9.809646204294491,0.0,0.0,0.0,0.0,0.0,0.0,0.0,0.0,0.0
2025/05/14 14:46:44.707610117,1747226804,706685882,mA1/imu,0.771050801817653,0.6367729173417569,-7.662520959365242e-06,0.0009553521382988199,0.0,0.0,0.0,0.0,0.0,0.0,0.0,0.0,0.0,-0.00020947457493663676,0.0011442956042628234,0.0018673476166636816,0.0,0.0,0.0,0.0,0.0,0.0,0.0,0.0,0.0,0.009983113587853223,0.6031389098936125,9.809656987138437,0.0,0.0,0.0,0.0,0.0,0.0,0.0,0.0,0.0
2025/05/14 14:46:44.760827802,1747226804,758390883,mA1/imu,0.7710795093067264,0.636738184529715,1.2882824998424532e-05,0.0009351594161195853,0.0,0.0,0.0,0.0,0.0,0.0,0.0,0.0,0.0,0.00031553409898734964,0.0011590542027016574,0.001756156056753997,0.0,0.0,0.0,0.0,0.0,0.0,0.0,0.0,0.0,0.01828717927482807,0.6365707737510944,9.810063862893498,0.0,0.0,0.0,0.0,0.0,0.0,0.0,0.0,0.0
2025/05/14 14:46:44.812616177,1747226804,809351738,mA1/imu,0.7711076566736864,0.6367041260126807,3.806375728312972e-05,0.0009144882694860457,0.0,0.0,0.0,0.0,0.0,0.0,0.0,0.0,0.0,-0.00012296676429796892,0.0014382980442571474,0.001803058920349889,0.0,0.0,0.0,0.0,0.0,0.0,0.0,0.0,0.0,0.007041465487189452,0.04631829358239398,9.809447135672675,0.0,0.0,0.0,0.0,0.0,0.0,0.0,0.0,0.0
2025/05/14 14:46:44.855023245,1747226804,853525898,mA1/imu,0.771133570566831,0.6366727690220133,6.387122431408858e-05,0.0008930012088283234,0.0,0.0,0.0,0.0,0.0,0.0,0.0,0.0,0.0,-0.0008040064878264262,0.0014135369232527787,0.001607396450761561,0.0,0.0,0.0,0.0,0.0,0.0,0.0,0.0,0.0,0.006952416451140961,-0.07350217328658795,9.809244066747546,0.0,0.0,0.0,0.0,0.0,0.0,0.0,0.0,0.0
2025/05/14 14:46:44.905299845,1747226804,903486577,mA1/imu,0.7711594085972505,0.6366415080126658,9.024120627569701e-05,0.0008652536171832028,0.0,0.0,0.0,0.0,0.0,0.0,0.0,0.0,0.0,-0.0005623487236171293,0.0015292790011121498,0.0015897152675352312,0.0,0.0,0.0,0.0,0.0,0.0,0.0,0.0,0.0,0.016021171901184725,-0.05587333284094266,9.811122422928483,0.0,0.0,0.0,0.0,0.0,0.0,0.0,0.0,0.0
2025/05/14 14:46:44.957236627,1747226804,955557252,mA1/imu,0.7711841699644354,0.6366115545493344,0.00011236680689500218,0.0008318559043785491,0.0,0.0,0.0,0.0,0.0,0.0,0.0,0.0,0.0,-0.0009468882645599209,0.0015972510992780034,0.0015697545408847851,0.0,0.0,0.0,0.0,0.0,0.0,0.0,0.0,0.0,0.005885423092170619,0.5457056275420813,9.810300950945434,0.0,0.0,0.0,0.0,0.0,0.0,0.0,0.0,0.0
2025/05/14 14:46:45.6154512,1747226805,4709623,mA1/imu,0.7712093703261378,0.6365810579461268,0.0001412584880233561,0.000802391046538654,0.0,0.0,0.0,0.0,0.0,0.0,0.0,0.0,0.0,-2.0207458772036228e-05,0.0016469371875178422,0.0015824989637570775,0.0,0.0,0.0,0.0,0.0,0.0,0.0,0.0,0.0,0.007891811571731099,-0.16977819458895754,9.808778799159416,0.0,0.0,0.0,0.0,0.0,0.0,0.0,0.0,0.0
2025/05/14 14:46:45.56539543,1747226805,55641420,mA1/imu,0.7712337397060756,0.636551570163721,0.00016710088306407482,0.0007676837743939644,0.0,0.0,0.0,0.0,0.0,0.0,0.0,0.0,0.0,0.0003308386430463886,0.0016886094923765768,0.0015064776626917947,0.0,0.0,0.0,0.0,0.0,0.0,0.0,0.0,0.0,0.007827798133885814,0.009029764177241217,9.811055209508414,0.0,0.0,0.0,0.0,0.0,0.0,0.0,0.0,0.0
2025/05/14 14:46:45.109511748,1747226805,108040321,mA1/imu,0.7712575624454856,0.6365227337199951,0.0001947022302020415,0.0007375088565921411,0.0,0.0,0.0,0.0,0.0,0.0,0.0,0.0,0.0,-7.988295439773808e-05,0.001564971786124064,0.0014918299160214248,0.0,0.0,0.0,0.0,0.0,0.0,0.0,0.0,0.0,0.007554555562872745,0.6087268659763907,9.811512744720963,0.0,0.0,0.0,0.0,0.0,0.0,0.0,0.0,0.0
2025/05/14 14:46:45.161199501,1747226805,159272785,mA1/imu,0.7712805014486454,0.636494958506946,0.0002190285951544464,0.0007126758323205229,0.0,0.0,0.0,0.0,0.0,0.0,0.0,0.0,0.0,0.0016167209615071609,0.0012991796605222763,0.0014409674893527294,0.0,0.0,0.0,0.0,0.0,0.0,0.0,0.0,0.0,0.0026859408421599403,-0.5286204186626614,9.809854248443665,0.0,0.0,0.0,0.0,0.0,0.0,0.0,0.0,0.0
2025/05/14 14:46:45.211238994,1747226805,208734013,mA1/imu,0.7713035144809888,0.6364670841759665,0.00024178816454843949,0.0006934322618198515,0.0,0.0,0.0,0.0,0.0,0.0,0.0,0.0,0.0,-0.0004965496822319994,0.0010965969157480512,0.0014405604213150807,0.0,0.0,0.0,0.0,0.0,0.0,0.0,0.0,0.0,0.006326048451013902,0.5846794379739961,9.811437512933106,0.0,0.0,0.0,0.0,0.0,0.0,0.0,0.0,0.0
2025/05/14 14:46:45.260797268,1747226805,259882592,mA1/imu,0.7713257381259421,0.6364401680730307,0.0002565942536847607,0.0006725526239957033,0.0,0.0,0.0,0.0,0.0,0.0,0.0,0.0,0.0,0.0009670468319675412,0.0009045500469465608,0.0013795611053619805,0.0,0.0,0.0,0.0,0.0,0.0,0.0,0.0,0.0,0.004838427124090397,-0.19361566831855423,9.809790388848063,0.0,0.0,0.0,0.0,0.0,0.0,0.0,0.0,0.0
2025/05/14 14:46:45.312737264,1747226805,309711990,mA1/imu,0.7713474284537646,0.6364138787751494,0.00027515781477764335,0.0006661893956038268,0.0,0.0,0.0,0.0,0.0,0.0,0.0,0.0,0.0,0.00010459689550096324,0.0006004101284374655,0.0013540318964261847,0.0,0.0,0.0,0.0,0.0,0.0,0.0,0.0,0.0,0.005188537631839626,0.0008664024617379921,9.811617173085896,0.0,0.0,0.0,0.0,0.0,0.0,0.0,0.0,0.0
2025/05/14 14:46:45.357634213,1747226805,351245439,mA1/imu,0.771367903849881,0.636389072634456,0.00027773429055493143,0.0006542211872282928,0.0,0.0,0.0,0.0,0.0,0.0,0.0,0.0,0.0,-0.0013148869018572834,0.00027768476771892066,0.0012619586521236974,0.0,0.0,0.0,0.0,0.0,0.0,0.0,0.0,0.0,0.0038106312642090696,0.5356248660730377,9.811685481030922,0.0,0.0,0.0,0.0,0.0,0.0,0.0,0.0,0.0
2025/05/14 14:46:45.408659448,1747226805,404670568,mA1/imu,0.7713876454400632,0.6363651476546646,0.0002773306854588109,0.0006499235209817232,0.0,0.0,0.0,0.0,0.0,0.0,0.0,0.0,0.0,0.0011468219770573735,-2.3136517076532643e-05,0.0012268226666745118,0.0,0.0,0.0,0.0,0.0,0.0,0.0,0.0,0.0,0.003647540220482813,0.07675520909284657,9.810544877855534,0.0,0.0,0.0,0.0,0.0,0.0,0.0,0.0,0.0
2025/05/14 14:46:45.458222751,1747226805,456692669,mA1/imu,0.7714068351417587,0.6363418814905288,0.0002757717759806303,0.0006546049164395346,0.0,0.0,0.0,0.0,0.0,0.0,0.0,0.0,0.0,1.4498941657749012e-05,-0.00027347215763050866,0.0011928233419386325,0.0,0.0,0.0,0.0,0.0,0.0,0.0,0.0,0.0,0.0034767730350678165,-9.912986306248768e-05,9.811550253090296,0.0,0.0,0.0,0.0,0.0,0.0,0.0,0.0,0.0
2025/05/14 14:46:45.504719229,1747226805,501130359,mA1/imu,0.7714256508001717,0.6363190741757707,0.0002634146725379443,0.0006570695029965868,0.0,0.0,0.0,0.0,0.0,0.0,0.0,0.0,0.0,0.0005407614412732949,-0.000585095844478695,0.0011907213622248207,0.0,0.0,0.0,0.0,0.0,0.0,0.0,0.0,0.0,0.007862536357780503,0.03901604153935037,9.811938902258772,0.0,0.0,0.0,0.0,0.0,0.0,0.0,0.0,0.0
2025/05/14 14:46:45.554584507,1747226805,552274301,mA1/imu,0.7714446331331991,0.6362960601105028,0.0002441958053436105,0.0006650310097593959,0.0,0.0,0.0,0.0,0.0,0.0,0.0,0.0,0.0,0.0002702310613356007,-0.0009305638497204059,0.001160494171889727,0.0,0.0,0.0,0.0,0.0,0.0,0.0,0.0,0.0,0.008242897913872536,0.649058332282312,9.81216792868822,0.0,0.0,0.0,0.0,0.0,0.0,0.0,0.0,0.0
2025/05/14 14:46:45.605311183,1747226805,602238943,mA1/imu,0.7714627389531454,0.6362740865698852,0.0002294878936623192,0.000690291152988476,0.0,0.0,0.0,0.0,0.0,0.0,0.0,0.0,0.0,-0.0007752572248850057,-0.001214503650581833,0.0011532524692040105,0.0,0.0,0.0,0.0,0.0,0.0,0.0,0.0,0.0,0.009241676534990632,0.44830342385395094,9.809553602750343,0.0,0.0,0.0,0.0,0.0,0.0,0.0,0.0,0.0
2025/05/14 14:46:45.655666594,1747226805,653562393,mA1/imu,0.7714811109037948,0.6362517891769863,0.0002052421939475659,0.0007170518614873426,0.0,0.0,0.0,0.0,0.0,0.0,0.0,0.0,0.0,-5.767834316100554e-05,-0.0015606130771859475,0.00112269823497282,0.0,0.0,0.0,0.0,0.0,0.0,0.0,0.0,0.0,0.010907787018731584,-0.6335373265548673,9.809566881484152,0.0,0.0,0.0,0.0,0.0,0.0,0.0,0.0,0.0
2025/05/14 14:46:45.708812262,1747226805,704607056,mA1/imu,0.7714985633409028,0.6362306120119293,0.00016927742343178617,0.0007392205373217196,0.0,0.0,0.0,0.0,0.0,0.0,0.0,0.0,0.0,-0.00042106374820353066,-0.0017146774750751402,0.001088835094472852,0.0,0.0,0.0,0.0,0.0,0.0,0.0,0.0,0.0,0.006409777631976492,-0.02560472852188072,9.81081384846293,0.0,0.0,0.0,0.0,0.0,0.0,0.0,0.0,0.0
2025/05/14 14:46:45.760847314,1747226805,757506286,mA1/imu,0.7715258016928173,0.6361975679502865,0.0001523132141491645,0.0007540935492590675,0.0,0.0,0.0,0.0,0.0,0.0,0.0,0.0,0.0,-0.0008017038560222146,-0.0005748708604374225,0.0019712710003391303,0.0,0.0,0.0,0.0,0.0,0.0,0.0,0.0,0.0,0.00866330296500245,0.5807268160949898,9.8097870328599,0.0,0.0,0.0,0.0,0.0,0.0,0.0,0.0,0.0
2025/05/14 14:46:45.809616369,1747226805,808682902,mA1/imu,0.7715572095502916,0.6361594611371467,0.0001436547019951532,0.0007692593770897986,0.0,0.0,0.0,0.0,0.0,0.0,0.0,0.0,0.0,-0.0006013956314863169,-0.0006921832294268208,0.0019755473851376655,0.0,0.0,0.0,0.0,0.0,0.0,0.0,0.0,0.0,0.008876440495359692,0.5235129920446597,9.810195031055422,0.0,0.0,0.0,0.0,0.0,0.0,0.0,0.0,0.0
2025/05/14 14:46:45.854046515,1747226805,851368388,mA1/imu,0.7715885950836071,0.6361213758864214,0.00013321356727202235,0.0007857044081785358,0.0,0.0,0.0,0.0,0.0,0.0,0.0,0.0,0.0,0.0002705653717824843,-0.0007713207860046085,0.001972337343732523,0.0,0.0,0.0,0.0,0.0,0.0,0.0,0.0,0.0,0.008976662071924752,-0.5965027389022949,9.809728421589258,0.0,0.0,0.0,0.0,0.0,0.0,0.0,0.0,0.0
2025/05/14 14:46:45.905786659,1747226805,901512750,mA1/imu,0.7716199286661095,0.6360833518084522,0.00011962606678613989,0.0008005791885051787,0.0,0.0,0.0,0.0,0.0,0.0,0.0,0.0,0.0,0.00027069672924089994,-0.0008148733576002595,0.0019689274691578706,0.0,0.0,0.0,0.0,0.0,0.0,0.0,0.0,0.0,0.009342201293761145,0.03473083222701881,9.810604882944396,0.0,0.0,0.0,0.0,0.0,0.0,0.0,0.0,0.0
2025/05/14 14:46:45.955564141,1747226805,953885367,mA1/imu,0.7716514597255364,0.636045082541869,0.00011175303183363357,0.0008155912064103693,0.0,0.0,0.0,0.0,0.0,0.0,0.0,0.0,0.0,-0.0005032662013737764,-0.0005419168871589107,0.0019879956153699627,0.0,0.0,0.0,0.0,0.0,0.0,0.0,0.0,0.0,0.00836997826954709,0.6181083099970496,9.810205326004052,0.0,0.0,0.0,0.0,0.0,0.0,0.0,0.0,0.0
2025/05/14 14:46:46.6230101,1747226806,4290604,mA1/imu,0.7716830153186675,0.6360067668582806,0.00011407700525030163,0.0008386689470872004,0.0,0.0,0.0,0.0,0.0,0.0,0.0,0.0,0.0,-0.0020744065341877184,-0.0004860977962178785,0.001983713275617611,0.0,0.0,0.0,0.0,0.0,0.0,0.0,0.0,0.0,0.008247838382609616,0.5122108489082616,9.809719595334634,0.0,0.0,0.0,0.0,0.0,0.0,0.0,0.0,0.0
2025/05/14 14:46:46.60217021,1747226806,57566925,mA1/imu,0.771714520809632,0.6359685256514738,0.00010782072385076238,0.0008491919347903971,0.0,0.0,0.0,0.0,0.0,0.0,0.0,0.0,0.0,7.151713143299647e-05,-0.00042811535343322953,0.0019800952570419687,0.0,0.0,0.0,0.0,0.0,0.0,0.0,0.0,0.0,0.008616832037743547,-0.6030847317421804,9.809593720297729,0.0,0.0,0.0,0.0,0.0,0.0,0.0,0.0,0.0
2025/05/14 14:46:46.108888648,1747226806,106908654,mA1/imu,0.7717459634045363,0.6359303606868051,0.00010174511292267716,0.000856722525818516,0.0,0.0,0.0,0.0,0.0,0.0,0.0,0.0,0.0,0.00014079844862370064,-0.00034726517709979965,0.0019762478254976962,0.0,0.0,0.0,0.0,0.0,0.0,0.0,0.0,0.0,0.009142583986773008,0.14838540368811007,9.810513118535175,0.0,0.0,0.0,0.0,0.0,0.0,0.0,0.0,0.0
2025/05/14 14:46:46.160175311,1747226806,151915209,mA1/imu,0.7717773421712596,0.6358922710713519,9.770499317364066e-05,0.0008626450712902268,0.0,0.0,0.0,0.0,0.0,0.0,0.0,0.0,0.0,5.180963069453577e-06,-0.00022168831237565,0.001972281667844538,0.0,0.0,0.0,0.0,0.0,0.0,0.0,0.0,0.0,0.007931547371569382,0.6470536053193883,9.810951869477334,0.0,0.0,0.0,0.0,0.0,0.0,0.0,0.0,0.0
2025/05/14 14:46:46.203476903,1747226806,201245195,mA1/imu,0.7718086501139696,0.6358542504043049,0.0001048723556879158,0.0008768430992325984,0.0,0.0,0.0,0.0,0.0,0.0,0.0,0.0,0.0,-0.0011248597175599101,-9.121947433732674e-05,0.001969669937653323,0.0,0.0,0.0,0.0,0.0,0.0,0.0,0.0,0.0,0.008966581235890498,0.5639131212122154,9.809874644952586,0.0,0.0,0.0,0.0,0.0,0.0,0.0,0.0,0.0
2025/05/14 14:46:46.254194113,1747226806,252595245,mA1/imu,0.7718425216437421,0.63581314108406,0.00010675133255158288,0.0008717864437929701,0.0,0.0,0.0,0.0,0.0,0.0,0.0,0.0,0.0,0.0009860404225412,0.0002634285978816021,0.0021658593635141225,0.0,0.0,0.0,0.0,0.0,0.0,0.0,0.0,0.0,0.009556376495618907,-0.5535041010795964,9.810062924232948,0.0,0.0,0.0,0.0,0.0,0.0,0.0,0.0,0.0
2025/05/14 14:46:46.305682050,1747226806,304762939,mA1/imu,0.7718770703838644,0.6357711990882529,0.00011530789008618432,0.0008702468606732706,0.0,0.0,0.0,0.0,0.0,0.0,0.0,0.0,0.0,0.0011937591831205857,0.0003063997241356337,0.0021787670110478587,0.0,0.0,0.0,0.0,0.0,0.0,0.0,0.0,0.0,0.010875726308788861,-0.3819474817806754,9.809009311371515,0.0,0.0,0.0,0.0,0.0,0.0,0.0,0.0,0.0
2025/05/14 14:46:46.358834723,1747226806,356155989,mA1/imu,0.7719101854846422,0.6357309956153485,0.00012486014293522688,0.0008667000218954879,0.0,0.0,0.0,0.0,0.0,0.0,0.0,0.0,0.0,-0.0002437855794292435,0.00040223831444066645,0.002037070537163511,0.0,0.0,0.0,0.0,0.0,0.0,0.0,0.0,0.0,0.00970500715207989,-0.01667429272602693,9.809162041229044,0.0,0.0,0.0,0.0,0.0,0.0,0.0,0.0,0.0
2025/05/14 14:46:46.409644105,1747226806,408176564,mA1/imu,0.771942351476034,0.6356919447458877,0.0001331947964010214,0.0008600244117058891,0.0,0.0,0.0,0.0,0.0,0.0,0.0,0.0,0.0,-0.0018512778208848676,0.00045046061847521225,0.0020151077768849187,0.0,0.0,0.0,0.0,0.0,0.0,0.0,0.0,0.0,0.009553607819956197,0.4977673466573092,9.810201327726158,0.0,0.0,0.0,0.0,0.0,0.0,0.0,0.0,0.0
2025/05/14 14:46:46.453050348,1747226806,451285908,mA1/imu,0.771978152671867,0.6356484958598391,0.00013969011360453885,0.0008378514953362545,0.0,0.0,0.0,0.0,0.0,0.0,0.0,0.0,0.0,-9.930013023839194e-05,0.0009082993226024637,0.0023437036935591636,0.0,0.0,0.0,0.0,0.0,0.0,0.0,0.0,0.0,0.011480166267863042,-0.01771862515871691,9.810833619769895,0.0,0.0,0.0,0.0,0.0,0.0,0.0,0.0,0.0
2025/05/14 14:46:46.504294676,1747226806,501639960,mA1/imu,0.7720153300019726,0.6356033674370445,0.00014965501854988396,0.000816791289274533,0.0,0.0,0.0,0.0,0.0,0.0,0.0,0.0,0.0,0.0012841216139744505,0.0007861211685982877,0.0023356784130994157,0.0,0.0,0.0,0.0,0.0,0.0,0.0,0.0,0.0,0.012681938156135518,0.07167379495093293,9.811744884998708,0.0,0.0,0.0,0.0,0.0,0.0,0.0,0.0,0.0
2025/05/14 14:46:46.555410199,1747226806,553715399,mA1/imu,0.7720537051870922,0.6355567692984284,0.0001589788879893563,0.0008025157566757656,0.0,0.0,0.0,0.0,0.0,0.0,0.0,0.0,0.0,0.0013928964129002047,0.0005285416512148998,0.0024543128990795883,0.0,0.0,0.0,0.0,0.0,0.0,0.0,0.0,0.0,0.01317637650267791,0.07792169695552074,9.810228117747855,0.0,0.0,0.0,0.0,0.0,0.0,0.0,0.0,0.0
2025/05/14 14:46:46.606109311,1747226806,603483186,mA1/imu,0.7720927107529834,0.635509391808115,0.00016512552471650155,0.0007947699986774133,0.0,0.0,0.0,0.0,0.0,0.0,0.0,0.0,0.0,0.0004471893035457758,0.0002759281528493153,0.002454264053467761,0.0,0.0,0.0,0.0,0.0,0.0,0.0,0.0,0.0,0.014121759396407587,0.00813111303080465,9.809013391973114,0.0,0.0,0.0,0.0,0.0,0.0,0.0,0.0,0.0
2025/05/14 14:46:46.657470633,1747226806,655831943,mA1/imu,0.7721310046144,0.6354628706651554,0.00016375753706179667,0.0007905078281441253,0.0,0.0,0.0,0.0,0.0,0.0,0.0,0.0,0.0,-0.0004381696936995536,-9.09915628889798e-05,0.002378375960104157,0.0,0.0,0.0,0.0,0.0,0.0,0.0,0.0,0.0,0.018554826224144057,-0.054379580536874216,9.809419018783482,0.0,0.0,0.0,0.0,0.0,0.0,0.0,0.0,0.0
2025/05/14 14:46:46.707839120,1747226806,707351044,mA1/imu,0.7721679748083001,0.6354179534300083,0.00015116853747191406,0.0007875832281166146,0.0,0.0,0.0,0.0,0.0,0.0,0.0,0.0,0.0,-0.0011505385158460998,-0.000457600338710681,0.0022951894781252182,0.0,0.0,0.0,0.0,0.0,0.0,0.0,0.0,0.0,0.0184759521067634,0.5257663489522373,9.811673773297235,0.0,0.0,0.0,0.0,0.0,0.0,0.0,0.0,0.0
2025/05/14 14:46:46.762910597,1747226806,760792358,mA1/imu,0.7722094517761171,0.6353675565190294,0.00013658480880414592,0.0007823396044262998,0.0,0.0,0.0,0.0,0.0,0.0,0.0,0.0,0.0,-0.0005702128463231586,-0.00036559907497682144,0.002679667633761854,0.0,0.0,0.0,0.0,0.0,0.0,0.0,0.0,0.0,0.01693380080537398,0.5682419363622623,9.810611555940545,0.0,0.0,0.0,0.0,0.0,0.0,0.0,0.0,0.0
2025/05/14 14:46:46.806778362,1747226806,801981470,mA1/imu,0.7722521442155597,0.6353156688413888,0.00011880720671590542,0.0007826646388539062,0.0,0.0,0.0,0.0,0.0,0.0,0.0,0.0,0.0,0.0009015652666472607,-0.0006768552974224195,0.002692798182403467,0.0,0.0,0.0,0.0,0.0,0.0,0.0,0.0,0.0,0.01623989303195622,0.044569804565881936,9.810522160087729,0.0,0.0,0.0,0.0,0.0,0.0,0.0,0.0,0.0
2025/05/14 14:46:46.855527411,1747226806,854168728,mA1/imu,0.7722950515255619,0.6352635014311349,9.943141305689634e-05,0.0007919924103799898,0.0,0.0,0.0,0.0,0.0,0.0,0.0,0.0,0.0,0.0017881494409554821,-0.0009452869813616215,0.002706967914695252,0.0,0.0,0.0,0.0,0.0,0.0,0.0,0.0,0.0,0.015584399916761037,-0.5210200100982827,9.810086860515364,0.0,0.0,0.0,0.0,0.0,0.0,0.0,0.0,0.0
2025/05/14 14:46:46.908847112,1747226806,905793056,mA1/imu,0.7723381811455663,0.635211045200483,7.917719422358783e-05,0.0008097722149728011,0.0,0.0,0.0,0.0,0.0,0.0,0.0,0.0,0.0,0.0007893466254717731,-0.0011721806526296945,0.002721722801185192,0.0,0.0,0.0,0.0,0.0,0.0,0.0,0.0,0.0,0.016215394531742963,-0.3339295269291395,9.808913634535008,0.0,0.0,0.0,0.0,0.0,0.0,0.0,0.0,0.0
2025/05/14 14:46:46.962199865,1747226806,957775147,mA1/imu,0.7723815440011504,0.6351582933381017,5.612590648286487e-05,0.0008305059370013316,0.0,0.0,0.0,0.0,0.0,0.0,0.0,0.0,0.0,-0.0009196282080758185,-0.001287658970027024,0.0027364916546520754,0.0,0.0,0.0,0.0,0.0,0.0,0.0,0.0,0.0,0.015795621431520235,-0.06973355231474021,9.809783411449095,0.0,0.0,0.0,0.0,0.0,0.0,0.0,0.0,0.0
2025/05/14 14:46:47.9853481,1747226807,7250308,mA1/imu,0.7724251480697867,0.6351052453263086,2.6681565757915692e-05,0.0008469217621746748,0.0,0.0,0.0,0.0,0.0,0.0,0.0,0.0,0.0,2.054968754570882e-05,-0.0013423439801065714,0.0027517089025909914,0.0,0.0,0.0,0.0,0.0,0.0,0.0,0.0,0.0,0.015028249995009416,-0.14910873939018143,9.810883592413555,0.0,0.0,0.0,0.0,0.0,0.0,0.0,0.0,0.0
2025/05/14 14:46:47.60362367,1747226807,58891876,mA1/imu,0.7724727174451386,0.635047364803684,8.420096574640243e-06,0.0008632426785097809,0.0,0.0,0.0,0.0,0.0,0.0,0.0,0.0,0.0,-0.0011388971431140445,-0.0008107579444730963,0.003106890064128338,0.0,0.0,0.0,0.0,0.0,0.0,0.0,0.0,0.0,0.01600084762730843,0.5566247767069303,9.810033939588111,0.0,0.0,0.0,0.0,0.0,0.0,0.0,0.0,0.0
2025/05/14 14:46:47.111994232,1747226807,109775137,mA1/imu,0.7725219684928941,0.6349874360044279,-7.366903102781872e-06,0.0008742185741293131,0.0,0.0,0.0,0.0,0.0,0.0,0.0,0.0,0.0,-0.001390319166964108,-0.0006781346397584829,0.0030595783676384213,0.0,0.0,0.0,0.0,0.0,0.0,0.0,0.0,0.0,0.011822362830929311,0.5427393254371972,9.809242183440196,0.0,0.0,0.0,0.0,0.0,0.0,0.0,0.0,0.0
2025/05/14 14:46:47.155325373,1747226807,151758705,mA1/imu,0.7725695670625825,0.6349295008095038,-1.4847086040085879e-05,0.0008904100696530838,0.0,0.0,0.0,0.0,0.0,0.0,0.0,0.0,0.0,0.0002505176484724719,-0.00059834476753523,0.002995999980853298,0.0,0.0,0.0,0.0,0.0,0.0,0.0,0.0,0.0,0.01421838226162379,-0.5252372425267844,9.810128084911629,0.0,0.0,0.0,0.0,0.0,0.0,0.0,0.0,0.0
2025/05/14 14:46:47.209558121,1747226807,205023310,mA1/imu,0.7726172125158641,0.6348715028934658,-2.0220080580157448e-05,0.0009040625842855201,0.0,0.0,0.0,0.0,0.0,0.0,0.0,0.0,0.0,-0.0001474098639022637,-0.0004626497245865257,0.0030058618024035467,0.0,0.0,0.0,0.0,0.0,0.0,0.0,0.0,0.0,0.015622399764397103,0.01113731713023391,9.810842750932641,0.0,0.0,0.0,0.0,0.0,0.0,0.0,0.0,0.0
2025/05/14 14:46:47.257881685,1747226807,256189099,mA1/imu,0.7726659376065158,0.6348121824901389,-2.1685782262419737e-05,0.000917253769323627,0.0,0.0,0.0,0.0,0.0,0.0,0.0,0.0,0.0,-0.0009842762320319083,-0.0003309339929854951,0.003092518928395534,0.0,0.0,0.0,0.0,0.0,0.0,0.0,0.0,0.0,0.016187282809325243,0.25804738279610245,9.809313784427438,0.0,0.0,0.0,0.0,0.0,0.0,0.0,0.0,0.0
2025/05/14 14:46:47.307851238,1747226807,307097026,mA1/imu,0.7727152172557425,0.6347521788962277,-1.9791664550211966e-05,0.000929524712891285,0.0,0.0,0.0,0.0,0.0,0.0,0.0,0.0,0.0,-0.0012935526401053844,-0.00019243168528649846,0.0031150322228640104,0.0,0.0,0.0,0.0,0.0,0.0,0.0,0.0,0.0,0.015495647754614464,0.06409229469612576,9.809108644037115,0.0,0.0,0.0,0.0,0.0,0.0,0.0,0.0,0.0
2025/05/14 14:46:47.372374317,1747226807,360630666,mA1/imu,0.7727650125071249,0.6346915523191907,-1.747998345708957e-05,0.0009319624290569019,0.0,0.0,0.0,0.0,0.0,0.0,0.0,0.0,0.0,0.0008710177090287913,9.701746956149254e-05,0.0031484902680129984,0.0,0.0,0.0,0.0,0.0,0.0,0.0,0.0,0.0,0.01549633337847439,-0.5420406584373133,9.80862035584793,0.0,0.0,0.0,0.0,0.0,0.0,0.0,0.0,0.0
2025/05/14 14:46:47.404321195,1747226807,401919605,mA1/imu,0.7728151672513499,0.6346304772591264,-8.647840177880691e-06,0.0009351605937816976,0.0,0.0,0.0,0.0,0.0,0.0,0.0,0.0,0.0,0.0007004360585161313,0.00024158459281743643,0.003170147193478444,0.0,0.0,0.0,0.0,0.0,0.0,0.0,0.0,0.0,0.015652036774294185,-0.554919123723011,9.8089496939761,0.0,0.0,0.0,0.0,0.0,0.0,0.0,0.0,0.0
2025/05/14 14:46:47.455663684,1747226807,453314072,mA1/imu,0.7728656553432623,0.634568988799679,3.3876585737601284e-06,0.0009366072316603365,0.0,0.0,0.0,0.0,0.0,0.0,0.0,0.0,0.0,0.00022989219466983802,0.0003828319016213,0.003191665375048523,0.0,0.0,0.0,0.0,0.0,0.0,0.0,0.0,0.0,0.015508433087780882,-0.09992367051172828,9.809700391653775,0.0,0.0,0.0,0.0,0.0,0.0,0.0,0.0,0.0
2025/05/14 14:46:47.506950128,1747226807,503233245,mA1/imu,0.772916474686333,0.6345070864013965,1.951093939436691e-05,0.0009381280218298647,0.0,0.0,0.0,0.0,0.0,0.0,0.0,0.0,0.0,-0.0016184193269940179,0.0005119554893568601,0.003211623009946744,0.0,0.0,0.0,0.0,0.0,0.0,0.0,0.0,0.0,0.01515343820432976,0.5357302024191369,9.810590459830461,0.0,0.0,0.0,0.0,0.0,0.0,0.0,0.0,0.0
2025/05/14 14:46:47.556366820,1747226807,554143571,mA1/imu,0.7729650943745573,0.634447864718411,2.4257085380586358e-05,0.0009323327595800773,0.0,0.0,0.0,0.0,0.0,0.0,0.0,0.0,0.0,-0.0007997988993802661,0.00029981744873633,0.0030366807304706054,0.0,0.0,0.0,0.0,0.0,0.0,0.0,0.0,0.0,0.014118475707966465,0.1622297929383746,9.810166596746129,0.0,0.0,0.0,0.0,0.0,0.0,0.0,0.0,0.0
2025/05/14 14:46:47.606291521,1747226807,605108960,mA1/imu,0.7730129036189806,0.6343896122264463,3.6318918444702805e-05,0.0009324262265589991,0.0,0.0,0.0,0.0,0.0,0.0,0.0,0.0,0.0,0.00021189906241886105,0.00040699835054515274,0.0029633178369852403,0.0,0.0,0.0,0.0,0.0,0.0,0.0,0.0,0.0,0.0135841240094902,0.022281568353427685,9.811579137902696,0.0,0.0,0.0,0.0,0.0,0.0,0.0,0.0,0.0
2025/05/14 14:46:47.658059523,1747226807,656601553,mA1/imu,0.7730589323923505,0.6343335345122882,4.5501583571699845e-05,0.0009230228343906567,0.0,0.0,0.0,0.0,0.0,0.0,0.0,0.0,0.0,0.0003688196253421905,0.0005832592392768453,0.0028904811697302037,0.0,0.0,0.0,0.0,0.0,0.0,0.0,0.0,0.0,0.012692599504592197,0.3753793001358699,9.810817966509662,0.0,0.0,0.0,0.0,0.0,0.0,0.0,0.0,0.0
2025/05/14 14:46:47.708763095,1747226807,706476624,mA1/imu,0.7731046214385032,0.6342778510072289,6.4774518453983e-05,0.000920780289715868,0.0,0.0,0.0,0.0,0.0,0.0,0.0,0.0,0.0,2.006400419901639e-05,0.0006847430907450227,0.0028762962046203805,0.0,0.0,0.0,0.0,0.0,0.0,0.0,0.0,0.0,0.013255820824383209,0.009372604244351327,9.80832890387158,0.0,0.0,0.0,0.0,0.0,0.0,0.0,0.0,0.0
2025/05/14 14:46:47.764790271,1747226807,758251064,mA1/imu,0.7731538357152942,0.6342178869985586,8.313100213971518e-05,0.0009006769941744112,0.0,0.0,0.0,0.0,0.0,0.0,0.0,0.0,0.0,-0.00021335839607096395,0.0012235382280517358,0.0032004842638050134,0.0,0.0,0.0,0.0,0.0,0.0,0.0,0.0,0.0,0.014803591095662748,0.6167355430741919,9.810599821533605,0.0,0.0,0.0,0.0,0.0,0.0,0.0,0.0,0.0
2025/05/14 14:46:47.809735891,1747226807,808015909,mA1/imu,0.7732046072646528,0.6341560051973005,0.00010922316684221456,0.0008856902478499368,0.0,0.0,0.0,0.0,0.0,0.0,0.0,0.0,0.0,-0.0005690903876468833,0.0011560435038918864,0.0032044640334525777,0.0,0.0,0.0,0.0,0.0,0.0,0.0,0.0,0.0,0.014956217117688535,0.4446619185374121,9.810116073375351,0.0,0.0,0.0,0.0,0.0,0.0,0.0,0.0,0.0
2025/05/14 14:46:47.855209928,1747226807,851653302,mA1/imu,0.7732554294653061,0.6340940479750676,0.00013340420236273518,0.000872541309262631,0.0,0.0,0.0,0.0,0.0,0.0,0.0,0.0,0.0,-0.0019963259287818927,0.0010253766634261174,0.0032075835601210784,0.0,0.0,0.0,0.0,0.0,0.0,0.0,0.0,0.0,0.016146057952849662,0.4813438806286222,9.811754853106015,0.0,0.0,0.0,0.0,0.0,0.0,0.0,0.0,0.0
2025/05/14 14:46:47.906464144,1747226807,905027852,mA1/imu,0.7733063109873634,0.6340320252716672,0.00014317677883912808,0.0008484205520528523,0.0,0.0,0.0,0.0,0.0,0.0,0.0,0.0,0.0,8.021100772861971e-05,0.0008458214276459889,0.003210643954806087,0.0,0.0,0.0,0.0,0.0,0.0,0.0,0.0,0.0,0.014646880270668657,-0.00542630144843987,9.809165399929723,0.0,0.0,0.0,0.0,0.0,0.0,0.0,0.0,0.0
