time,header_stamp_secs,header_stamp_nsecs,header_frame_id,orientation_x,orientation_y,orientation_z,orientation_w,orientation_covariance_0,orientation_covariance_1,orientation_covariance_2,orientation_covariance_3,orientation_covariance_4,orientation_covariance_5,orientation_covariance_6,orientation_covariance_7,orientation_covariance_8,angular_velocity_x,angular_velocity_y,angular_velocity_z,angular_velocity_covariance_0,angular_velocity_covariance_1,angular_velocity_covariance_2,angular_velocity_covariance_3,angular_velocity_covariance_4,angular_velocity_covariance_5,angular_velocity_covariance_6,angular_velocity_covariance_7,angular_velocity_covariance_8,linear_acceleration_x,linear_acceleration_y,linear_acceleration_z,linear_acceleration_covariance_0,linear_acceleration_covariance_1,linear_acceleration_covariance_2,linear_acceleration_covariance_3,linear_acceleration_covariance_4,linear_acceleration_covariance_5,linear_acceleration_covariance_6,linear_acceleration_covariance_7,linear_acceleration_covariance_8
2025/04/11 12:08:16.139597959,1744366096,137530245,mti/imu_base_body,0.7720896715010237,0.635454414442582,0.006225198731380648,-0.006039306883339809,0.017453292519943295,0.0,0.0,0.0,0.017453292519943295,0.0,0.0,0.0,0.15707963267948966,0.01240255031734705,0.006943030282855034,0.11665299534797668,0.0004363323129985824,0.0,0.0,0.0,0.0004363323129985824,0.0,0.0,0.0,0.0004363323129985824,-0.17276409268379211,0.05967916175723076,9.767260551452637,0.0004,0.0,0.0,0.0,0.0004,0.0,0.0,0.0,0.0004
2025/04/11 12:08:16.259957762,1744366096,189959266,mti/imu_base_body,0.7724649289726442,0.6349983837713469,0.0062296025749818094,-0.006014828910533268,0.017453292519943295,0.0,0.0,0.0,0.017453292519943295,0.0,0.0,0.0,0.15707963267948966,0.0044435616582632065,-0.0006078488077037036,0.11591354012489319,0.0004363323129985824,0.0,0.0,0.0,0.0004363323129985824,0.0,0.0,0.0,0.0004363323129985824,-0.14329461753368378,0.06927970796823502,9.870715141296387,0.0004,0.0,0.0,0.0,0.0004,0.0,0.0,0.0,0.0004
2025/04/11 12:08:16.276845172,1744366096,237430717,mti/imu_base_body,0.7728417532611443,0.6345398312430929,0.006219379968459674,-0.00601217889251417,0.017453292519943295,0.0,0.0,0.0,0.017453292519943295,0.0,0.0,0.0,0.15707963267948966,0.009964347817003727,0.004705574829131365,0.12132294476032257,0.0004363323129985824,0.0,0.0,0.0,0.0004363323129985824,0.0,0.0,0.0,0.0004363323129985824,-0.1584802269935608,0.060233794152736664,9.84791374206543,0.0004,0.0,0.0,0.0,0.0004,0.0,0.0,0.0,0.0004
2025/04/11 12:08:16.287619696,1744366096,287374086,mti/imu_base_body,0.7732007540031041,0.634102282256116,0.006225974022337327,-0.006010565205507953,0.017453292519943295,0.0,0.0,0.0,0.017453292519943295,0.0,0.0,0.0,0.15707963267948966,0.008424816653132439,0.005509587470442057,0.11439283192157745,0.0004363323129985824,0.0,0.0,0.0,0.0004363323129985824,0.0,0.0,0.0,0.0004363323129985824,-0.16318275034427643,0.055275846272706985,9.777336120605469,0.0004,0.0,0.0,0.0,0.0004,0.0,0.0,0.0,0.0004
2025/04/11 12:08:16.338132481,1744366096,337733460,mti/imu_base_body,0.7735776308867276,0.6336423525699512,0.006232248829837572,-0.006014739879520332,0.017453292519943295,0.0,0.0,0.0,0.017453292519943295,0.0,0.0,0.0,0.15707963267948966,0.009899308905005455,0.004489552695304155,0.11371932178735733,0.0004363323129985824,0.0,0.0,0.0,0.0004363323129985824,0.0,0.0,0.0,0.0004363323129985824,-0.20271478593349457,0.08709670603275299,9.746654510498047,0.0004,0.0,0.0,0.0,0.0004,0.0,0.0,0.0,0.0004
2025/04/11 12:08:16.388428993,1744366096,387422724,mti/imu_base_body,0.7739358716804599,0.6332050924601886,0.006208640795117233,-0.0060025151535032855,0.017453292519943295,0.0,0.0,0.0,0.017453292519943295,0.0,0.0,0.0,0.15707963267948966,0.009005457162857056,-0.0013935643946751952,0.1161164939403534,0.0004363323129985824,0.0,0.0,0.0,0.0004363323129985824,0.0,0.0,0.0,0.0004363323129985824,-0.1589222401380539,0.08102592825889587,9.830994606018066,0.0004,0.0,0.0,0.0,0.0004,0.0,0.0,0.0,0.0004
2025/04/11 12:08:16.437639913,1744366096,437366322,mti/imu_base_body,0.7742940409920306,0.6327671490064429,0.0062046885813587145,-0.0059979214814900525,0.017453292519943295,0.0,0.0,0.0,0.017453292519943295,0.0,0.0,0.0,0.15707963267948966,0.013847291469573975,0.004792115651071072,0.11067353934049606,0.0004363323129985824,0.0,0.0,0.0,0.0004363323129985824,0.0,0.0,0.0,0.0004363323129985824,-0.15069083869457245,0.08218800276517868,9.86326789855957,0.0004,0.0,0.0,0.0,0.0004,0.0,0.0,0.0,0.0004
2025/04/11 12:08:16.488351694,1744366096,488064841,mti/imu_base_body,0.7746359840384842,0.632348466254405,0.006218295709982367,-0.005986840309705104,0.017453292519943295,0.0,0.0,0.0,0.017453292519943295,0.0,0.0,0.0,0.15707963267948966,0.000459596369182691,0.005738148465752602,0.11889375001192093,0.0004363323129985824,0.0,0.0,0.0,0.0004363323129985824,0.0,0.0,0.0,0.0004363323129985824,-0.19527703523635864,0.06030387058854103,9.80882453918457,0.0004,0.0,0.0,0.0,0.0004,0.0,0.0,0.0,0.0004
2025/04/11 12:08:16.538767483,1744366096,537550020,mti/imu_base_body,0.7750269173005221,0.6318693275096453,0.006228941975191004,-0.005969145167270954,0.017453292519943295,0.0,0.0,0.0,0.017453292519943295,0.0,0.0,0.0,0.15707963267948966,0.0009450680809095502,0.001827443833462894,0.1165272518992424,0.0004363323129985824,0.0,0.0,0.0,0.0004363323129985824,0.0,0.0,0.0,0.0004363323129985824,-0.18669001758098602,0.07203684747219086,9.734034538269043,0.0004,0.0,0.0,0.0,0.0004,0.0,0.0,0.0,0.0004
2025/04/11 12:08:16.590966138,1744366096,587682679,mti/imu_base_body,0.7753642887560189,0.6314554423082094,0.00624386316785184,-0.005937867795568797,0.017453292519943295,0.0,0.0,0.0,0.017453292519943295,0.0,0.0,0.0,0.15707963267948966,0.006162821315228939,-0.000521020672749728,0.1111295223236084,0.0004363323129985824,0.0,0.0,0.0,0.0004363323129985824,0.0,0.0,0.0,0.0004363323129985824,-0.16029810905456543,0.061730947345495224,9.834233283996582,0.0004,0.0,0.0,0.0,0.0004,0.0,0.0,0.0,0.0004
2025/04/11 12:08:16.637810797,1744366096,637447580,mti/imu_base_body,0.7757611746350527,0.630968272292025,0.006250568773531408,-0.005879598597480463,0.017453292519943295,0.0,0.0,0.0,0.017453292519943295,0.0,0.0,0.0,0.15707963267948966,0.003923868294805288,-0.0014389626448974013,0.12629923224449158,0.0004363323129985824,0.0,0.0,0.0,0.0004363323129985824,0.0,0.0,0.0,0.0004363323129985824,-0.12433319538831711,0.06079820543527603,9.872846603393555,0.0004,0.0,0.0,0.0,0.0004,0.0,0.0,0.0,0.0004
2025/04/11 12:08:16.687825754,1744366096,687465539,mti/imu_base_body,0.7761379899399561,0.6305047208586758,0.0062659579187591755,-0.005861340994022092,0.017453292519943295,0.0,0.0,0.0,0.017453292519943295,0.0,0.0,0.0,0.15707963267948966,0.00524393655359745,0.0064898389391601086,0.12396275997161865,0.0004363323129985824,0.0,0.0,0.0,0.0004363323129985824,0.0,0.0,0.0,0.0004363323129985824,-0.16146248579025269,0.052404794842004776,9.818391799926758,0.0004,0.0,0.0,0.0,0.0004,0.0,0.0,0.0,0.0004
2025/04/11 12:08:16.737852198,1744366096,737475939,mti/imu_base_body,0.7765312233798161,0.6300197878240668,0.0063172152277778245,-0.005866758741409495,0.017453292519943295,0.0,0.0,0.0,0.017453292519943295,0.0,0.0,0.0,0.15707963267948966,0.004106827545911074,0.013471227139234543,0.12068943679332733,0.0004363323129985824,0.0,0.0,0.0,0.0004363323129985824,0.0,0.0,0.0,0.0004363323129985824,-0.1932900995016098,0.05214770883321762,9.726706504821777,0.0004,0.0,0.0,0.0,0.0004,0.0,0.0,0.0,0.0004
2025/04/11 12:08:16.788113216,1744366096,787554078,mti/imu_base_body,0.7769089492484476,0.6295542376798167,0.006305017219188796,-0.00584749133592414,0.017453292519943295,0.0,0.0,0.0,0.017453292519943295,0.0,0.0,0.0,0.15707963267948966,0.005516224540770054,-0.0035881183575838804,0.1175328940153122,0.0004363323129985824,0.0,0.0,0.0,0.0004363323129985824,0.0,0.0,0.0,0.0004363323129985824,-0.1704138070344925,0.06719256937503815,9.809646606445312,0.0004,0.0,0.0,0.0,0.0004,0.0,0.0,0.0,0.0004
2025/04/11 12:08:16.891494043,1744366096,837818500,mti/imu_base_body,0.7772807308224019,0.6290949715456255,0.006337190814934019,-0.005832862142768423,0.017453292519943295,0.0,0.0,0.0,0.017453292519943295,0.0,0.0,0.0,0.15707963267948966,0.0021975357085466385,0.006145840510725975,0.12108909338712692,0.0004363323129985824,0.0,0.0,0.0,0.0004363323129985824,0.0,0.0,0.0,0.0004363323129985824,-0.15018382668495178,0.06712473928928375,9.891239166259766,0.0004,0.0,0.0,0.0,0.0004,0.0,0.0,0.0,0.0004
2025/04/11 12:08:16.937646754,1744366096,937403079,mti/imu_base_body,0.7780107315803726,0.6281925060449363,0.006369859864614245,-0.00573600732752442,0.017453292519943295,0.0,0.0,0.0,0.017453292519943295,0.0,0.0,0.0,0.15707963267948966,-0.0035275169648230076,0.001985216746106744,0.11476657539606094,0.0004363323129985824,0.0,0.0,0.0,0.0004363323129985824,0.0,0.0,0.0,0.0004363323129985824,-0.17536257207393646,0.04687190055847168,9.761031150817871,0.0004,0.0,0.0,0.0,0.0004,0.0,0.0,0.0,0.0004
2025/04/11 12:08:16.988267833,1744366096,987527710,mti/imu_base_body,0.7783923415318115,0.6277193871426943,0.006409155645854969,-0.005714575551264899,0.017453292519943295,0.0,0.0,0.0,0.017453292519943295,0.0,0.0,0.0,0.15707963267948966,-0.0008096221718005836,0.006039280444383621,0.12370721250772476,0.0004363323129985824,0.0,0.0,0.0,0.0004363323129985824,0.0,0.0,0.0,0.0004363323129985824,-0.16872552037239075,0.05943514406681061,9.81479549407959,0.0004,0.0,0.0,0.0,0.0004,0.0,0.0,0.0,0.0004
2025/04/11 12:08:17.40934767,1744366097,37719684,mti/imu_base_body,0.7787669506264415,0.6272548043443477,0.006415696958264641,-0.005682065774658151,0.017453292519943295,0.0,0.0,0.0,0.017453292519943295,0.0,0.0,0.0,0.15707963267948966,0.010347636416554451,-0.002500539179891348,0.1161176934838295,0.0004363323129985824,0.0,0.0,0.0,0.0004363323129985824,0.0,0.0,0.0,0.0004363323129985824,-0.1589430570602417,0.07308215647935867,9.864242553710938,0.0004,0.0,0.0,0.0,0.0004,0.0,0.0,0.0,0.0004
2025/04/11 12:08:17.100105072,1744366097,87479356,mti/imu_base_body,0.7791190262734884,0.62681797330148,0.00638047654481094,-0.005662222526295447,0.017453292519943295,0.0,0.0,0.0,0.017453292519943295,0.0,0.0,0.0,0.15707963267948966,0.006542546674609184,-0.0030684068333357573,0.11576789617538452,0.0004363323129985824,0.0,0.0,0.0,0.0004363323129985824,0.0,0.0,0.0,0.0004363323129985824,-0.19318294525146484,0.08401722460985184,9.827556610107422,0.0004,0.0,0.0,0.0,0.0004,0.0,0.0,0.0,0.0004
2025/04/11 12:08:17.146784914,1744366097,142792962,mti/imu_base_body,0.7794859760432293,0.626362032204909,0.006350652574045607,-0.005646855404042688,0.017453292519943295,0.0,0.0,0.0,0.017453292519943295,0.0,0.0,0.0,0.15707963267948966,0.012138904072344303,0.00046845671022310853,0.11968143284320831,0.0004363323129985824,0.0,0.0,0.0,0.0004363323129985824,0.0,0.0,0.0,0.0004363323129985824,-0.17588728666305542,0.07058391720056534,9.755990982055664,0.0004,0.0,0.0,0.0,0.0004,0.0,0.0,0.0,0.0004
2025/04/11 12:08:17.188293660,1744366097,187933698,mti/imu_base_body,0.7798695502332686,0.6258844541080681,0.006329601391408746,-0.005663114958261524,0.017453292519943295,0.0,0.0,0.0,0.017453292519943295,0.0,0.0,0.0,0.15707963267948966,0.013067774474620819,0.0031769073102623224,0.12322816252708435,0.0004363323129985824,0.0,0.0,0.0,0.0004363323129985824,0.0,0.0,0.0,0.0004363323129985824,-0.16216696798801422,0.06237364187836647,9.822351455688477,0.0004,0.0,0.0,0.0,0.0004,0.0,0.0,0.0,0.0004
2025/04/11 12:08:17.240363009,1744366097,238154536,mti/imu_base_body,0.7802658333131585,0.625390629493991,0.006348732927654956,-0.005611015544910128,0.017453292519943295,0.0,0.0,0.0,0.017453292519943295,0.0,0.0,0.0,0.15707963267948966,-0.0024911945220083,-0.0021003081928938627,0.1250959038734436,0.0004363323129985824,0.0,0.0,0.0,0.0004363323129985824,0.0,0.0,0.0,0.0004363323129985824,-0.14626941084861755,0.03943314775824547,9.875393867492676,0.0004,0.0,0.0,0.0,0.0004,0.0,0.0,0.0,0.0004
2025/04/11 12:08:17.299958134,1744366097,287408391,mti/imu_base_body,0.7806594253321403,0.6248995076274794,0.006357869712368056,-0.005571759124987121,0.017453292519943295,0.0,0.0,0.0,0.017453292519943295,0.0,0.0,0.0,0.15707963267948966,0.005530715454369783,0.0038281194865703583,0.1255187839269638,0.0004363323129985824,0.0,0.0,0.0,0.0004363323129985824,0.0,0.0,0.0,0.0004363323129985824,-0.19641117751598358,0.06745500862598419,9.825871467590332,0.0004,0.0,0.0,0.0,0.0004,0.0,0.0,0.0,0.0004
2025/04/11 12:08:17.338642432,1744366097,337558809,mti/imu_base_body,0.7810043444330252,0.6244682986835812,0.006356203211839589,-0.005581809447102768,0.017453292519943295,0.0,0.0,0.0,0.017453292519943295,0.0,0.0,0.0,0.15707963267948966,0.010829652659595013,0.0057014767080545425,0.11867275834083557,0.0004363323129985824,0.0,0.0,0.0,0.0004363323129985824,0.0,0.0,0.0,0.0004363323129985824,-0.19151288270950317,0.06540940701961517,9.731396675109863,0.0004,0.0,0.0,0.0,0.0004,0.0,0.0,0.0,0.0004
2025/04/11 12:08:17.391238085,1744366097,389853593,mti/imu_base_body,0.7813925760008883,0.6239825976733008,0.006338596518891393,-0.005584099367505258,0.017453292519943295,0.0,0.0,0.0,0.017453292519943295,0.0,0.0,0.0,0.15707963267948966,0.011797021143138409,0.0002791081788018346,0.11340247839689255,0.0004363323129985824,0.0,0.0,0.0,0.0004363323129985824,0.0,0.0,0.0,0.0004363323129985824,-0.15752920508384705,0.06755978614091873,9.810108184814453,0.0004,0.0,0.0,0.0,0.0004,0.0,0.0,0.0,0.0004
2025/04/11 12:08:17.438593244,1744366097,438245402,mti/imu_base_body,0.7817590973956532,0.6235234996806167,0.0063449074483500935,-0.005558878901485046,0.017453292519943295,0.0,0.0,0.0,0.017453292519943295,0.0,0.0,0.0,0.15707963267948966,0.005153454840183258,0.0018607203382998705,0.11684221774339676,0.0004363323129985824,0.0,0.0,0.0,0.0004363323129985824,0.0,0.0,0.0,0.0004363323129985824,-0.14438292384147644,0.05581967905163765,9.876466751098633,0.0004,0.0,0.0,0.0,0.0004,0.0,0.0,0.0,0.0004
2025/04/11 12:08:17.489418452,1744366097,487424555,mti/imu_base_body,0.7821169165869435,0.6230742170640802,0.006361517301084652,-0.0055838979345462095,0.017453292519943295,0.0,0.0,0.0,0.017453292519943295,0.0,0.0,0.0,0.15707963267948966,0.011074049398303032,0.011914745904505253,0.11757048964500427,0.0004363323129985824,0.0,0.0,0.0,0.0004363323129985824,0.0,0.0,0.0,0.0004363323129985824,-0.14990070462226868,0.042678672820329666,9.854864120483398,0.0004,0.0,0.0,0.0,0.0004,0.0,0.0,0.0,0.0004
2025/04/11 12:08:17.541900516,1744366097,541511751,mti/imu_base_body,0.7824813086539653,0.6226162522798462,0.006381558080356176,-0.005592827607194637,0.017453292519943295,0.0,0.0,0.0,0.017453292519943295,0.0,0.0,0.0,0.15707963267948966,0.00851362943649292,0.006631708238273859,0.12073131650686264,0.0004363323129985824,0.0,0.0,0.0,0.0004363323129985824,0.0,0.0,0.0,0.0004363323129985824,-0.17818784713745117,0.06190583109855652,9.748062133789062,0.0004,0.0,0.0,0.0,0.0004,0.0,0.0,0.0,0.0004
2025/04/11 12:08:17.623719106,1744366097,587513566,mti/imu_base_body,0.7828538758216366,0.622147866793257,0.006388758542420829,-0.005569983835503685,0.017453292519943295,0.0,0.0,0.0,0.017453292519943295,0.0,0.0,0.0,0.15707963267948966,0.004819405730813742,-0.0017435946501791477,0.11458402127027512,0.0004363323129985824,0.0,0.0,0.0,0.0004363323129985824,0.0,0.0,0.0,0.0004363323129985824,-0.1795957237482071,0.04814612865447998,9.79812240600586,0.0004,0.0,0.0,0.0,0.0004,0.0,0.0,0.0,0.0004
2025/04/11 12:08:17.666934758,1744366097,637385818,mti/imu_base_body,0.7831946262306514,0.6217186868528907,0.006398165487845118,-0.005578112560516276,0.017453292519943295,0.0,0.0,0.0,0.017453292519943295,0.0,0.0,0.0,0.15707963267948966,0.004069926682859659,0.010390565730631351,0.11501285433769226,0.0004363323129985824,0.0,0.0,0.0,0.0004363323129985824,0.0,0.0,0.0,0.0004363323129985824,-0.15556256473064423,0.0669037327170372,9.85631275177002,0.0004,0.0,0.0,0.0,0.0004,0.0,0.0,0.0,0.0004
2025/04/11 12:08:17.691682130,1744366097,687551119,mti/imu_base_body,0.7835395387879867,0.6212835301649777,0.006442390878506205,-0.005573320502254112,0.017453292519943295,0.0,0.0,0.0,0.017453292519943295,0.0,0.0,0.0,0.15707963267948966,0.008848738856613636,0.007154450751841068,0.10652779787778854,0.0004363323129985824,0.0,0.0,0.0,0.0004363323129985824,0.0,0.0,0.0,0.0004363323129985824,-0.1461981236934662,0.05457127094268799,9.854613304138184,0.0004,0.0,0.0,0.0,0.0004,0.0,0.0,0.0,0.0004
2025/04/11 12:08:17.747970358,1744366097,737885000,mti/imu_base_body,0.783880321174559,0.6208529660091312,0.006480492787378509,-0.005589265261865794,0.017453292519943295,0.0,0.0,0.0,0.017453292519943295,0.0,0.0,0.0,0.15707963267948966,0.009539992548525333,0.014512667432427406,0.11767418682575226,0.0004363323129985824,0.0,0.0,0.0,0.0004363323129985824,0.0,0.0,0.0,0.0004363323129985824,-0.16980278491973877,0.07292316854000092,9.779975891113281,0.0004,0.0,0.0,0.0,0.0004,0.0,0.0,0.0,0.0004
2025/04/11 12:08:17.852393810,1744366097,787532414,mti/imu_base_body,0.7842364016527998,0.6204029822604307,0.0064990612702980465,-0.005582842254349371,0.017453292519943295,0.0,0.0,0.0,0.017453292519943295,0.0,0.0,0.0,0.15707963267948966,0.006188815459609032,0.006052040960639715,0.10873311758041382,0.0004363323129985824,0.0,0.0,0.0,0.0004363323129985824,0.0,0.0,0.0,0.0004363323129985824,-0.17236287891864777,0.04377119988203049,9.784067153930664,0.0004,0.0,0.0,0.0,0.0004,0.0,0.0,0.0,0.0004
2025/04/11 12:08:17.905535866,1744366097,838155903,mti/imu_base_body,0.7846011785586784,0.6199410949446102,0.006525926582836873,-0.005607288600203315,0.017453292519943295,0.0,0.0,0.0,0.017453292519943295,0.0,0.0,0.0,0.15707963267948966,0.009263831190764904,0.015546451322734356,0.11696575582027435,0.0004363323129985824,0.0,0.0,0.0,0.0004363323129985824,0.0,0.0,0.0,0.0004363323129985824,-0.1544153094291687,0.04858427494764328,9.842138290405273,0.0004,0.0,0.0,0.0,0.0004,0.0,0.0,0.0,0.0004
2025/04/11 12:08:17.921944521,1744366097,890448102,mti/imu_base_body,0.784947422143361,0.6195024325517897,0.006573791004234631,-0.005573670670235266,0.017453292519943295,0.0,0.0,0.0,0.017453292519943295,0.0,0.0,0.0,0.15707963267948966,-0.005270504858344793,0.004080296494066715,0.11477585881948471,0.0004363323129985824,0.0,0.0,0.0,0.0004363323129985824,0.0,0.0,0.0,0.0004363323129985824,-0.15745887160301208,0.05502638965845108,9.855117797851562,0.0004,0.0,0.0,0.0,0.0004,0.0,0.0,0.0,0.0004
2025/04/11 12:08:17.959856468,1744366097,938590555,mti/imu_base_body,0.7852895727998096,0.6190681724837218,0.006636433720735841,-0.005553594964292027,0.017453292519943295,0.0,0.0,0.0,0.017453292519943295,0.0,0.0,0.0,0.15707963267948966,-0.003660239279270172,0.01052174624055624,0.11507218331098557,0.0004363323129985824,0.0,0.0,0.0,0.0004363323129985824,0.0,0.0,0.0,0.0004363323129985824,-0.16154950857162476,0.058143049478530884,9.78825569152832,0.0004,0.0,0.0,0.0,0.0004,0.0,0.0,0.0,0.0004
2025/04/11 12:08:17.988313861,1744366097,988030424,mti/imu_base_body,0.785653917044518,0.6186057503580853,0.00666141912706063,-0.005520303590333032,0.017453292519943295,0.0,0.0,0.0,0.017453292519943295,0.0,0.0,0.0,0.15707963267948966,0.0021663245279341936,0.003100687637925148,0.11643727868795395,0.0004363323129985824,0.0,0.0,0.0,0.0004363323129985824,0.0,0.0,0.0,0.0004363323129985824,-0.16806761920452118,0.06748029589653015,9.771709442138672,0.0004,0.0,0.0,0.0,0.0004,0.0,0.0,0.0,0.0004
2025/04/11 12:08:18.55383715,1744366098,38121792,mti/imu_base_body,0.7860016757678321,0.6181635380797084,0.006681144086844472,-0.005528850931908943,0.017453292519943295,0.0,0.0,0.0,0.017453292519943295,0.0,0.0,0.0,0.15707963267948966,0.006865381263196468,0.0058500682935118675,0.11157352477312088,0.0004363323129985824,0.0,0.0,0.0,0.0004363323129985824,0.0,0.0,0.0,0.0004363323129985824,-0.15167804062366486,0.05447249859571457,9.863749504089355,0.0004,0.0,0.0,0.0,0.0004,0.0,0.0,0.0,0.0004
2025/04/11 12:08:18.121538096,1744366098,88382020,mti/imu_base_body,0.7863554471332701,0.6177132275178212,0.006711371937631307,-0.005516955688237842,0.017453292519943295,0.0,0.0,0.0,0.017453292519943295,0.0,0.0,0.0,0.15707963267948966,0.010231957770884037,0.010207979008555412,0.11157242208719254,0.0004363323129985824,0.0,0.0,0.0,0.0004363323129985824,0.0,0.0,0.0,0.0004363323129985824,-0.14756247401237488,0.062357187271118164,9.85737419128418,0.0004,0.0,0.0,0.0,0.0004,0.0,0.0,0.0,0.0004
2025/04/11 12:08:18.179225985,1744366098,137959503,mti/imu_base_body,0.7867077550860488,0.6172642807841549,0.0067297613148638545,-0.00551598297083878,0.017453292519943295,0.0,0.0,0.0,0.017453292519943295,0.0,0.0,0.0,0.15707963267948966,0.005053841508924961,0.005583235528320074,0.11467265337705612,0.0004363323129985824,0.0,0.0,0.0,0.0004363323129985824,0.0,0.0,0.0,0.0004363323129985824,-0.1649685949087143,0.06157432124018669,9.766053199768066,0.0004,0.0,0.0,0.0,0.0004,0.0,0.0,0.0,0.0004
2025/04/11 12:08:18.213029477,1744366098,188616797,mti/imu_base_body,0.7870450152180944,0.6168338560965391,0.006758226160580771,-0.005519454011570187,0.017453292519943295,0.0,0.0,0.0,0.017453292519943295,0.0,0.0,0.0,0.15707963267948966,0.010285529308021069,0.010810868814587593,0.10865902155637741,0.0004363323129985824,0.0,0.0,0.0,0.0004363323129985824,0.0,0.0,0.0,0.0004363323129985824,-0.18368370831012726,0.06691170483827591,9.798360824584961,0.0004,0.0,0.0,0.0,0.0004,0.0,0.0,0.0,0.0004
2025/04/11 12:08:18.244401679,1744366098,238649023,mti/imu_base_body,0.7873703351745708,0.6164178880594439,0.006781549864335884,-0.005563555415054589,0.017453292519943295,0.0,0.0,0.0,0.017453292519943295,0.0,0.0,0.0,0.15707963267948966,0.013382051140069962,0.010583627969026566,0.10783510655164719,0.0004363323129985824,0.0,0.0,0.0,0.0004363323129985824,0.0,0.0,0.0,0.0004363323129985824,-0.15917302668094635,0.058241408318281174,9.842860221862793,0.0004,0.0,0.0,0.0,0.0004,0.0,0.0,0.0,0.0004
2025/04/11 12:08:18.310782383,1744366098,288567546,mti/imu_base_body,0.7876944724529699,0.6160034848156565,0.006791069364324328,-0.005568315624465641,0.017453292519943295,0.0,0.0,0.0,0.017453292519943295,0.0,0.0,0.0,0.15707963267948966,0.004533519968390465,0.007439146284013987,0.10601724684238434,0.0004363323129985824,0.0,0.0,0.0,0.0004363323129985824,0.0,0.0,0.0,0.0004363323129985824,-0.156712606549263,0.056710995733737946,9.838189125061035,0.0004,0.0,0.0,0.0,0.0004,0.0,0.0,0.0,0.0004
2025/04/11 12:08:18.338921637,1744366098,338401007,mti/imu_base_body,0.788030778285816,0.6155731146224668,0.006815382068557219,-0.00554829663102655,0.017453292519943295,0.0,0.0,0.0,0.017453292519943295,0.0,0.0,0.0,0.15707963267948966,0.006743827369064093,0.004651959054172039,0.11107569932937622,0.0004363323129985824,0.0,0.0,0.0,0.0004363323129985824,0.0,0.0,0.0,0.0004363323129985824,-0.15561190247535706,0.05199906975030899,9.776724815368652,0.0004,0.0,0.0,0.0,0.0004,0.0,0.0,0.0,0.0004
2025/04/11 12:08:18.459758757,1744366098,387439414,mti/imu_base_body,0.788387792969391,0.6151160413190779,0.0068088419753789195,-0.005530215163396943,0.017453292519943295,0.0,0.0,0.0,0.017453292519943295,0.0,0.0,0.0,0.15707963267948966,0.005771483760327101,-0.00011460263340268284,0.11434919387102127,0.0004363323129985824,0.0,0.0,0.0,0.0004363323129985824,0.0,0.0,0.0,0.0004363323129985824,-0.17769594490528107,0.0595235750079155,9.80256462097168,0.0004,0.0,0.0,0.0,0.0004,0.0,0.0,0.0,0.0004
2025/04/11 12:08:18.555662392,1744366098,439242249,mti/imu_base_body,0.7887204066224622,0.6146894218883168,0.006832080239983789,-0.005509761836887825,0.017453292519943295,0.0,0.0,0.0,0.017453292519943295,0.0,0.0,0.0,0.15707963267948966,0.001106396084651351,0.005676129832863808,0.1098758652806282,0.0004363323129985824,0.0,0.0,0.0,0.0004363323129985824,0.0,0.0,0.0,0.0004363323129985824,-0.1482236683368683,0.04452725499868393,9.825568199157715,0.0004,0.0,0.0,0.0,0.0004,0.0,0.0,0.0,0.0004
2025/04/11 12:08:18.638401717,1744366098,590028459,mti/imu_base_body,0.7897498830764162,0.613366055402708,0.00687116771747825,-0.005476432662523453,0.017453292519943295,0.0,0.0,0.0,0.017453292519943295,0.0,0.0,0.0,0.15707963267948966,0.0008035199134610593,0.0034008678048849106,0.1097913607954979,0.0004363323129985824,0.0,0.0,0.0,0.0004363323129985824,0.0,0.0,0.0,0.0004363323129985824,-0.1662210077047348,0.059703242033720016,9.799676895141602,0.0004,0.0,0.0,0.0,0.0004,0.0,0.0,0.0,0.0004
2025/04/11 12:08:18.793689346,1744366098,638709165,mti/imu_base_body,0.7900794470459495,0.6129414142217314,0.006861662098179079,-0.0054961514426887965,0.017453292519943295,0.0,0.0,0.0,0.017453292519943295,0.0,0.0,0.0,0.15707963267948966,0.01716872677206993,0.000425506557803601,0.10456708818674088,0.0004363323129985824,0.0,0.0,0.0,0.0004363323129985824,0.0,0.0,0.0,0.0004363323129985824,-0.1692141443490982,0.052809227257966995,9.833037376403809,0.0004,0.0,0.0,0.0,0.0004,0.0,0.0,0.0,0.0004
2025/04/11 12:08:18.861744161,1744366098,688214539,mti/imu_base_body,0.7904189661091423,0.6125038350462857,0.006846752293328897,-0.00548015068961012,0.017453292519943295,0.0,0.0,0.0,0.017453292519943295,0.0,0.0,0.0,0.15707963267948966,0.0062629892490804195,0.0013311714865267277,0.11371710151433945,0.0004363323129985824,0.0,0.0,0.0,0.0004363323129985824,0.0,0.0,0.0,0.0004363323129985824,-0.17274193465709686,0.05014272779226303,9.820682525634766,0.0004,0.0,0.0,0.0,0.0004,0.0,0.0,0.0,0.0004
2025/04/11 12:08:18.956816460,1744366098,890683345,mti/imu_base_body,0.7917376890178491,0.610797494486671,0.006912941855383491,-0.005483042256332495,0.017453292519943295,0.0,0.0,0.0,0.017453292519943295,0.0,0.0,0.0,0.15707963267948966,0.008074487559497356,0.004738559015095234,0.11491561681032181,0.0004363323129985824,0.0,0.0,0.0,0.0004363323129985824,0.0,0.0,0.0,0.0004363323129985824,-0.17875725030899048,0.052235815674066544,9.833885192871094,0.0004,0.0,0.0,0.0,0.0004,0.0,0.0,0.0,0.0004
2025/04/11 12:08:19.49352155,1744366098,937677867,mti/imu_base_body,0.7920850184837918,0.6103467620739758,0.006926423502859096,-0.0054934667382202425,0.017453292519943295,0.0,0.0,0.0,0.017453292519943295,0.0,0.0,0.0,0.15707963267948966,0.008669150993227959,0.011011217720806599,0.10949636250734329,0.0004363323129985824,0.0,0.0,0.0,0.0004363323129985824,0.0,0.0,0.0,0.0004363323129985824,-0.1679694801568985,0.051889434456825256,9.785262107849121,0.0004,0.0,0.0,0.0,0.0004,0.0,0.0,0.0,0.0004
2025/04/11 12:08:19.52130695,1744366098,988372596,mti/imu_base_body,0.7924246331329456,0.6099055105975268,0.006931582581305741,-0.005515624153738004,0.017453292519943295,0.0,0.0,0.0,0.017453292519943295,0.0,0.0,0.0,0.15707963267948966,0.012839918956160545,0.009152463637292385,0.11718779802322388,0.0004363323129985824,0.0,0.0,0.0,0.0004363323129985824,0.0,0.0,0.0,0.0004363323129985824,-0.1601226031780243,0.07458730041980743,9.793649673461914,0.0004,0.0,0.0,0.0,0.0004,0.0,0.0,0.0,0.0004
2025/04/11 12:08:19.137439912,1744366099,90142124,mti/imu_base_body,0.7931116851738008,0.6090114658154248,0.006971828773701531,-0.005502994609470268,0.017453292519943295,0.0,0.0,0.0,0.017453292519943295,0.0,0.0,0.0,0.15707963267948966,-0.00041171928751282394,0.004826890304684639,0.11070366948843002,0.0004363323129985824,0.0,0.0,0.0,0.0004363323129985824,0.0,0.0,0.0,0.0004363323129985824,-0.16729073226451874,0.06946691125631332,9.827641487121582,0.0004,0.0,0.0,0.0,0.0004,0.0,0.0,0.0,0.0004
2025/04/11 12:08:19.168340911,1744366099,137667022,mti/imu_base_body,0.7934455920248144,0.6085760460231263,0.007001893635421845,-0.005501107958168427,0.017453292519943295,0.0,0.0,0.0,0.017453292519943295,0.0,0.0,0.0,0.15707963267948966,0.009763278067111969,0.010286456905305386,0.11537899821996689,0.0004363323129985824,0.0,0.0,0.0,0.0004363323129985824,0.0,0.0,0.0,0.0004363323129985824,-0.17541101574897766,0.06616898626089096,9.79475212097168,0.0004,0.0,0.0,0.0,0.0004,0.0,0.0,0.0,0.0004
2025/04/11 12:08:19.221467145,1744366099,188504186,mti/imu_base_body,0.7937457399829785,0.608183874065083,0.007054433725732112,-0.005505501872698564,0.017453292519943295,0.0,0.0,0.0,0.017453292519943295,0.0,0.0,0.0,0.15707963267948966,0.005567292682826519,0.010915291495621204,0.0939788669347763,0.0004363323129985824,0.0,0.0,0.0,0.0004363323129985824,0.0,0.0,0.0,0.0004363323129985824,-0.18316666781902313,0.04494772478938103,9.779995918273926,0.0004,0.0,0.0,0.0,0.0004,0.0,0.0,0.0,0.0004
2025/04/11 12:08:19.245576080,1744366099,239554083,mti/imu_base_body,0.7940861564120725,0.6077391309104543,0.007086148132496254,-0.005487390960351285,0.017453292519943295,0.0,0.0,0.0,0.017453292519943295,0.0,0.0,0.0,0.15707963267948966,0.0003043775795958936,0.0038117538206279278,0.1120932474732399,0.0004363323129985824,0.0,0.0,0.0,0.0004363323129985824,0.0,0.0,0.0,0.0004363323129985824,-0.17153851687908173,0.04504024609923363,9.827281951904297,0.0004,0.0,0.0,0.0,0.0004,0.0,0.0,0.0,0.0004
2025/04/11 12:08:19.300652697,1744366099,287644090,mti/imu_base_body,0.7944363520275736,0.6072815237729537,0.0070737140069508765,-0.005476863269107517,0.017453292519943295,0.0,0.0,0.0,0.017453292519943295,0.0,0.0,0.0,0.15707963267948966,0.010435945354402065,0.006438473239541054,0.12077901512384415,0.0004363323129985824,0.0,0.0,0.0,0.0004363323129985824,0.0,0.0,0.0,0.0004363323129985824,-0.16944123804569244,0.05211871862411499,9.861855506896973,0.0004,0.0,0.0,0.0,0.0004,0.0,0.0,0.0,0.0004
2025/04/11 12:08:19.338237560,1744366099,337798513,mti/imu_base_body,0.7947763005639141,0.6068360958024202,0.007092810257708047,-0.005502448169930474,0.017453292519943295,0.0,0.0,0.0,0.017453292519943295,0.0,0.0,0.0,0.15707963267948966,0.005206494592130184,0.008600794710218906,0.1088772639632225,0.0004363323129985824,0.0,0.0,0.0,0.0004363323129985824,0.0,0.0,0.0,0.0004363323129985824,-0.16238141059875488,0.056428276002407074,9.785974502563477,0.0004,0.0,0.0,0.0,0.0004,0.0,0.0,0.0,0.0004
2025/04/11 12:08:19.407754729,1744366099,390595240,mti/imu_base_body,0.7951109528884759,0.6063973925747321,0.007105728286605186,-0.005503044690251941,0.017453292519943295,0.0,0.0,0.0,0.017453292519943295,0.0,0.0,0.0,0.15707963267948966,0.01727226749062538,0.007683295290917158,0.1111956536769867,0.0004363323129985824,0.0,0.0,0.0,0.0004363323129985824,0.0,0.0,0.0,0.0004363323129985824,-0.17314253747463226,0.053209200501441956,9.781900405883789,0.0004,0.0,0.0,0.0,0.0004,0.0,0.0,0.0,0.0004
2025/04/11 12:08:19.475408879,1744366099,437555373,mti/imu_base_body,0.7954273977755018,0.6059820305381538,0.007118739527745057,-0.005509725990072489,0.017453292519943295,0.0,0.0,0.0,0.017453292519943295,0.0,0.0,0.0,0.15707963267948966,0.004154770635068417,0.005381328985095024,0.10331908613443375,0.0004363323129985824,0.0,0.0,0.0,0.0004363323129985824,0.0,0.0,0.0,0.0004363323129985824,-0.15584024786949158,0.032846882939338684,9.83542537689209,0.0004,0.0,0.0,0.0,0.0004,0.0,0.0,0.0,0.0004
2025/04/11 12:08:19.491280752,1744366099,490877741,mti/imu_base_body,0.7957613238716261,0.6055430110561939,0.00715372149378481,-0.005513751886353422,0.017453292519943295,0.0,0.0,0.0,0.017453292519943295,0.0,0.0,0.0,0.15707963267948966,0.007222193758934736,0.009336231276392937,0.1068369671702385,0.0004363323129985824,0.0,0.0,0.0,0.0004363323129985824,0.0,0.0,0.0,0.0004363323129985824,-0.15869681537151337,0.04528583213686943,9.843828201293945,0.0004,0.0,0.0,0.0,0.0004,0.0,0.0,0.0,0.0004
2025/04/11 12:08:19.593403544,1744366099,537668600,mti/imu_base_body,0.7960780278000071,0.6051262169816577,0.007193865426670598,-0.005503042407758168,0.017453292519943295,0.0,0.0,0.0,0.017453292519943295,0.0,0.0,0.0,0.15707963267948966,-0.0015326963039115071,0.010044004768133163,0.10652416944503784,0.0004363323129985824,0.0,0.0,0.0,0.0004363323129985824,0.0,0.0,0.0,0.0004363323129985824,-0.18542933464050293,0.06339475512504578,9.747346878051758,0.0004,0.0,0.0,0.0,0.0004,0.0,0.0,0.0,0.0004
2025/04/11 12:08:19.643594501,1744366099,590261575,mti/imu_base_body,0.7963849412864258,0.6047220860888985,0.0072155971377973515,-0.005491725270965237,0.017453292519943295,0.0,0.0,0.0,0.017453292519943295,0.0,0.0,0.0,0.15707963267948966,0.01180950179696083,0.009507170878350735,0.10409551858901978,0.0004363323129985824,0.0,0.0,0.0,0.0004363323129985824,0.0,0.0,0.0,0.0004363323129985824,-0.1927340179681778,0.06409074366092682,9.788174629211426,0.0004,0.0,0.0,0.0,0.0004,0.0,0.0,0.0,0.0004
2025/04/11 12:08:19.672479053,1744366099,637501468,mti/imu_base_body,0.7967011367606793,0.6043046524705871,0.007241107987795975,-0.005545452348840357,0.017453292519943295,0.0,0.0,0.0,0.017453292519943295,0.0,0.0,0.0,0.15707963267948966,0.012619725428521633,0.010717191733419895,0.10629498958587646,0.0004363323129985824,0.0,0.0,0.0,0.0004363323129985824,0.0,0.0,0.0,0.0004363323129985824,-0.1527635157108307,0.05551547929644585,9.842854499816895,0.0004,0.0,0.0,0.0,0.0004,0.0,0.0,0.0,0.0004
2025/04/11 12:08:19.697225728,1744366099,694074412,mti/imu_base_body,0.7970269478016581,0.6038749351564638,0.007267199861707873,-0.005504087019625423,0.017453292519943295,0.0,0.0,0.0,0.017453292519943295,0.0,0.0,0.0,0.15707963267948966,0.0009854324162006378,0.0028507697861641645,0.11008167266845703,0.0004363323129985824,0.0,0.0,0.0,0.0004363323129985824,0.0,0.0,0.0,0.0004363323129985824,-0.14306138455867767,0.05266599357128143,9.84382152557373,0.0004,0.0,0.0,0.0,0.0004,0.0,0.0,0.0,0.0004
2025/04/11 12:08:19.751423334,1744366099,739834247,mti/imu_base_body,0.797351424437916,0.6034459470759183,0.007299850261612048,-0.005514262474039043,0.017453292519943295,0.0,0.0,0.0,0.017453292519943295,0.0,0.0,0.0,0.15707963267948966,0.006060675252228975,0.007658647373318672,0.10449668765068054,0.0004363323129985824,0.0,0.0,0.0,0.0004363323129985824,0.0,0.0,0.0,0.0004363323129985824,-0.17304690182209015,0.06444797664880753,9.777582168579102,0.0004,0.0,0.0,0.0,0.0004,0.0,0.0,0.0,0.0004
2025/04/11 12:08:19.788420110,1744366099,787558617,mti/imu_base_body,0.7976571072105418,0.6030419593983858,0.00730556266558743,-0.005492110305230019,0.017453292519943295,0.0,0.0,0.0,0.017453292519943295,0.0,0.0,0.0,0.15707963267948966,0.00045637344010174274,0.006263402756303549,0.10147495567798615,0.0004363323129985824,0.0,0.0,0.0,0.0004363323129985824,0.0,0.0,0.0,0.0004363323129985824,-0.16546377539634705,0.06984306871891022,9.78250503540039,0.0004,0.0,0.0,0.0,0.0004,0.0,0.0,0.0,0.0004
2025/04/11 12:08:19.839069727,1744366099,838069654,mti/imu_base_body,0.7979730264634235,0.6026232302221866,0.00737113337289655,-0.0054733742956880075,0.017453292519943295,0.0,0.0,0.0,0.017453292519943295,0.0,0.0,0.0,0.15707963267948966,-0.00024073275562841445,0.010704427026212215,0.10853181779384613,0.0004363323129985824,0.0,0.0,0.0,0.0004363323129985824,0.0,0.0,0.0,0.0004363323129985824,-0.1809704750776291,0.04858032241463661,9.849369049072266,0.0004,0.0,0.0,0.0,0.0004,0.0,0.0,0.0,0.0004
2025/04/11 12:08:19.888793218,1744366099,887679616,mti/imu_base_body,0.7982984216128433,0.6021918748634836,0.0073992398865755935,-0.005461423619016022,0.017453292519943295,0.0,0.0,0.0,0.017453292519943295,0.0,0.0,0.0,0.15707963267948966,0.005826151464134455,0.008657407015562057,0.10894166678190231,0.0004363323129985824,0.0,0.0,0.0,0.0004363323129985824,0.0,0.0,0.0,0.0004363323129985824,-0.17162036895751953,0.06187247857451439,9.82176399230957,0.0004,0.0,0.0,0.0,0.0004,0.0,0.0,0.0,0.0004
2025/04/11 12:08:19.941978048,1744366099,937662830,mti/imu_base_body,0.7986265728533711,0.601756420500105,0.007401224547014681,-0.005479908264229521,0.017453292519943295,0.0,0.0,0.0,0.017453292519943295,0.0,0.0,0.0,0.15707963267948966,0.014925433322787285,0.002595288911834359,0.10885707288980484,0.0004363323129985824,0.0,0.0,0.0,0.0004363323129985824,0.0,0.0,0.0,0.0004363323129985824,-0.1796625852584839,0.06553715467453003,9.784198760986328,0.0004,0.0,0.0,0.0,0.0004,0.0,0.0,0.0,0.0004
2025/04/11 12:08:19.989855818,1744366099,989487449,mti/imu_base_body,0.7989286597802221,0.6013554870822584,0.007378764393241526,-0.005488950160730267,0.017453292519943295,0.0,0.0,0.0,0.017453292519943295,0.0,0.0,0.0,0.15707963267948966,0.011923686601221561,0.0004626887966878712,0.10052933543920517,0.0004363323129985824,0.0,0.0,0.0,0.0004363323129985824,0.0,0.0,0.0,0.0004363323129985824,-0.15769170224666595,0.07089158147573471,9.80733871459961,0.0004,0.0,0.0,0.0,0.0004,0.0,0.0,0.0,0.0004
2025/04/11 12:08:20.37657593,1744366100,37362182,mti/imu_base_body,0.7992529500866628,0.6009246665996402,0.007383323915270605,-0.005454665694607728,0.017453292519943295,0.0,0.0,0.0,0.017453292519943295,0.0,0.0,0.0,0.15707963267948966,0.0025418084114789963,0.0025089625269174576,0.10397695749998093,0.0004363323129985824,0.0,0.0,0.0,0.0004363323129985824,0.0,0.0,0.0,0.0004363323129985824,-0.14762215316295624,0.049247074872255325,9.861226081848145,0.0004,0.0,0.0,0.0,0.0004,0.0,0.0,0.0,0.0004
2025/04/11 12:08:20.101675679,1744366100,87481987,mti/imu_base_body,0.7995659508049647,0.6005082212644287,0.007392451513877315,-0.005433062469674619,0.017453292519943295,0.0,0.0,0.0,0.017453292519943295,0.0,0.0,0.0,0.15707963267948966,0.005656241439282894,0.0058006527833640575,0.11222994327545166,0.0004363323129985824,0.0,0.0,0.0,0.0004363323129985824,0.0,0.0,0.0,0.0004363323129985824,-0.1806262880563736,0.054955996572971344,9.781201362609863,0.0004,0.0,0.0,0.0,0.0004,0.0,0.0,0.0,0.0004
2025/04/11 12:08:20.148046015,1744366100,137541404,mti/imu_base_body,0.7998787029731507,0.6000906984166312,0.007430528710237373,-0.00547735765821768,0.017453292519943295,0.0,0.0,0.0,0.017453292519943295,0.0,0.0,0.0,0.15707963267948966,0.010560930706560612,0.009463127702474594,0.10133737325668335,0.0004363323129985824,0.0,0.0,0.0,0.0004363323129985824,0.0,0.0,0.0,0.0004363323129985824,-0.1733764410018921,0.04785401374101639,9.761855125427246,0.0004,0.0,0.0,0.0,0.0004,0.0,0.0,0.0,0.0004
2025/04/11 12:08:20.212893266,1744366100,188405846,mti/imu_base_body,0.800221351519563,0.5996337863556876,0.007434220344730869,-0.0054628930807452975,0.017453292519943295,0.0,0.0,0.0,0.017453292519943295,0.0,0.0,0.0,0.15707963267948966,0.00726791238412261,0.008171476423740387,0.11204498261213303,0.0004363323129985824,0.0,0.0,0.0,0.0004363323129985824,0.0,0.0,0.0,0.0004363323129985824,-0.15455564856529236,0.05424198508262634,9.807697296142578,0.0004,0.0,0.0,0.0,0.0004,0.0,0.0,0.0,0.0004
2025/04/11 12:08:20.268463370,1744366100,237499312,mti/imu_base_body,0.8005214149810967,0.5992328658835798,0.007457703060228802,-0.005460702031755586,0.017453292519943295,0.0,0.0,0.0,0.017453292519943295,0.0,0.0,0.0,0.15707963267948966,0.006449897773563862,0.004997755400836468,0.10140921920537949,0.0004363323129985824,0.0,0.0,0.0,0.0004363323129985824,0.0,0.0,0.0,0.0004363323129985824,-0.1604125201702118,0.05981963872909546,9.845632553100586,0.0004,0.0,0.0,0.0,0.0004,0.0,0.0,0.0,0.0004
2025/04/11 12:08:20.293840398,1744366100,287565396,mti/imu_base_body,0.8008345908616994,0.5988144832248306,0.00744209446029479,-0.0054578374469918065,0.017453292519943295,0.0,0.0,0.0,0.017453292519943295,0.0,0.0,0.0,0.15707963267948966,0.00981236808001995,-0.0009930391097441316,0.10683660209178925,0.0004363323129985824,0.0,0.0,0.0,0.0004363323129985824,0.0,0.0,0.0,0.0004363323129985824,-0.17132768034934998,0.030687222257256508,9.835204124450684,0.0004,0.0,0.0,0.0,0.0004,0.0,0.0,0.0,0.0004
2025/04/11 12:08:20.337663259,1744366100,337322773,mti/imu_base_body,0.801139397811544,0.5984067831206132,0.007446667305140955,-0.005434550160098589,0.017453292519943295,0.0,0.0,0.0,0.017453292519943295,0.0,0.0,0.0,0.15707963267948966,0.005583297461271286,0.0035845565143972635,0.10162407904863358,0.0004363323129985824,0.0,0.0,0.0,0.0004363323129985824,0.0,0.0,0.0,0.0004363323129985824,-0.17404253780841827,0.05130964517593384,9.765704154968262,0.0004,0.0,0.0,0.0,0.0004,0.0,0.0,0.0,0.0004
2025/04/11 12:08:20.387607410,1744366100,387337339,mti/imu_base_body,0.8014532840312183,0.5979858388650161,0.007496981935863612,-0.005418975395012097,0.017453292519943295,0.0,0.0,0.0,0.017453292519943295,0.0,0.0,0.0,0.15707963267948966,0.003954780288040638,0.01274061482399702,0.1055002361536026,0.0004363323129985824,0.0,0.0,0.0,0.0004363323129985824,0.0,0.0,0.0,0.0004363323129985824,-0.17301128804683685,0.06256899237632751,9.821510314941406,0.0004,0.0,0.0,0.0,0.0004,0.0,0.0,0.0,0.0004
2025/04/11 12:08:20.437927484,1744366100,437501179,mti/imu_base_body,0.801750925281983,0.5975866334770823,0.007531924835865145,-0.0053795359723953235,0.017453292519943295,0.0,0.0,0.0,0.017453292519943295,0.0,0.0,0.0,0.15707963267948966,0.0005774337914772332,0.002030543750151992,0.09705355763435364,0.0004363323129985824,0.0,0.0,0.0,0.0004363323129985824,0.0,0.0,0.0,0.0004363323129985824,-0.1300724297761917,0.07522844523191452,9.778024673461914,0.0004,0.0,0.0,0.0,0.0004,0.0,0.0,0.0,0.0004
2025/04/11 12:08:20.488072233,1744366100,487755533,mti/imu_base_body,0.8020677021147109,0.5971613569700167,0.007522762152612054,-0.005396574445961932,0.017453292519943295,0.0,0.0,0.0,0.017453292519943295,0.0,0.0,0.0,0.15707963267948966,0.011476333253085613,0.0036636493168771267,0.1104225441813469,0.0004363323129985824,0.0,0.0,0.0,0.0004363323129985824,0.0,0.0,0.0,0.0004363323129985824,-0.17638714611530304,0.05107387527823448,9.914909362792969,0.0004,0.0,0.0,0.0,0.0004,0.0,0.0,0.0,0.0004
2025/04/11 12:08:20.537852016,1744366100,537491061,mti/imu_base_body,0.8023626022369321,0.5967650620155263,0.007525501810567941,-0.005392783296480774,0.017453292519943295,0.0,0.0,0.0,0.017453292519943295,0.0,0.0,0.0,0.15707963267948966,0.006387726403772831,0.00747988885268569,0.09814638644456863,0.0004363323129985824,0.0,0.0,0.0,0.0004363323129985824,0.0,0.0,0.0,0.0004363323129985824,-0.17371144890785217,0.06127987429499626,9.69692325592041,0.0004,0.0,0.0,0.0,0.0004,0.0,0.0,0.0,0.0004
2025/04/11 12:08:20.587772526,1744366100,587442211,mti/imu_base_body,0.8026564940350739,0.596369463114674,0.0075466098153399025,-0.005391171295160882,0.017453292519943295,0.0,0.0,0.0,0.017453292519943295,0.0,0.0,0.0,0.15707963267948966,0.0103943832218647,0.005713794846087694,0.1015952080488205,0.0004363323129985824,0.0,0.0,0.0,0.0004363323129985824,0.0,0.0,0.0,0.0004363323129985824,-0.16849756240844727,0.07226460427045822,9.853682518005371,0.0004,0.0,0.0,0.0,0.0004,0.0,0.0,0.0,0.0004
2025/04/11 12:08:20.639874725,1744366100,637497439,mti/imu_base_body,0.8029760348280109,0.5959387126561128,0.007589083129163907,-0.005379969044424808,0.017453292519943295,0.0,0.0,0.0,0.017453292519943295,0.0,0.0,0.0,0.15707963267948966,-0.0021101629827171564,0.008873810060322285,0.10243570804595947,0.0004363323129985824,0.0,0.0,0.0,0.0004363323129985824,0.0,0.0,0.0,0.0004363323129985824,-0.16510263085365295,0.08139394968748093,9.7803373336792,0.0004,0.0,0.0,0.0,0.0004,0.0,0.0,0.0,0.0004
2025/04/11 12:08:20.688341535,1744366100,687448598,mti/imu_base_body,0.8032693303649745,0.5955428900049478,0.007595640200398013,-0.005418054033133092,0.017453292519943295,0.0,0.0,0.0,0.017453292519943295,0.0,0.0,0.0,0.15707963267948966,0.017896123230457306,0.011979485861957073,0.10075230896472931,0.0004363323129985824,0.0,0.0,0.0,0.0004363323129985824,0.0,0.0,0.0,0.0004363323129985824,-0.18007883429527283,0.04990716278553009,9.846132278442383,0.0004,0.0,0.0,0.0,0.0004,0.0,0.0,0.0,0.0004
2025/04/11 12:08:20.737747982,1744366100,737426739,mti/imu_base_body,0.8035670188714372,0.595140488955409,0.007630564224673142,-0.005442341187472492,0.017453292519943295,0.0,0.0,0.0,0.017453292519943295,0.0,0.0,0.0,0.15707963267948966,0.009443342685699463,0.010554942302405834,0.1040370985865593,0.0004363323129985824,0.0,0.0,0.0,0.0004363323129985824,0.0,0.0,0.0,0.0004363323129985824,-0.18095923960208893,0.05928974226117134,9.78299331665039,0.0004,0.0,0.0,0.0,0.0004,0.0,0.0,0.0,0.0004
2025/04/11 12:08:20.788774245,1744366100,788180274,mti/imu_base_body,0.8038979228014095,0.5946935288851766,0.0076399864520625025,-0.005419135049701947,0.017453292519943295,0.0,0.0,0.0,0.017453292519943295,0.0,0.0,0.0,0.15707963267948966,0.0018865913152694702,0.00028227033908478916,0.11143988370895386,0.0004363323129985824,0.0,0.0,0.0,0.0004363323129985824,0.0,0.0,0.0,0.0004363323129985824,-0.1620638370513916,0.07214117050170898,9.81142807006836,0.0004,0.0,0.0,0.0,0.0004,0.0,0.0,0.0,0.0004
2025/04/11 12:08:20.839279522,1744366100,838482429,mti/imu_base_body,0.8042101674109032,0.5942714790947587,0.007625862561029377,-0.005409435058765171,0.017453292519943295,0.0,0.0,0.0,0.017453292519943295,0.0,0.0,0.0,0.15707963267948966,0.009737531654536724,0.00604837154969573,0.10514754056930542,0.0004363323129985824,0.0,0.0,0.0,0.0004363323129985824,0.0,0.0,0.0,0.0004363323129985824,-0.1583898514509201,0.07935920357704163,9.823906898498535,0.0004,0.0,0.0,0.0,0.0004,0.0,0.0,0.0,0.0004
2025/04/11 12:08:20.888121530,1744366100,887494933,mti/imu_base_body,0.8045381569169826,0.5938268203759166,0.007675023102202869,-0.005399582135142389,0.017453292519943295,0.0,0.0,0.0,0.017453292519943295,0.0,0.0,0.0,0.15707963267948966,7.347543578362092e-05,0.005247201770544052,0.110193632543087,0.0004363323129985824,0.0,0.0,0.0,0.0004363323129985824,0.0,0.0,0.0,0.0004363323129985824,-0.14490632712841034,0.04708428308367729,9.805763244628906,0.0004,0.0,0.0,0.0,0.0004,0.0,0.0,0.0,0.0004
2025/04/11 12:08:20.940379959,1744366100,939230887,mti/imu_base_body,0.804842955761196,0.5934136225059727,0.0077156803118532844,-0.005343918341953417,0.017453292519943295,0.0,0.0,0.0,0.017453292519943295,0.0,0.0,0.0,0.15707963267948966,-0.0015135913854464889,0.002293412573635578,0.09997960925102234,0.0004363323129985824,0.0,0.0,0.0,0.0004363323129985824,0.0,0.0,0.0,0.0004363323129985824,-0.17566485702991486,0.039781469851732254,9.815875053405762,0.0004,0.0,0.0,0.0,0.0004,0.0,0.0,0.0,0.0004
2025/04/11 12:08:20.987863982,1744366100,987529863,mti/imu_base_body,0.8051380978132883,0.5930133268156943,0.007704620554175994,-0.005336336823920547,0.017453292519943295,0.0,0.0,0.0,0.017453292519943295,0.0,0.0,0.0,0.15707963267948966,0.012293636798858643,0.006296883802860975,0.10361276566982269,0.0004363323129985824,0.0,0.0,0.0,0.0004363323129985824,0.0,0.0,0.0,0.0004363323129985824,-0.173272505402565,0.07667115330696106,9.765466690063477,0.0004,0.0,0.0,0.0,0.0004,0.0,0.0,0.0,0.0004
2025/04/11 12:08:21.38024213,1744366101,37555525,mti/imu_base_body,0.8054543700328233,0.5925837243316262,0.007713971688711265,-0.005318091111750037,0.017453292519943295,0.0,0.0,0.0,0.017453292519943295,0.0,0.0,0.0,0.15707963267948966,0.005437064915895462,0.0018612782005220652,0.10311572998762131,0.0004363323129985824,0.0,0.0,0.0,0.0004363323129985824,0.0,0.0,0.0,0.0004363323129985824,-0.18076466023921967,0.054265085607767105,9.794885635375977,0.0004,0.0,0.0,0.0,0.0004,0.0,0.0,0.0,0.0004
2025/04/11 12:08:21.88124208,1744366101,87818971,mti/imu_base_body,0.805771404156788,0.5921525577104787,0.007704246386783575,-0.005332656725112623,0.017453292519943295,0.0,0.0,0.0,0.017453292519943295,0.0,0.0,0.0,0.15707963267948966,0.010949487797915936,0.008750498294830322,0.10768889635801315,0.0004363323129985824,0.0,0.0,0.0,0.0004363323129985824,0.0,0.0,0.0,0.0004363323129985824,-0.16715675592422485,0.07173186540603638,9.869413375854492,0.0004,0.0,0.0,0.0,0.0004,0.0,0.0,0.0,0.0004
2025/04/11 12:08:21.138632592,1744366101,138337720,mti/imu_base_body,0.8060728073578332,0.5917417277328085,0.007754500005100414,-0.005312685547188452,0.017453292519943295,0.0,0.0,0.0,0.017453292519943295,0.0,0.0,0.0,0.15707963267948966,-8.998812700156122e-05,0.005795812699943781,0.1066778227686882,0.0004363323129985824,0.0,0.0,0.0,0.0004363323129985824,0.0,0.0,0.0,0.0004363323129985824,-0.1437414437532425,0.027957895770668983,9.798552513122559,0.0004,0.0,0.0,0.0,0.0004,0.0,0.0,0.0,0.0004
2025/04/11 12:08:21.187923082,1744366101,187449182,mti/imu_base_body,0.8063993552413962,0.5912967911798339,0.007765728067406963,-0.005279969154780299,0.017453292519943295,0.0,0.0,0.0,0.017453292519943295,0.0,0.0,0.0,0.15707963267948966,0.0021811993792653084,0.006237796973437071,0.10454016923904419,0.0004363323129985824,0.0,0.0,0.0,0.0004363323129985824,0.0,0.0,0.0,0.0004363323129985824,-0.17470629513263702,0.05017269775271416,9.791754722595215,0.0004,0.0,0.0,0.0,0.0004,0.0,0.0,0.0,0.0004
2025/04/11 12:08:21.237608761,1744366101,237268315,mti/imu_base_body,0.806698928109923,0.5908873802889238,0.007821827772660857,-0.005268985850113826,0.017453292519943295,0.0,0.0,0.0,0.017453292519943295,0.0,0.0,0.0,0.15707963267948966,0.000915451324544847,0.005451669916510582,0.10150077193975449,0.0004363323129985824,0.0,0.0,0.0,0.0004363323129985824,0.0,0.0,0.0,0.0004363323129985824,-0.15867681801319122,0.05172409117221832,9.823307037353516,0.0004,0.0,0.0,0.0,0.0004,0.0,0.0,0.0,0.0004
2025/04/11 12:08:21.290285295,1744366101,289610857,mti/imu_base_body,0.8069924358875437,0.5904862836479493,0.007835890363981171,-0.005268402616155143,0.017453292519943295,0.0,0.0,0.0,0.017453292519943295,0.0,0.0,0.0,0.15707963267948966,0.010013909079134464,0.010967964306473732,0.10189244896173477,0.0004363323129985824,0.0,0.0,0.0,0.0004363323129985824,0.0,0.0,0.0,0.0004363323129985824,-0.19647914171218872,0.07123714685440063,9.826934814453125,0.0004,0.0,0.0,0.0,0.0004,0.0,0.0,0.0,0.0004
2025/04/11 12:08:21.342425098,1744366101,337354300,mti/imu_base_body,0.8072940290841031,0.5900734099269993,0.007851675602331892,-0.005298366966771006,0.017453292519943295,0.0,0.0,0.0,0.017453292519943295,0.0,0.0,0.0,0.15707963267948966,0.006781859323382378,0.0025370686780661345,0.10308501869440079,0.0004363323129985824,0.0,0.0,0.0,0.0004363323129985824,0.0,0.0,0.0,0.0004363323129985824,-0.18176503479480743,0.04890540614724159,9.766550064086914,0.0004,0.0,0.0,0.0,0.0004,0.0,0.0,0.0,0.0004
2025/04/11 12:08:21.389261476,1744366101,387691296,mti/imu_base_body,0.8075959948124668,0.5896603797018364,0.007847911774049815,-0.005268401421192786,0.017453292519943295,0.0,0.0,0.0,0.017453292519943295,0.0,0.0,0.0,0.15707963267948966,0.011035636067390442,0.005683333147317171,0.10398641228675842,0.0004363323129985824,0.0,0.0,0.0,0.0004363323129985824,0.0,0.0,0.0,0.0004363323129985824,-0.15725143253803253,0.041627902537584305,9.821619033813477,0.0004,0.0,0.0,0.0,0.0004,0.0,0.0,0.0,0.0004
2025/04/11 12:08:21.439867467,1744366101,438053998,mti/imu_base_body,0.8079016816219423,0.5892415324139372,0.007847686380133737,-0.005263376235035914,0.017453292519943295,0.0,0.0,0.0,0.017453292519943295,0.0,0.0,0.0,0.15707963267948966,0.009282039478421211,0.00011364468082319945,0.10430844873189926,0.0004363323129985824,0.0,0.0,0.0,0.0004363323129985824,0.0,0.0,0.0,0.0004363323129985824,-0.18062642216682434,0.07347710430622101,9.801365852355957,0.0004,0.0,0.0,0.0,0.0004,0.0,0.0,0.0,0.0004
2025/04/11 12:08:21.489820205,1744366101,489280329,mti/imu_base_body,0.8082141793984422,0.5888129296845465,0.00782898373953775,-0.005280252760057504,0.017453292519943295,0.0,0.0,0.0,0.017453292519943295,0.0,0.0,0.0,0.15707963267948966,0.012701675295829773,0.004833498504012823,0.10422667860984802,0.0004363323129985824,0.0,0.0,0.0,0.0004363323129985824,0.0,0.0,0.0,0.0004363323129985824,-0.17410652339458466,0.08539934456348419,9.841202735900879,0.0004,0.0,0.0,0.0,0.0004,0.0,0.0,0.0,0.0004
2025/04/11 12:08:21.539874665,1744366101,538058545,mti/imu_base_body,0.8085404331313114,0.5883643838197624,0.00785092903818655,-0.005299316697439854,0.017453292519943295,0.0,0.0,0.0,0.017453292519943295,0.0,0.0,0.0,0.15707963267948966,0.009825282730162144,0.009345421567559242,0.1119631677865982,0.0004363323129985824,0.0,0.0,0.0,0.0004363323129985824,0.0,0.0,0.0,0.0004363323129985824,-0.18146905303001404,0.06322602927684784,9.792475700378418,0.0004,0.0,0.0,0.0,0.0004,0.0,0.0,0.0,0.0004
2025/04/11 12:08:21.589645234,1744366101,589289216,mti/imu_base_body,0.8088135180846829,0.5879884752662563,0.007870225201550816,-0.005320288790849683,0.017453292519943295,0.0,0.0,0.0,0.017453292519943295,0.0,0.0,0.0,0.15707963267948966,0.011363798752427101,0.013565757311880589,0.09071303904056549,0.0004363323129985824,0.0,0.0,0.0,0.0004363323129985824,0.0,0.0,0.0,0.0004363323129985824,-0.18034911155700684,0.029224896803498268,9.791155815124512,0.0004,0.0,0.0,0.0,0.0004,0.0,0.0,0.0,0.0004
2025/04/11 12:08:21.638298491,1744366101,637994942,mti/imu_base_body,0.8090966261479989,0.5875985684826331,0.007904193302215779,-0.0053005284007265185,0.017453292519943295,0.0,0.0,0.0,0.017453292519943295,0.0,0.0,0.0,0.15707963267948966,-0.0016081823268905282,0.0038837820757180452,0.09833239018917084,0.0004363323129985824,0.0,0.0,0.0,0.0004363323129985824,0.0,0.0,0.0,0.0004363323129985824,-0.17187245190143585,0.06337883323431015,9.791275024414062,0.0004,0.0,0.0,0.0,0.0004,0.0,0.0,0.0,0.0004
2025/04/11 12:08:21.688409437,1744366101,687837687,mti/imu_base_body,0.8093944667528802,0.5871881010777019,0.007940618685319464,-0.005260961649482199,0.017453292519943295,0.0,0.0,0.0,0.017453292519943295,0.0,0.0,0.0,0.15707963267948966,0.005313873291015625,0.0032594746444374323,0.10139873623847961,0.0004363323129985824,0.0,0.0,0.0,0.0004363323129985824,0.0,0.0,0.0,0.0004363323129985824,-0.15609613060951233,0.06546632200479507,9.877685546875,0.0004,0.0,0.0,0.0,0.0004,0.0,0.0,0.0,0.0004
2025/04/11 12:08:21.738111070,1744366101,737727745,mti/imu_base_body,0.809666924131244,0.586812040162048,0.007955574060029027,-0.005273550045342177,0.017453292519943295,0.0,0.0,0.0,0.017453292519943295,0.0,0.0,0.0,0.15707963267948966,0.00821577850729227,0.008780090138316154,0.09255273640155792,0.0004363323129985824,0.0,0.0,0.0,0.0004363323129985824,0.0,0.0,0.0,0.0004363323129985824,-0.18294180929660797,0.06458063423633575,9.806764602661133,0.0004,0.0,0.0,0.0,0.0004,0.0,0.0,0.0,0.0004
2025/04/11 12:08:21.788070825,1744366101,787746078,mti/imu_base_body,0.8099547066668464,0.5864143447701351,0.007984012221523753,-0.005276830950709264,0.017453292519943295,0.0,0.0,0.0,0.017453292519943295,0.0,0.0,0.0,0.15707963267948966,0.006401028484106064,0.012111646123230457,0.09758657217025757,0.0004363323129985824,0.0,0.0,0.0,0.0004363323129985824,0.0,0.0,0.0,0.0004363323129985824,-0.18746452033519745,0.05477989837527275,9.778680801391602,0.0004,0.0,0.0,0.0,0.0004,0.0,0.0,0.0,0.0004
2025/04/11 12:08:21.837750076,1744366101,837446679,mti/imu_base_body,0.8102240748645264,0.5860415906078533,0.007998545899244387,-0.005312800696159403,0.017453292519943295,0.0,0.0,0.0,0.017453292519943295,0.0,0.0,0.0,0.15707963267948966,0.011819103732705116,0.008809011429548264,0.09299721568822861,0.0004363323129985824,0.0,0.0,0.0,0.0004363323129985824,0.0,0.0,0.0,0.0004363323129985824,-0.1717381477355957,0.05003415420651436,9.830638885498047,0.0004,0.0,0.0,0.0,0.0004,0.0,0.0,0.0,0.0004
2025/04/11 12:08:21.888499426,1744366101,887675660,mti/imu_base_body,0.8105074013351403,0.5856494829048033,0.008004974895282395,-0.005325028752965631,0.017453292519943295,0.0,0.0,0.0,0.017453292519943295,0.0,0.0,0.0,0.15707963267948966,0.009116050787270069,0.003050500527024269,0.0975627526640892,0.0004363323129985824,0.0,0.0,0.0,0.0004363323129985824,0.0,0.0,0.0,0.0004363323129985824,-0.15362152457237244,0.062176480889320374,9.86267375946045,0.0004,0.0,0.0,0.0,0.0004,0.0,0.0,0.0,0.0004
2025/04/11 12:08:21.939816316,1744366101,939469491,mti/imu_base_body,0.8107863790232288,0.5852632298666691,0.008011710477512977,-0.005311483000081442,0.017453292519943295,0.0,0.0,0.0,0.017453292519943295,0.0,0.0,0.0,0.15707963267948966,0.0032356400042772293,0.0031851602252572775,0.1001868024468422,0.0004363323129985824,0.0,0.0,0.0,0.0004363323129985824,0.0,0.0,0.0,0.0004363323129985824,-0.16945993900299072,0.059106986969709396,9.790061950683594,0.0004,0.0,0.0,0.0,0.0004,0.0,0.0,0.0,0.0004
2025/04/11 12:08:21.992765744,1744366101,989941917,mti/imu_base_body,0.8110835013317815,0.5848516425708022,0.008032315355228452,-0.005252804931330722,0.017453292519943295,0.0,0.0,0.0,0.017453292519943295,0.0,0.0,0.0,0.15707963267948966,0.001573065179400146,0.003672733437269926,0.09876341372728348,0.0004363323129985824,0.0,0.0,0.0,0.0004363323129985824,0.0,0.0,0.0,0.0004363323129985824,-0.1734880805015564,0.04731972515583038,9.76618480682373,0.0004,0.0,0.0,0.0,0.0004,0.0,0.0,0.0,0.0004
2025/04/11 12:08:22.38029765,1744366102,37530594,mti/imu_base_body,0.8113677479836975,0.5844569519616912,0.008067966653333909,-0.005230368016975661,0.017453292519943295,0.0,0.0,0.0,0.017453292519943295,0.0,0.0,0.0,0.15707963267948966,0.003170725889503956,0.007404115051031113,0.09545765072107315,0.0004363323129985824,0.0,0.0,0.0,0.0004363323129985824,0.0,0.0,0.0,0.0004363323129985824,-0.15878455340862274,0.03592928871512413,9.828950881958008,0.0004,0.0,0.0,0.0,0.0004,0.0,0.0,0.0,0.0004
2025/04/11 12:08:22.87698320,1744366102,87411391,mti/imu_base_body,0.8116419920296404,0.5840756723208439,0.008085632770595094,-0.005244837443671417,0.017453292519943295,0.0,0.0,0.0,0.017453292519943295,0.0,0.0,0.0,0.15707963267948966,0.009221083484590054,0.006878812797367573,0.09590590745210648,0.0004363323129985824,0.0,0.0,0.0,0.0004363323129985824,0.0,0.0,0.0,0.0004363323129985824,-0.17627844214439392,0.06008226051926613,9.802911758422852,0.0004,0.0,0.0,0.0,0.0004,0.0,0.0,0.0,0.0004
2025/04/11 12:08:22.138240674,1744366102,137512987,mti/imu_base_body,0.8119144400704386,0.5836967773846695,0.008084725509161932,-0.0052584493245785855,0.017453292519943295,0.0,0.0,0.0,0.017453292519943295,0.0,0.0,0.0,0.15707963267948966,0.011386128142476082,0.0032427094411104918,0.09434028714895248,0.0004363323129985824,0.0,0.0,0.0,0.0004363323129985824,0.0,0.0,0.0,0.0004363323129985824,-0.15402647852897644,0.06378352642059326,9.84287166595459,0.0004,0.0,0.0,0.0,0.0004,0.0,0.0,0.0,0.0004
2025/04/11 12:08:22.188506575,1744366102,188216293,mti/imu_base_body,0.8122189656663792,0.58327280716666,0.008093315758477208,-0.005261413478822898,0.017453292519943295,0.0,0.0,0.0,0.017453292519943295,0.0,0.0,0.0,0.15707963267948966,0.01011669635772705,0.008756891824305058,0.10493862628936768,0.0004363323129985824,0.0,0.0,0.0,0.0004363323129985824,0.0,0.0,0.0,0.0004363323129985824,-0.1727612316608429,0.055631641298532486,9.773981094360352,0.0004,0.0,0.0,0.0,0.0004,0.0,0.0,0.0,0.0004
2025/04/11 12:08:22.237636636,1744366102,237326787,mti/imu_base_body,0.812491873197805,0.5828924799490134,0.008095275085929528,-0.005270609802863811,0.017453292519943295,0.0,0.0,0.0,0.017453292519943295,0.0,0.0,0.0,0.15707963267948966,0.011017708107829094,0.0012963446788489819,0.09037791937589645,0.0004363323129985824,0.0,0.0,0.0,0.0004363323129985824,0.0,0.0,0.0,0.0004363323129985824,-0.1834281086921692,0.04070362448692322,9.802690505981445,0.0004,0.0,0.0,0.0,0.0004,0.0,0.0,0.0,0.0004
2025/04/11 12:08:22.289124873,1744366102,287556711,mti/imu_base_body,0.8127678731690505,0.5825079153772496,0.008074865042847197,-0.005263973940740022,0.017453292519943295,0.0,0.0,0.0,0.017453292519943295,0.0,0.0,0.0,0.15707963267948966,0.011562635190784931,0.001689855009317398,0.09766233712434769,0.0004363323129985824,0.0,0.0,0.0,0.0004363323129985824,0.0,0.0,0.0,0.0004363323129985824,-0.15943138301372528,0.055320270359516144,9.850921630859375,0.0004,0.0,0.0,0.0,0.0004,0.0,0.0,0.0,0.0004
2025/04/11 12:08:22.337785895,1744366102,337491871,mti/imu_base_body,0.8130706140064834,0.5820851965869873,0.008098396940454338,-0.005236078723923561,0.017453292519943295,0.0,0.0,0.0,0.017453292519943295,0.0,0.0,0.0,0.15707963267948966,-0.0010769062209874392,0.0067214095033705235,0.10331804305315018,0.0004363323129985824,0.0,0.0,0.0,0.0004363323129985824,0.0,0.0,0.0,0.0004363323129985824,-0.1691123992204666,0.07673808187246323,9.793303489685059,0.0004,0.0,0.0,0.0,0.0004,0.0,0.0,0.0,0.0004
2025/04/11 12:08:22.387635046,1744366102,387367680,mti/imu_base_body,0.813349293084283,0.581696046102217,0.008105568433766315,-0.005190101030797105,0.017453292519943295,0.0,0.0,0.0,0.017453292519943295,0.0,0.0,0.0,0.15707963267948966,-0.0032612073700875044,-0.0039130765944719315,0.09729573875665665,0.0004363323129985824,0.0,0.0,0.0,0.0004363323129985824,0.0,0.0,0.0,0.0004363323129985824,-0.17378486692905426,0.08763843029737473,9.766669273376465,0.0004,0.0,0.0,0.0,0.0004,0.0,0.0,0.0,0.0004
2025/04/11 12:08:22.438302548,1744366102,437641017,mti/imu_base_body,0.8136425780317716,0.581285688060896,0.008126487769587494,-0.005163745337814071,0.017453292519943295,0.0,0.0,0.0,0.017453292519943295,0.0,0.0,0.0,0.15707963267948966,0.009059926494956017,0.010696887969970703,0.09938427060842514,0.0004363323129985824,0.0,0.0,0.0,0.0004363323129985824,0.0,0.0,0.0,0.0004363323129985824,-0.16852311789989471,0.05446178838610649,9.828832626342773,0.0004,0.0,0.0,0.0,0.0004,0.0,0.0,0.0,0.0004
2025/04/11 12:08:22.487701615,1744366102,487390882,mti/imu_base_body,0.8139364842000965,0.5808734439146068,0.008162483704668818,-0.005178388025347456,0.017453292519943295,0.0,0.0,0.0,0.017453292519943295,0.0,0.0,0.0,0.15707963267948966,0.006876988802105188,0.007893620058894157,0.10173533111810684,0.0004363323129985824,0.0,0.0,0.0,0.0004363323129985824,0.0,0.0,0.0,0.0004363323129985824,-0.16897797584533691,0.05523005500435829,9.849482536315918,0.0004,0.0,0.0,0.0,0.0004,0.0,0.0,0.0,0.0004
2025/04/11 12:08:22.538991972,1744366102,537619695,mti/imu_base_body,0.8142103897199677,0.5804888331641789,0.008177369831130082,-0.005223644933677574,0.017453292519943295,0.0,0.0,0.0,0.017453292519943295,0.0,0.0,0.0,0.15707963267948966,0.018401645123958588,0.012520101852715015,0.09404691308736801,0.0004363323129985824,0.0,0.0,0.0,0.0004363323129985824,0.0,0.0,0.0,0.0004363323129985824,-0.1572820395231247,0.06099900230765343,9.80697250366211,0.0004,0.0,0.0,0.0,0.0004,0.0,0.0,0.0,0.0004
2025/04/11 12:08:22.587801300,1744366102,587407770,mti/imu_base_body,0.8144750259666254,0.5801176409660689,0.00818861710107195,-0.005186643095492539,0.017453292519943295,0.0,0.0,0.0,0.017453292519943295,0.0,0.0,0.0,0.15707963267948966,0.00010390263196313754,0.0027926191687583923,0.08998366445302963,0.0004363323129985824,0.0,0.0,0.0,0.0004363323129985824,0.0,0.0,0.0,0.0004363323129985824,-0.16558976471424103,0.07249905914068222,9.795228004455566,0.0004,0.0,0.0,0.0,0.0004,0.0,0.0,0.0,0.0004
2025/04/11 12:08:22.639234646,1744366102,637477863,mti/imu_base_body,0.8147216990509736,0.5797712213373443,0.008181442071253705,-0.005191147284935158,0.017453292519943295,0.0,0.0,0.0,0.017453292519943295,0.0,0.0,0.0,0.15707963267948966,0.008679701946675777,0.002352499170228839,0.0894862562417984,0.0004363323129985824,0.0,0.0,0.0,0.0004363323129985824,0.0,0.0,0.0,0.0004363323129985824,-0.18109442293643951,0.05243180692195892,9.767877578735352,0.0004,0.0,0.0,0.0,0.0004,0.0,0.0,0.0,0.0004
2025/04/11 12:08:22.688179380,1744366102,687486317,mti/imu_base_body,0.8149938868158021,0.5793876664713057,0.008215374144766367,-0.005234885048226642,0.017453292519943295,0.0,0.0,0.0,0.017453292519943295,0.0,0.0,0.0,0.15707963267948966,0.014214572496712208,0.012299805879592896,0.09251288324594498,0.0004363323129985824,0.0,0.0,0.0,0.0004363323129985824,0.0,0.0,0.0,0.0004363323129985824,-0.16414345800876617,0.03965795785188675,9.84046745300293,0.0004,0.0,0.0,0.0,0.0004,0.0,0.0,0.0,0.0004
2025/04/11 12:08:22.738231952,1744366102,737382277,mti/imu_base_body,0.8152520169491022,0.5790248806742546,0.008166447530179737,-0.005257904080769801,0.017453292519943295,0.0,0.0,0.0,0.017453292519943295,0.0,0.0,0.0,0.15707963267948966,0.021456630900502205,-0.003049037419259548,0.08945122361183167,0.0004363323129985824,0.0,0.0,0.0,0.0004363323129985824,0.0,0.0,0.0,0.0004363323129985824,-0.16655758023262024,0.04669986292719841,9.8100004196167,0.0004,0.0,0.0,0.0,0.0004,0.0,0.0,0.0,0.0004
2025/04/11 12:08:22.788610009,1744366102,787595211,mti/imu_base_body,0.8155302388882224,0.5786329670866752,0.008161764165504433,-0.00526350312018024,0.017453292519943295,0.0,0.0,0.0,0.017453292519943295,0.0,0.0,0.0,0.15707963267948966,0.01301055308431387,0.00795573927462101,0.09721221774816513,0.0004363323129985824,0.0,0.0,0.0,0.0004363323129985824,0.0,0.0,0.0,0.0004363323129985824,-0.16544465720653534,0.07467566430568695,9.804350852966309,0.0004,0.0,0.0,0.0,0.0004,0.0,0.0,0.0,0.0004
2025/04/11 12:08:22.837727092,1744366102,837385393,mti/imu_base_body,0.815808569906678,0.5782405796297364,0.008166381549521854,-0.005245907802747871,0.017453292519943295,0.0,0.0,0.0,0.017453292519943295,0.0,0.0,0.0,0.15707963267948966,0.005263842176645994,0.003726701019331813,0.09846240282058716,0.0004363323129985824,0.0,0.0,0.0,0.0004363323129985824,0.0,0.0,0.0,0.0004363323129985824,-0.16300904750823975,0.061012495309114456,9.801111221313477,0.0004,0.0,0.0,0.0,0.0004,0.0,0.0,0.0,0.0004
2025/04/11 12:08:22.888544823,1744366102,888092839,mti/imu_base_body,0.8160820498464326,0.5778544749993778,0.008162556003509439,-0.005259878432793221,0.017453292519943295,0.0,0.0,0.0,0.017453292519943295,0.0,0.0,0.0,0.15707963267948966,0.011396825313568115,0.004551696125417948,0.08822154998779297,0.0004363323129985824,0.0,0.0,0.0,0.0004363323129985824,0.0,0.0,0.0,0.0004363323129985824,-0.16524049639701843,0.05249660462141037,9.830636978149414,0.0004,0.0,0.0,0.0,0.0004,0.0,0.0,0.0,0.0004
2025/04/11 12:08:22.939161946,1744366102,937847891,mti/imu_base_body,0.8163371084882778,0.5774939045016334,0.008177565617586981,-0.005257660033329026,0.017453292519943295,0.0,0.0,0.0,0.017453292519943295,0.0,0.0,0.0,0.15707963267948966,0.0031041656620800495,0.0007396642467938364,0.09252174943685532,0.0004363323129985824,0.0,0.0,0.0,0.0004363323129985824,0.0,0.0,0.0,0.0004363323129985824,-0.16754671931266785,0.05772121250629425,9.811912536621094,0.0004,0.0,0.0,0.0,0.0004,0.0,0.0,0.0,0.0004
2025/04/11 12:08:22.991551968,1744366102,988484671,mti/imu_base_body,0.8166067627324376,0.5771122135843194,0.008201037323238092,-0.005256517695002564,0.017453292519943295,0.0,0.0,0.0,0.017453292519943295,0.0,0.0,0.0,0.15707963267948966,0.00471976725384593,0.009246833622455597,0.09331227093935013,0.0004363323129985824,0.0,0.0,0.0,0.0004363323129985824,0.0,0.0,0.0,0.0004363323129985824,-0.16232556104660034,0.06024818867444992,9.789575576782227,0.0004,0.0,0.0,0.0,0.0004,0.0,0.0,0.0,0.0004
2025/04/11 12:08:23.37714181,1744366103,37416545,mti/imu_base_body,0.8168749744337702,0.5767323939637117,0.00822043801428249,-0.00523892122165137,0.017453292519943295,0.0,0.0,0.0,0.017453292519943295,0.0,0.0,0.0,0.15707963267948966,0.008476722985506058,0.008625291287899017,0.09446942061185837,0.0004363323129985824,0.0,0.0,0.0,0.0004363323129985824,0.0,0.0,0.0,0.0004363323129985824,-0.1504746973514557,0.06021014600992203,9.797850608825684,0.0004,0.0,0.0,0.0,0.0004,0.0,0.0,0.0,0.0004
2025/04/11 12:08:23.87857092,1744366103,87429368,mti/imu_base_body,0.8171258314236185,0.5763771263376336,0.00823603514811374,-0.005191491122081467,0.017453292519943295,0.0,0.0,0.0,0.017453292519943295,0.0,0.0,0.0,0.15707963267948966,0.0008409199072048068,-0.0030035891104489565,0.08788956701755524,0.0004363323129985824,0.0,0.0,0.0,0.0004363323129985824,0.0,0.0,0.0,0.0004363323129985824,-0.17972220480442047,0.041688766330480576,9.836413383483887,0.0004,0.0,0.0,0.0,0.0004,0.0,0.0,0.0,0.0004
2025/04/11 12:08:23.139794818,1744366103,137715038,mti/imu_base_body,0.817389645248176,0.5760025584845038,0.008246347637247844,-0.005217107533137694,0.017453292519943295,0.0,0.0,0.0,0.017453292519943295,0.0,0.0,0.0,0.15707963267948966,0.011567560955882072,0.006537932436913252,0.09141100198030472,0.0004363323129985824,0.0,0.0,0.0,0.0004363323129985824,0.0,0.0,0.0,0.0004363323129985824,-0.1833244264125824,0.06648470461368561,9.809640884399414,0.0004,0.0,0.0,0.0,0.0004,0.0,0.0,0.0,0.0004
2025/04/11 12:08:23.191049105,1744366103,190711748,mti/imu_base_body,0.8176514213415574,0.575631349730736,0.00823575217921302,-0.005184088284792611,0.017453292519943295,0.0,0.0,0.0,0.017453292519943295,0.0,0.0,0.0,0.15707963267948966,0.007007240783423185,0.0018652419093996286,0.08795704692602158,0.0004363323129985824,0.0,0.0,0.0,0.0004363323129985824,0.0,0.0,0.0,0.0004363323129985824,-0.15293757617473602,0.06076473370194435,9.759206771850586,0.0004,0.0,0.0,0.0,0.0004,0.0,0.0,0.0,0.0004
2025/04/11 12:08:23.238655475,1744366103,237493831,mti/imu_base_body,0.8179214367850812,0.5752474647107174,0.008242148639614918,-0.005190816614233136,0.017453292519943295,0.0,0.0,0.0,0.017453292519943295,0.0,0.0,0.0,0.15707963267948966,0.009437640197575092,0.007764708716422319,0.0964597761631012,0.0004363323129985824,0.0,0.0,0.0,0.0004363323129985824,0.0,0.0,0.0,0.0004363323129985824,-0.156923308968544,0.07206165790557861,9.839868545532227,0.0004,0.0,0.0,0.0,0.0004,0.0,0.0,0.0,0.0004
2025/04/11 12:08:23.287668068,1744366103,287412047,mti/imu_base_body,0.818180664898533,0.5748783002905433,0.008269875427979741,-0.005191204258755019,0.017453292519943295,0.0,0.0,0.0,0.017453292519943295,0.0,0.0,0.0,0.15707963267948966,0.004118375945836306,0.009721508249640465,0.09169014543294907,0.0004363323129985824,0.0,0.0,0.0,0.0004363323129985824,0.0,0.0,0.0,0.0004363323129985824,-0.14799591898918152,0.05192353203892708,9.837696075439453,0.0004,0.0,0.0,0.0,0.0004,0.0,0.0,0.0,0.0004
2025/04/11 12:08:23.338025233,1744366103,337701856,mti/imu_base_body,0.8184259775950786,0.5745290558442022,0.0082655729531514,-0.0051926382567627485,0.017453292519943295,0.0,0.0,0.0,0.017453292519943295,0.0,0.0,0.0,0.15707963267948966,0.009967558085918427,0.002087056403979659,0.0862492099404335,0.0004363323129985824,0.0,0.0,0.0,0.0004363323129985824,0.0,0.0,0.0,0.0004363323129985824,-0.18618157505989075,0.05703175067901611,9.783730506896973,0.0004,0.0,0.0,0.0,0.0004,0.0,0.0,0.0,0.0004
2025/04/11 12:08:23.390040761,1744366103,389708256,mti/imu_base_body,0.8186695276842513,0.5741815846992613,0.008304497330819111,-0.005171804092599342,0.017453292519943295,0.0,0.0,0.0,0.017453292519943295,0.0,0.0,0.0,0.15707963267948966,0.0017443300457671285,0.005051357671618462,0.0839676633477211,0.0004363323129985824,0.0,0.0,0.0,0.0004363323129985824,0.0,0.0,0.0,0.0004363323129985824,-0.1798955798149109,0.08771029114723206,9.773276329040527,0.0004,0.0,0.0,0.0,0.0004,0.0,0.0,0.0,0.0004
2025/04/11 12:08:23.438562015,1744366103,437400567,mti/imu_base_body,0.8189424289288048,0.5737920572907946,0.008307231951325239,-0.005192589671234257,0.017453292519943295,0.0,0.0,0.0,0.017453292519943295,0.0,0.0,0.0,0.15707963267948966,0.01199893094599247,0.008805524557828903,0.09484092146158218,0.0004363323129985824,0.0,0.0,0.0,0.0004363323129985824,0.0,0.0,0.0,0.0004363323129985824,-0.16311176121234894,0.08406580239534378,9.835428237915039,0.0004,0.0,0.0,0.0,0.0004,0.0,0.0,0.0,0.0004
2025/04/11 12:08:23.488031953,1744366103,487697650,mti/imu_base_body,0.819200002485999,0.5734237599397279,0.008329667039187836,-0.0052119200435793885,0.017453292519943295,0.0,0.0,0.0,0.017453292519943295,0.0,0.0,0.0,0.15707963267948966,0.009296180680394173,0.010487128980457783,0.09048241376876831,0.0004363323129985824,0.0,0.0,0.0,0.0004363323129985824,0.0,0.0,0.0,0.0004363323129985824,-0.16609466075897217,0.04123851656913757,9.862446784973145,0.0004,0.0,0.0,0.0,0.0004,0.0,0.0,0.0,0.0004
2025/04/11 12:08:23.537958400,1744366103,537491283,mti/imu_base_body,0.8194796255225492,0.5730241243898471,0.008340763747583937,-0.005189208107087647,0.017453292519943295,0.0,0.0,0.0,0.017453292519943295,0.0,0.0,0.0,0.15707963267948966,0.006318308413028717,0.0011675296118482947,0.09371162205934525,0.0004363323129985824,0.0,0.0,0.0,0.0004363323129985824,0.0,0.0,0.0,0.0004363323129985824,-0.1544898897409439,0.038521334528923035,9.804094314575195,0.0004,0.0,0.0,0.0,0.0004,0.0,0.0,0.0,0.0004
2025/04/11 12:08:23.587698296,1744366103,587391955,mti/imu_base_body,0.8197133070091283,0.5726896899669254,0.008371464882918997,-0.005150911905623223,0.017453292519943295,0.0,0.0,0.0,0.017453292519943295,0.0,0.0,0.0,0.15707963267948966,0.002494648564606905,0.00248504220508039,0.08505485951900482,0.0004363323129985824,0.0,0.0,0.0,0.0004363323129985824,0.0,0.0,0.0,0.0004363323129985824,-0.17918314039707184,0.05832833796739578,9.770999908447266,0.0004,0.0,0.0,0.0,0.0004,0.0,0.0,0.0,0.0004
2025/04/11 12:08:23.638888775,1744366103,637542155,mti/imu_base_body,0.8199579769869831,0.5723397630276124,0.008364875778478702,-0.005112776752543262,0.017453292519943295,0.0,0.0,0.0,0.017453292519943295,0.0,0.0,0.0,0.15707963267948966,0.002509461482986808,-0.0009669329156167805,0.08753053843975067,0.0004363323129985824,0.0,0.0,0.0,0.0004363323129985824,0.0,0.0,0.0,0.0004363323129985824,-0.18175798654556274,0.07153602689504623,9.79525089263916,0.0004,0.0,0.0,0.0,0.0004,0.0,0.0,0.0,0.0004
2025/04/11 12:08:23.687625339,1744366103,687417273,mti/imu_base_body,0.820220526390056,0.5719633620821033,0.008382293931529214,-0.00509290414219447,0.017453292519943295,0.0,0.0,0.0,0.017453292519943295,0.0,0.0,0.0,0.15707963267948966,0.003911835607141256,0.006468618288636208,0.09451291710138321,0.0004363323129985824,0.0,0.0,0.0,0.0004363323129985824,0.0,0.0,0.0,0.0004363323129985824,-0.16314178705215454,0.06373686343431473,9.851399421691895,0.0004,0.0,0.0,0.0,0.0004,0.0,0.0,0.0,0.0004
2025/04/11 12:08:23.737654081,1744366103,737367056,mti/imu_base_body,0.8204701121841735,0.57160512901359,0.00839852399450525,-0.005082941329645526,0.017453292519943295,0.0,0.0,0.0,0.017453292519943295,0.0,0.0,0.0,0.15707963267948966,0.0044879550114274025,0.008038685657083988,0.08298230916261673,0.0004363323129985824,0.0,0.0,0.0,0.0004363323129985824,0.0,0.0,0.0,0.0004363323129985824,-0.1668633669614792,0.05910314992070198,9.815987586975098,0.0004,0.0,0.0,0.0,0.0004,0.0,0.0,0.0,0.0004
2025/04/11 12:08:23.787798088,1744366103,787490058,mti/imu_base_body,0.8207191305993442,0.5712470803038829,0.008422532934705173,-0.005093412560303719,0.017453292519943295,0.0,0.0,0.0,0.017453292519943295,0.0,0.0,0.0,0.15707963267948966,0.010297098197042942,0.008160620927810669,0.09211530536413193,0.0004363323129985824,0.0,0.0,0.0,0.0004363323129985824,0.0,0.0,0.0,0.0004363323129985824,-0.15432628989219666,0.026835478842258453,9.810576438903809,0.0004,0.0,0.0,0.0,0.0004,0.0,0.0,0.0,0.0004
2025/04/11 12:08:23.838118875,1744366103,837534865,mti/imu_base_body,0.8209777375975427,0.5708754668783613,0.008415817881691524,-0.005092120875971133,0.017453292519943295,0.0,0.0,0.0,0.017453292519943295,0.0,0.0,0.0,0.15707963267948966,0.0062288884073495865,0.0001732397940941155,0.08669339865446091,0.0004363323129985824,0.0,0.0,0.0,0.0004363323129985824,0.0,0.0,0.0,0.0004363323129985824,-0.17220358550548553,0.04286732152104378,9.760187149047852,0.0004,0.0,0.0,0.0,0.0004,0.0,0.0,0.0,0.0004
2025/04/11 12:08:23.888649432,1744366103,887821841,mti/imu_base_body,0.8212230084730561,0.570522885728524,0.00842623469814863,-0.0050404149900564275,0.017453292519943295,0.0,0.0,0.0,0.017453292519943295,0.0,0.0,0.0,0.15707963267948966,-0.000600263534579426,-0.002046587411314249,0.08460172265768051,0.0004363323129985824,0.0,0.0,0.0,0.0004363323129985824,0.0,0.0,0.0,0.0004363323129985824,-0.13795068860054016,0.06073806434869766,9.863740921020508,0.0004,0.0,0.0,0.0,0.0004,0.0,0.0,0.0,0.0004
2025/04/11 12:08:23.937714305,1744366103,937408603,mti/imu_base_body,0.8214727316579279,0.5701631811831612,0.008435894192169393,-0.005033254885063247,0.017453292519943295,0.0,0.0,0.0,0.017453292519943295,0.0,0.0,0.0,0.15707963267948966,0.009857896715402603,0.008686949498951435,0.0891113355755806,0.0004363323129985824,0.0,0.0,0.0,0.0004363323129985824,0.0,0.0,0.0,0.0004363323129985824,-0.1548895686864853,0.07281794399023056,9.860028266906738,0.0004,0.0,0.0,0.0,0.0004,0.0,0.0,0.0,0.0004
2025/04/11 12:08:23.992880807,1744366103,987449340,mti/imu_base_body,0.8217202759200231,0.5698062850917687,0.008439041640526153,-0.0050366842296111596,0.017453292519943295,0.0,0.0,0.0,0.017453292519943295,0.0,0.0,0.0,0.15707963267948966,0.01233112532645464,0.0030911946669220924,0.08919402211904526,0.0004363323129985824,0.0,0.0,0.0,0.0004363323129985824,0.0,0.0,0.0,0.0004363323129985824,-0.18986259400844574,0.07208969444036484,9.736435890197754,0.0004,0.0,0.0,0.0,0.0004,0.0,0.0,0.0,0.0004
2025/04/11 12:08:24.38491190,1744366104,37395073,mti/imu_base_body,0.8219809500795828,0.5694301118571569,0.008438749369653515,-0.005045089264661547,0.017453292519943295,0.0,0.0,0.0,0.017453292519943295,0.0,0.0,0.0,0.15707963267948966,0.009210285730659962,0.006282673683017492,0.08639746904373169,0.0004363323129985824,0.0,0.0,0.0,0.0004363323129985824,0.0,0.0,0.0,0.0004363323129985824,-0.1681806445121765,0.033320747315883636,9.7589750289917,0.0004,0.0,0.0,0.0,0.0004,0.0,0.0,0.0,0.0004
2025/04/11 12:08:24.91405361,1744366104,87587639,mti/imu_base_body,0.8222296489043385,0.5690706137081777,0.008461352212937723,-0.00504446183201698,0.017453292519943295,0.0,0.0,0.0,0.017453292519943295,0.0,0.0,0.0,0.15707963267948966,0.0074472553096711636,0.009009303525090218,0.09305023401975632,0.0004363323129985824,0.0,0.0,0.0,0.0004363323129985824,0.0,0.0,0.0,0.0004363323129985824,-0.13629482686519623,0.06600262969732285,9.874296188354492,0.0004,0.0,0.0,0.0,0.0004,0.0,0.0,0.0,0.0004
2025/04/11 12:08:24.139369008,1744366104,137530617,mti/imu_base_body,0.8224845702332736,0.568701841246187,0.008486370595817342,-0.005032793011289741,0.017453292519943295,0.0,0.0,0.0,0.017453292519943295,0.0,0.0,0.0,0.15707963267948966,0.002916368655860424,0.0028370318468660116,0.08736405521631241,0.0004363323129985824,0.0,0.0,0.0,0.0004363323129985824,0.0,0.0,0.0,0.0004363323129985824,-0.1534651666879654,0.08403234928846359,9.903972625732422,0.0004,0.0,0.0,0.0,0.0004,0.0,0.0,0.0,0.0004
2025/04/11 12:08:24.190721489,1744366104,187864279,mti/imu_base_body,0.8227445523366187,0.5683252721464201,0.008496054501933059,-0.005060009685226996,0.017453292519943295,0.0,0.0,0.0,0.017453292519943295,0.0,0.0,0.0,0.15707963267948966,0.01663021184504032,0.01241154782474041,0.08895272761583328,0.0004363323129985824,0.0,0.0,0.0,0.0004363323129985824,0.0,0.0,0.0,0.0004363323129985824,-0.17555102705955505,0.05724959075450897,9.714683532714844,0.0004,0.0,0.0,0.0,0.0004,0.0,0.0,0.0,0.0004
2025/04/11 12:08:24.238350150,1744366104,237995518,mti/imu_base_body,0.8229834592606882,0.5679787238672709,0.008518618886262977,-0.005082140266466981,0.017453292519943295,0.0,0.0,0.0,0.017453292519943295,0.0,0.0,0.0,0.15707963267948966,0.00839225109666586,0.0041223871521651745,0.08866888284683228,0.0004363323129985824,0.0,0.0,0.0,0.0004363323129985824,0.0,0.0,0.0,0.0004363323129985824,-0.18338266015052795,0.04976704344153404,9.73401927947998,0.0004,0.0,0.0,0.0,0.0004,0.0,0.0,0.0,0.0004
2025/04/11 12:08:24.288530451,1744366104,287501678,mti/imu_base_body,0.8232337777008724,0.5676163812114644,0.008501979918051726,-0.005050482177502658,0.017453292519943295,0.0,0.0,0.0,0.017453292519943295,0.0,0.0,0.0,0.15707963267948966,0.00685861986130476,0.000992702436633408,0.08657461404800415,0.0004363323129985824,0.0,0.0,0.0,0.0004363323129985824,0.0,0.0,0.0,0.0004363323129985824,-0.12437907606363297,0.04869670793414116,9.871284484863281,0.0004,0.0,0.0,0.0,0.0004,0.0,0.0,0.0,0.0004
2025/04/11 12:08:24.338062816,1744366104,337567305,mti/imu_base_body,0.8234817982518491,0.5672570776327962,0.008472144281340353,-0.005035731791589727,0.017453292519943295,0.0,0.0,0.0,0.017453292519943295,0.0,0.0,0.0,0.15707963267948966,0.007005421444773674,-0.0027243869844824076,0.08326547592878342,0.0004363323129985824,0.0,0.0,0.0,0.0004363323129985824,0.0,0.0,0.0,0.0004363323129985824,-0.12463964521884918,0.06957679986953735,9.919785499572754,0.0004,0.0,0.0,0.0,0.0004,0.0,0.0,0.0,0.0004
2025/04/11 12:08:24.390167470,1744366104,388532281,mti/imu_base_body,0.8236971720233544,0.56694342804121,0.00850793040443728,-0.005072802168713826,0.017453292519943295,0.0,0.0,0.0,0.017453292519943295,0.0,0.0,0.0,0.15707963267948966,0.013255232945084572,0.018330836668610573,0.08264149725437164,0.0004363323129985824,0.0,0.0,0.0,0.0004363323129985824,0.0,0.0,0.0,0.0004363323129985824,-0.17995120584964752,0.07410567253828049,9.716126441955566,0.0004,0.0,0.0,0.0,0.0004,0.0,0.0,0.0,0.0004
2025/04/11 12:08:24.437884551,1744366104,437543217,mti/imu_base_body,0.8239509705143695,0.5665746002600225,0.00849804862921691,-0.005079734059962641,0.017453292519943295,0.0,0.0,0.0,0.017453292519943295,0.0,0.0,0.0,0.15707963267948966,0.012351716868579388,0.0010116208577528596,0.08906447887420654,0.0004363323129985824,0.0,0.0,0.0,0.0004363323129985824,0.0,0.0,0.0,0.0004363323129985824,-0.1820462942123413,0.09249987453222275,9.731752395629883,0.0004,0.0,0.0,0.0,0.0004,0.0,0.0,0.0,0.0004
2025/04/11 12:08:24.487742736,1744366104,487425827,mti/imu_base_body,0.8242056255754084,0.5662047872652143,0.008467936192276159,-0.005051703123362867,0.017453292519943295,0.0,0.0,0.0,0.017453292519943295,0.0,0.0,0.0,0.15707963267948966,0.008955287747085094,-0.00904768891632557,0.09031712263822556,0.0004363323129985824,0.0,0.0,0.0,0.0004363323129985824,0.0,0.0,0.0,0.0004363323129985824,-0.09181593358516693,0.05144945904612541,9.923583984375,0.0004,0.0,0.0,0.0,0.0004,0.0,0.0,0.0,0.0004
2025/04/11 12:08:24.537806694,1744366104,537450438,mti/imu_base_body,0.8244461222677137,0.5658546746766928,0.008483409143489261,-0.005011027196900704,0.017453292519943295,0.0,0.0,0.0,0.017453292519943295,0.0,0.0,0.0,0.15707963267948966,-0.0038944052066653967,0.00630947295576334,0.08191825449466705,0.0004363323129985824,0.0,0.0,0.0,0.0004363323129985824,0.0,0.0,0.0,0.0004363323129985824,-0.1435433179140091,0.017758620902895927,9.885584831237793,0.0004,0.0,0.0,0.0,0.0004,0.0,0.0,0.0,0.0004
2025/04/11 12:08:24.587773491,1744366104,587438033,mti/imu_base_body,0.8246679038036691,0.5655309397137234,0.008521300744640343,-0.004999209556989744,0.017453292519943295,0.0,0.0,0.0,0.017453292519943295,0.0,0.0,0.0,0.15707963267948966,0.012120365165174007,0.011248728260397911,0.08297652751207352,0.0004363323129985824,0.0,0.0,0.0,0.0004363323129985824,0.0,0.0,0.0,0.0004363323129985824,-0.24185548722743988,0.03136502206325531,9.6380615234375,0.0004,0.0,0.0,0.0,0.0004,0.0,0.0,0.0,0.0004
2025/04/11 12:08:24.637910859,1744366104,637443335,mti/imu_base_body,0.8249114035081393,0.5651751723955349,0.008532989670223005,-0.005038745597585937,0.017453292519943295,0.0,0.0,0.0,0.017453292519943295,0.0,0.0,0.0,0.15707963267948966,0.006404052954167128,0.003244744846597314,0.08151470124721527,0.0004363323129985824,0.0,0.0,0.0,0.0004363323129985824,0.0,0.0,0.0,0.0004363323129985824,-0.0556926466524601,0.02642340026795864,9.812992095947266,0.0004,0.0,0.0,0.0,0.0004,0.0,0.0,0.0,0.0004
2025/04/11 12:08:24.687679895,1744366104,687373914,mti/imu_base_body,0.8251319919457621,0.5648533433681432,0.008516907129617961,-0.00503573692667371,0.017453292519943295,0.0,0.0,0.0,0.017453292519943295,0.0,0.0,0.0,0.15707963267948966,0.017098473384976387,0.0070625413209199905,0.07788024097681046,0.0004363323129985824,0.0,0.0,0.0,0.0004363323129985824,0.0,0.0,0.0,0.0004363323129985824,-0.08973334729671478,0.06825508922338486,9.912652015686035,0.0004,0.0,0.0,0.0,0.0004,0.0,0.0,0.0,0.0004
2025/04/11 12:08:24.737827115,1744366104,737460755,mti/imu_base_body,0.8253574203093004,0.5645242306108322,0.0085078399963603,-0.005013826106005363,0.017453292519943295,0.0,0.0,0.0,0.017453292519943295,0.0,0.0,0.0,0.15707963267948966,0.004290749318897724,-0.00328466878272593,0.07942958921194077,0.0004363323129985824,0.0,0.0,0.0,0.0004363323129985824,0.0,0.0,0.0,0.0004363323129985824,-0.21571774780750275,0.1031375378370285,9.840788841247559,0.0004,0.0,0.0,0.0,0.0004,0.0,0.0,0.0,0.0004
2025/04/11 12:08:24.787931630,1744366104,787386120,mti/imu_base_body,0.8255678140890712,0.5642164132477607,0.008520279485355463,-0.0050028191568461155,0.017453292519943295,0.0,0.0,0.0,0.017453292519943295,0.0,0.0,0.0,0.15707963267948966,0.004972770810127258,0.0027343195397406816,0.0815003514289856,0.0004363323129985824,0.0,0.0,0.0,0.0004363323129985824,0.0,0.0,0.0,0.0004363323129985824,-0.16873273253440857,0.0806785374879837,9.80111312866211,0.0004,0.0,0.0,0.0,0.0004,0.0,0.0,0.0,0.0004
2025/04/11 12:08:24.837588724,1744366104,837297903,mti/imu_base_body,0.8258101699093826,0.5638616287205392,0.008526734996855018,-0.004992165977879973,0.017453292519943295,0.0,0.0,0.0,0.017453292519943295,0.0,0.0,0.0,0.15707963267948966,0.0073384856805205345,0.008182946592569351,0.08219953626394272,0.0004363323129985824,0.0,0.0,0.0,0.0004363323129985824,0.0,0.0,0.0,0.0004363323129985824,-0.11736536026000977,0.03376321867108345,9.803321838378906,0.0004,0.0,0.0,0.0,0.0004,0.0,0.0,0.0,0.0004
2025/04/11 12:08:24.888062417,1744366104,887476650,mti/imu_base_body,0.8260164290987559,0.5635598488401585,0.008507810511854463,-0.004977227590913087,0.017453292519943295,0.0,0.0,0.0,0.017453292519943295,0.0,0.0,0.0,0.15707963267948966,0.008233618922531605,-0.003062755335122347,0.07257663458585739,0.0004363323129985824,0.0,0.0,0.0,0.0004363323129985824,0.0,0.0,0.0,0.0004363323129985824,-0.11723542958498001,-0.010996213182806969,9.763002395629883,0.0004,0.0,0.0,0.0,0.0004,0.0,0.0,0.0,0.0004
2025/04/11 12:08:24.937858870,1744366104,937521896,mti/imu_base_body,0.8262554060060628,0.5632093051422683,0.008507232938316624,-0.0049909552845647485,0.017453292519943295,0.0,0.0,0.0,0.017453292519943295,0.0,0.0,0.0,0.15707963267948966,0.015237570740282536,0.0023706573992967606,0.08488783240318298,0.0004363323129985824,0.0,0.0,0.0,0.0004363323129985824,0.0,0.0,0.0,0.0004363323129985824,-0.1650073081254959,0.060692690312862396,9.846839904785156,0.0004,0.0,0.0,0.0,0.0004,0.0,0.0,0.0,0.0004
2025/04/11 12:08:24.988471797,1744366104,988129631,mti/imu_base_body,0.8264885419971326,0.5628672274805413,0.008519533203943478,-0.004959004921277195,0.017453292519943295,0.0,0.0,0.0,0.017453292519943295,0.0,0.0,0.0,0.15707963267948966,0.0025055804289877415,0.00643946835771203,0.08536097407341003,0.0004363323129985824,0.0,0.0,0.0,0.0004363323129985824,0.0,0.0,0.0,0.0004363323129985824,-0.10419194400310516,0.12090527266263962,9.911359786987305,0.0004,0.0,0.0,0.0,0.0004,0.0,0.0,0.0,0.0004
2025/04/11 12:08:25.37789316,1744366105,37402374,mti/imu_base_body,0.8267080000448883,0.5625442940102992,0.008534360542826034,-0.004996461583963702,0.017453292519943295,0.0,0.0,0.0,0.017453292519943295,0.0,0.0,0.0,0.15707963267948966,0.010845932178199291,0.013521927408874035,0.0790041834115982,0.0004363323129985824,0.0,0.0,0.0,0.0004363323129985824,0.0,0.0,0.0,0.0004363323129985824,-0.18445473909378052,0.10708071291446686,9.654555320739746,0.0004,0.0,0.0,0.0,0.0004,0.0,0.0,0.0,0.0004
2025/04/11 12:08:25.92743608,1744366105,87457239,mti/imu_base_body,0.8269262157340247,0.5622237647570101,0.008525099238600366,-0.004979433424728293,0.017453292519943295,0.0,0.0,0.0,0.017453292519943295,0.0,0.0,0.0,0.15707963267948966,0.010672219097614288,-0.0002819244109559804,0.07128559052944183,0.0004363323129985824,0.0,0.0,0.0,0.0004363323129985824,0.0,0.0,0.0,0.0004363323129985824,-0.1717252880334854,0.05087607353925705,9.712292671203613,0.0004,0.0,0.0,0.0,0.0004,0.0,0.0,0.0,0.0004
2025/04/11 12:08:25.137851363,1744366105,137444785,mti/imu_base_body,0.8271317769694665,0.5619211214244909,0.008541269888781806,-0.004972276446678261,0.017453292519943295,0.0,0.0,0.0,0.017453292519943295,0.0,0.0,0.0,0.15707963267948966,0.0075134397484362125,-0.000985509715974331,0.08176915347576141,0.0004363323129985824,0.0,0.0,0.0,0.0004363323129985824,0.0,0.0,0.0,0.0004363323129985824,-0.08139859139919281,0.02164127491414547,10.0201997756958,0.0004,0.0,0.0,0.0,0.0004,0.0,0.0,0.0,0.0004
2025/04/11 12:08:25.188672774,1744366105,187482051,mti/imu_base_body,0.8273574451006036,0.5615883726370758,0.008555909459924856,-0.004995414773177922,0.017453292519943295,0.0,0.0,0.0,0.017453292519943295,0.0,0.0,0.0,0.15707963267948966,0.011363893747329712,0.015260537154972553,0.07896140217781067,0.0004363323129985824,0.0,0.0,0.0,0.0004363323129985824,0.0,0.0,0.0,0.0004363323129985824,-0.10277920216321945,0.060240067541599274,9.876416206359863,0.0004,0.0,0.0,0.0,0.0004,0.0,0.0,0.0,0.0004
2025/04/11 12:08:25.238066744,1744366105,237521734,mti/imu_base_body,0.8275873890768375,0.5612499450904198,0.008530727620577553,-0.004983900405043087,0.017453292519943295,0.0,0.0,0.0,0.017453292519943295,0.0,0.0,0.0,0.15707963267948966,0.012050367891788483,-0.005487595684826374,0.08444041758775711,0.0004363323129985824,0.0,0.0,0.0,0.0004363323129985824,0.0,0.0,0.0,0.0004363323129985824,-0.17216110229492188,0.08997858315706253,9.690330505371094,0.0004,0.0,0.0,0.0,0.0004,0.0,0.0,0.0,0.0004
2025/04/11 12:08:25.287761617,1744366105,287375937,mti/imu_base_body,0.8278267615208713,0.5608976312361688,0.008492787517314604,-0.004957090245991927,0.017453292519943295,0.0,0.0,0.0,0.017453292519943295,0.0,0.0,0.0,0.15707963267948966,0.004859477281570435,-0.004828365053981543,0.079668328166008,0.0004363323129985824,0.0,0.0,0.0,0.0004363323129985824,0.0,0.0,0.0,0.0004363323129985824,-0.14434325695037842,0.06959252804517746,9.74023723602295,0.0004,0.0,0.0,0.0,0.0004,0.0,0.0,0.0,0.0004
2025/04/11 12:08:25.339739203,1744366105,338868360,mti/imu_base_body,0.828040437523091,0.5605824396295787,0.008477322871668316,-0.004949464864726595,0.017453292519943295,0.0,0.0,0.0,0.017453292519943295,0.0,0.0,0.0,0.15707963267948966,0.014207268133759499,0.0027215753216296434,0.07431449741125107,0.0004363323129985824,0.0,0.0,0.0,0.0004363323129985824,0.0,0.0,0.0,0.0004363323129985824,-0.10006063431501389,0.050108034163713455,9.933673858642578,0.0004,0.0,0.0,0.0,0.0004,0.0,0.0,0.0,0.0004
2025/04/11 12:08:25.387720147,1744366105,387366936,mti/imu_base_body,0.8282537660206801,0.5602667911646249,0.008500210088980123,-0.004956633847513545,0.017453292519943295,0.0,0.0,0.0,0.017453292519943295,0.0,0.0,0.0,0.15707963267948966,0.008343144319951534,0.008280059322714806,0.07768287509679794,0.0004363323129985824,0.0,0.0,0.0,0.0004363323129985824,0.0,0.0,0.0,0.0004363323129985824,-0.12823639810085297,0.05401954799890518,9.831913948059082,0.0004,0.0,0.0,0.0,0.0004,0.0,0.0,0.0,0.0004
2025/04/11 12:08:25.439918133,1744366105,438383856,mti/imu_base_body,0.8284442102627918,0.5599857354106388,0.008471792736106478,-0.00493916455504845,0.017453292519943295,0.0,0.0,0.0,0.017453292519943295,0.0,0.0,0.0,0.15707963267948966,0.006234412547200918,-0.006651919800788164,0.06777939200401306,0.0004363323129985824,0.0,0.0,0.0,0.0004363323129985824,0.0,0.0,0.0,0.0004363323129985824,-0.10195125639438629,0.05280192568898201,9.725662231445312,0.0004,0.0,0.0,0.0,0.0004,0.0,0.0,0.0,0.0004
2025/04/11 12:08:25.487853225,1744366105,487489247,mti/imu_base_body,0.8286290748467544,0.5597128001374561,0.008438502040196989,-0.004922333208685652,0.017453292519943295,0.0,0.0,0.0,0.017453292519943295,0.0,0.0,0.0,0.15707963267948966,0.0147521011531353,-0.002934919437393546,0.0646839588880539,0.0004363323129985824,0.0,0.0,0.0,0.0004363323129985824,0.0,0.0,0.0,0.0004363323129985824,-0.11811742186546326,0.05779894441366196,9.734195709228516,0.0004,0.0,0.0,0.0,0.0004,0.0,0.0,0.0,0.0004
2025/04/11 12:08:25.538604490,1744366105,537610161,mti/imu_base_body,0.8287950477457693,0.5594680790353195,0.00837152410713845,-0.00491476924597073,0.017453292519943295,0.0,0.0,0.0,0.017453292519943295,0.0,0.0,0.0,0.15707963267948966,0.013509522192180157,-0.0033441423438489437,0.06326834857463837,0.0004363323129985824,0.0,0.0,0.0,0.0004363323129985824,0.0,0.0,0.0,0.0004363323129985824,-0.09734512120485306,0.07395271211862564,9.941961288452148,0.0004,0.0,0.0,0.0,0.0004,0.0,0.0,0.0,0.0004
2025/04/11 12:08:25.587798578,1744366105,587432327,mti/imu_base_body,0.8289861541416712,0.5591840489339928,0.008404983357907478,-0.004950950811745654,0.017453292519943295,0.0,0.0,0.0,0.017453292519943295,0.0,0.0,0.0,0.15707963267948966,0.0067034452222287655,0.01188138872385025,0.06272996217012405,0.0004363323129985824,0.0,0.0,0.0,0.0004363323129985824,0.0,0.0,0.0,0.0004363323129985824,-0.10257477313280106,0.05712855979800224,9.880976676940918,0.0004,0.0,0.0,0.0,0.0004,0.0,0.0,0.0,0.0004
2025/04/11 12:08:25.645067953,1744366105,640018732,mti/imu_base_body,0.8291667967274673,0.5589162272274252,0.008417459643915489,-0.004921434721209521,0.017453292519943295,0.0,0.0,0.0,0.017453292519943295,0.0,0.0,0.0,0.15707963267948966,0.011765794828534126,0.004717431031167507,0.06826499849557877,0.0004363323129985824,0.0,0.0,0.0,0.0004363323129985824,0.0,0.0,0.0,0.0004363323129985824,-0.1252894103527069,0.06960831582546234,9.734804153442383,0.0004,0.0,0.0,0.0,0.0004,0.0,0.0,0.0,0.0004
2025/04/11 12:08:25.688780746,1744366105,688107953,mti/imu_base_body,0.8293582565461275,0.5586322619444406,0.008418822021069545,-0.004899147822135574,0.017453292519943295,0.0,0.0,0.0,0.017453292519943295,0.0,0.0,0.0,0.15707963267948966,0.0015640116762369871,0.00023888655414339155,0.06580016016960144,0.0004363323129985824,0.0,0.0,0.0,0.0004363323129985824,0.0,0.0,0.0,0.0004363323129985824,-0.08548620343208313,0.057532940059900284,9.705350875854492,0.0004,0.0,0.0,0.0,0.0004,0.0,0.0,0.0,0.0004
2025/04/11 12:08:25.738545970,1744366105,737477712,mti/imu_base_body,0.8295356496376637,0.5583686185824553,0.008439532809713192,-0.00488528898771234,0.017453292519943295,0.0,0.0,0.0,0.017453292519943295,0.0,0.0,0.0,0.15707963267948966,0.0055431947112083435,0.006441493984311819,0.06977031379938126,0.0004363323129985824,0.0,0.0,0.0,0.0004363323129985824,0.0,0.0,0.0,0.0004363323129985824,-0.06138033792376518,0.05292852222919464,9.951041221618652,0.0004,0.0,0.0,0.0,0.0004,0.0,0.0,0.0,0.0004
2025/04/11 12:08:25.789040894,1744366105,787446289,mti/imu_base_body,0.8297464658005294,0.5580550904510673,0.00845215393736073,-0.00488667647804699,0.017453292519943295,0.0,0.0,0.0,0.017453292519943295,0.0,0.0,0.0,0.15707963267948966,0.01047524157911539,0.003990021534264088,0.07201720029115677,0.0004363323129985824,0.0,0.0,0.0,0.0004363323129985824,0.0,0.0,0.0,0.0004363323129985824,-0.07917005568742752,0.04542597383260727,9.898486137390137,0.0004,0.0,0.0,0.0,0.0004,0.0,0.0,0.0,0.0004
2025/04/11 12:08:25.838620063,1744366105,837528089,mti/imu_base_body,0.8299277904235554,0.5577859463134436,0.008421658483366809,-0.004876109748615895,0.017453292519943295,0.0,0.0,0.0,0.017453292519943295,0.0,0.0,0.0,0.15707963267948966,0.009179312735795975,-0.0010094661265611649,0.06262462586164474,0.0004363323129985824,0.0,0.0,0.0,0.0004363323129985824,0.0,0.0,0.0,0.0004363323129985824,-0.1469845175743103,0.07896891981363297,9.71730899810791,0.0004,0.0,0.0,0.0,0.0004,0.0,0.0,0.0,0.0004
2025/04/11 12:08:25.889589366,1744366105,887571828,mti/imu_base_body,0.8301130044306488,0.5575105490464021,0.008399392622285852,-0.0048823949735419,0.017453292519943295,0.0,0.0,0.0,0.017453292519943295,0.0,0.0,0.0,0.15707963267948966,0.014023656956851482,0.004587749019265175,0.06599880009889603,0.0004363323129985824,0.0,0.0,0.0,0.0004363323129985824,0.0,0.0,0.0,0.0004363323129985824,-0.09985344111919403,0.07240486145019531,9.722289085388184,0.0004,0.0,0.0,0.0,0.0004,0.0,0.0,0.0,0.0004
2025/04/11 12:08:25.938789302,1744366105,937530746,mti/imu_base_body,0.8302674101434633,0.557281126453423,0.008378218387840511,-0.004855842781167185,0.017453292519943295,0.0,0.0,0.0,0.017453292519943295,0.0,0.0,0.0,0.15707963267948966,0.007576784119009972,-0.004037726204842329,0.05740400031208992,0.0004363323129985824,0.0,0.0,0.0,0.0004363323129985824,0.0,0.0,0.0,0.0004363323129985824,-0.05379696935415268,0.05420682206749916,9.89869499206543,0.0004,0.0,0.0,0.0,0.0004,0.0,0.0,0.0,0.0004
2025/04/11 12:08:25.988774841,1744366105,987385514,mti/imu_base_body,0.8304419351752531,0.5570208716518569,0.008384849298902495,-0.004861599409756513,0.017453292519943295,0.0,0.0,0.0,0.017453292519943295,0.0,0.0,0.0,0.15707963267948966,0.009932219050824642,0.0017963156569749117,0.06330475956201553,0.0004363323129985824,0.0,0.0,0.0,0.0004363323129985824,0.0,0.0,0.0,0.0004363323129985824,-0.06232445687055588,0.06604957580566406,9.930756568908691,0.0004,0.0,0.0,0.0,0.0004,0.0,0.0,0.0,0.0004
2025/04/11 12:08:26.38055594,1744366106,37571694,mti/imu_base_body,0.830610800814587,0.5567691084938159,0.008385341746522335,-0.0048521583801179385,0.017453292519943295,0.0,0.0,0.0,0.017453292519943295,0.0,0.0,0.0,0.15707963267948966,0.011385819874703884,0.00868473295122385,0.057201601564884186,0.0004363323129985824,0.0,0.0,0.0,0.0004363323129985824,0.0,0.0,0.0,0.0004363323129985824,-0.10636340826749802,0.06650056689977646,9.743179321289062,0.0004,0.0,0.0,0.0,0.0004,0.0,0.0,0.0,0.0004
2025/04/11 12:08:26.87730626,1744366106,87416874,mti/imu_base_body,0.8307573920565436,0.5565500915042947,0.008403425714476487,-0.004851146898698455,0.017453292519943295,0.0,0.0,0.0,0.017453292519943295,0.0,0.0,0.0,0.15707963267948966,0.006216469686478376,0.004046076908707619,0.05339019373059273,0.0004363323129985824,0.0,0.0,0.0,0.0004363323129985824,0.0,0.0,0.0,0.0004363323129985824,-0.1116219237446785,0.055549927055835724,9.661445617675781,0.0004,0.0,0.0,0.0,0.0004,0.0,0.0,0.0,0.0004
2025/04/11 12:08:26.137780226,1744366106,137388166,mti/imu_base_body,0.8309029749386916,0.5563332724298651,0.008374985344686175,-0.004836925261561244,0.017453292519943295,0.0,0.0,0.0,0.017453292519943295,0.0,0.0,0.0,0.15707963267948966,0.0076672956347465515,-0.004072914365679026,0.0553155355155468,0.0004363323129985824,0.0,0.0,0.0,0.0004363323129985824,0.0,0.0,0.0,0.0004363323129985824,-0.058836571872234344,0.05902879685163498,9.850447654724121,0.0004,0.0,0.0,0.0,0.0004,0.0,0.0,0.0,0.0004
2025/04/11 12:08:26.187661809,1744366106,187398769,mti/imu_base_body,0.8310706259206104,0.5560823373922155,0.008401827970468031,-0.004843352050960316,0.017453292519943295,0.0,0.0,0.0,0.017453292519943295,0.0,0.0,0.0,0.15707963267948966,0.00887804664671421,0.01101709995418787,0.06087193638086319,0.0004363323129985824,0.0,0.0,0.0,0.0004363323129985824,0.0,0.0,0.0,0.0004363323129985824,-0.0340036004781723,0.06104922667145729,9.995782852172852,0.0004,0.0,0.0,0.0,0.0004,0.0,0.0,0.0,0.0004
2025/04/11 12:08:26.237942581,1744366106,237288063,mti/imu_base_body,0.8312183870897998,0.5558607231267445,0.008426751834092144,-0.004882550805776549,0.017453292519943295,0.0,0.0,0.0,0.017453292519943295,0.0,0.0,0.0,0.15707963267948966,0.013678926974534988,0.012847023084759712,0.04837324842810631,0.0004363323129985824,0.0,0.0,0.0,0.0004363323129985824,0.0,0.0,0.0,0.0004363323129985824,-0.09392702579498291,0.07453340291976929,9.784337997436523,0.0004,0.0,0.0,0.0,0.0004,0.0,0.0,0.0,0.0004
2025/04/11 12:08:26.287600814,1744366106,287305160,mti/imu_base_body,0.8313593966009778,0.5556500819180064,0.00841326993795158,-0.004874119071388669,0.017453292519943295,0.0,0.0,0.0,0.017453292519943295,0.0,0.0,0.0,0.15707963267948966,0.009431660175323486,0.0019303859444335103,0.05455358326435089,0.0004363323129985824,0.0,0.0,0.0,0.0004363323129985824,0.0,0.0,0.0,0.0004363323129985824,-0.09650102257728577,0.06730948388576508,9.645221710205078,0.0004,0.0,0.0,0.0,0.0004,0.0,0.0,0.0,0.0004
2025/04/11 12:08:26.341340521,1744366106,339062645,mti/imu_base_body,0.8315094198960633,0.5554257260289086,0.008409844967311696,-0.004860246598437603,0.017453292519943295,0.0,0.0,0.0,0.017453292519943295,0.0,0.0,0.0,0.15707963267948966,0.008732379414141178,-0.0020583844743669033,0.0542643666267395,0.0004363323129985824,0.0,0.0,0.0,0.0004363323129985824,0.0,0.0,0.0,0.0004363323129985824,-0.05646425485610962,0.0666293352842331,9.851401329040527,0.0004,0.0,0.0,0.0,0.0004,0.0,0.0,0.0,0.0004
2025/04/11 12:08:26.388034729,1744366106,387632190,mti/imu_base_body,0.8316724058961086,0.5551820642840305,0.008387695411809913,-0.0048509106340604785,0.017453292519943295,0.0,0.0,0.0,0.017453292519943295,0.0,0.0,0.0,0.15707963267948966,0.008111892268061638,0.00018469519272912294,0.05552664399147034,0.0004363323129985824,0.0,0.0,0.0,0.0004363323129985824,0.0,0.0,0.0,0.0004363323129985824,-0.037872713059186935,0.06913623958826065,9.997946739196777,0.0004,0.0,0.0,0.0,0.0004,0.0,0.0,0.0,0.0004
2025/04/11 12:08:26.438156926,1744366106,437450447,mti/imu_base_body,0.8318148684463591,0.5549688085563957,0.008381491686653596,-0.004837019554172785,0.017453292519943295,0.0,0.0,0.0,0.017453292519943295,0.0,0.0,0.0,0.15707963267948966,0.008037337101995945,0.0030167640652507544,0.05847620964050293,0.0004363323129985824,0.0,0.0,0.0,0.0004363323129985824,0.0,0.0,0.0,0.0004363323129985824,-0.07635749131441116,0.05352743715047836,9.769800186157227,0.0004,0.0,0.0,0.0,0.0004,0.0,0.0,0.0,0.0004
2025/04/11 12:08:26.487936268,1744366106,487368907,mti/imu_base_body,0.8319667338589394,0.5547411810794329,0.008383902283616849,-0.004825551697313373,0.017453292519943295,0.0,0.0,0.0,0.017453292519943295,0.0,0.0,0.0,0.15707963267948966,0.014442047104239464,0.00540592847391963,0.045102477073669434,0.0004363323129985824,0.0,0.0,0.0,0.0004363323129985824,0.0,0.0,0.0,0.0004363323129985824,-0.10151917487382889,0.061053577810525894,9.641866683959961,0.0004,0.0,0.0,0.0,0.0004,0.0,0.0,0.0,0.0004
2025/04/11 12:08:26.537499682,1744366106,537243123,mti/imu_base_body,0.8320992828898369,0.5545423806826221,0.008385605257210285,-0.004817993933087798,0.017453292519943295,0.0,0.0,0.0,0.017453292519943295,0.0,0.0,0.0,0.15707963267948966,0.002952977316454053,0.003588416613638401,0.04797428846359253,0.0004363323129985824,0.0,0.0,0.0,0.0004363323129985824,0.0,0.0,0.0,0.0004363323129985824,-0.053901307284832,0.06676846742630005,9.8530855178833,0.0004,0.0,0.0,0.0,0.0004,0.0,0.0,0.0,0.0004
2025/04/11 12:08:26.587639310,1744366106,587336750,mti/imu_base_body,0.8322090353054504,0.554377336943579,0.008396612710792442,-0.00483598328180563,0.017453292519943295,0.0,0.0,0.0,0.017453292519943295,0.0,0.0,0.0,0.15707963267948966,0.008474132977426052,0.007898163050413132,0.04323563352227211,0.0004363323129985824,0.0,0.0,0.0,0.0004363323129985824,0.0,0.0,0.0,0.0004363323129985824,-0.03430056571960449,0.0798892080783844,9.961809158325195,0.0004,0.0,0.0,0.0,0.0004,0.0,0.0,0.0,0.0004
2025/04/11 12:08:26.641862727,1744366106,637898103,mti/imu_base_body,0.8323363175945022,0.5541854356000595,0.008454425633818848,-0.004824942403619884,0.017453292519943295,0.0,0.0,0.0,0.017453292519943295,0.0,0.0,0.0,0.15707963267948966,0.004093515686690807,0.00948338769376278,0.044056329876184464,0.0004363323129985824,0.0,0.0,0.0,0.0004363323129985824,0.0,0.0,0.0,0.0004363323129985824,-0.07674392312765121,0.06144503131508827,9.798246383666992,0.0004,0.0,0.0,0.0,0.0004,0.0,0.0,0.0,0.0004
2025/04/11 12:08:26.687431038,1744366106,687223913,mti/imu_base_body,0.8324505604793454,0.5540144023715591,0.008429090243263396,-0.004801745534564336,0.017453292519943295,0.0,0.0,0.0,0.017453292519943295,0.0,0.0,0.0,0.15707963267948966,0.01389534492045641,0.0010130091104656458,0.038981568068265915,0.0004363323129985824,0.0,0.0,0.0,0.0004363323129985824,0.0,0.0,0.0,0.0004363323129985824,-0.09597040712833405,0.06091119721531868,9.668389320373535,0.0004,0.0,0.0,0.0,0.0004,0.0,0.0,0.0,0.0004
2025/04/11 12:08:26.737772975,1744366106,737318631,mti/imu_base_body,0.8325662205773765,0.553841059283732,0.00840384028271503,-0.004790080738307525,0.017453292519943295,0.0,0.0,0.0,0.017453292519943295,0.0,0.0,0.0,0.15707963267948966,0.008916101418435574,-0.005793740041553974,0.04811614006757736,0.0004363323129985824,0.0,0.0,0.0,0.0004363323129985824,0.0,0.0,0.0,0.0004363323129985824,-0.06087581440806389,0.07061851769685745,9.829084396362305,0.0004,0.0,0.0,0.0,0.0004,0.0,0.0,0.0,0.0004
2025/04/11 12:08:26.788961538,1744366106,787423210,mti/imu_base_body,0.8326860806040206,0.5536615017648472,0.00837682254245296,-0.004760407115042047,0.017453292519943295,0.0,0.0,0.0,0.017453292519943295,0.0,0.0,0.0,0.15707963267948966,0.004341635387390852,-0.004238138906657696,0.03806164488196373,0.0004363323129985824,0.0,0.0,0.0,0.0004363323129985824,0.0,0.0,0.0,0.0004363323129985824,-0.05150932818651199,0.07917743176221848,9.931102752685547,0.0004,0.0,0.0,0.0,0.0004,0.0,0.0,0.0,0.0004
2025/04/11 12:08:26.841924469,1744366106,837387117,mti/imu_base_body,0.8327813786398038,0.5535181345761849,0.008387931078293385,-0.0047426467624799035,0.017453292519943295,0.0,0.0,0.0,0.017453292519943295,0.0,0.0,0.0,0.15707963267948966,0.009012925438582897,0.003773300675675273,0.030657630413770676,0.0004363323129985824,0.0,0.0,0.0,0.0004363323129985824,0.0,0.0,0.0,0.0004363323129985824,-0.04469544067978859,0.07570434361696243,9.851273536682129,0.0004,0.0,0.0,0.0,0.0004,0.0,0.0,0.0,0.0004
2025/04/11 12:08:26.887718558,1744366106,887392389,mti/imu_base_body,0.8328489539023419,0.5534173108065009,0.008356214556470454,-0.004698272210255906,0.017453292519943295,0.0,0.0,0.0,0.017453292519943295,0.0,0.0,0.0,0.15707963267948966,0.005570130422711372,-0.0054597570560872555,0.02931758388876915,0.0004363323129985824,0.0,0.0,0.0,0.0004363323129985824,0.0,0.0,0.0,0.0004363323129985824,-0.06759367138147354,0.06001020595431328,9.680481910705566,0.0004,0.0,0.0,0.0,0.0004,0.0,0.0,0.0,0.0004
2025/04/11 12:08:26.937569599,1744366106,937292553,mti/imu_base_body,0.8329560871235624,0.5532561282319828,0.008367389181875682,-0.004669078692750576,0.017453292519943295,0.0,0.0,0.0,0.017453292519943295,0.0,0.0,0.0,0.15707963267948966,0.004716589115560055,-0.0011070173932239413,0.03598899766802788,0.0004363323129985824,0.0,0.0,0.0,0.0004363323129985824,0.0,0.0,0.0,0.0004363323129985824,-0.08017240464687347,0.06672979891300201,9.787816047668457,0.0004,0.0,0.0,0.0,0.0004,0.0,0.0,0.0,0.0004
2025/04/11 12:08:26.991196625,1744366106,987394794,mti/imu_base_body,0.8330599759084812,0.5531004191548797,0.008333920720215358,-0.004642050784526915,0.017453292519943295,0.0,0.0,0.0,0.017453292519943295,0.0,0.0,0.0,0.15707963267948966,0.010615324601531029,0.003995267208665609,0.039360448718070984,0.0004363323129985824,0.0,0.0,0.0,0.0004363323129985824,0.0,0.0,0.0,0.0004363323129985824,-0.04340356960892677,0.05964113026857376,9.946695327758789,0.0004,0.0,0.0,0.0,0.0004,0.0,0.0,0.0,0.0004
2025/04/11 12:08:27.38168091,1744366107,37749815,mti/imu_base_body,0.8331814405308537,0.5529175829053252,0.00832121963752298,-0.004646608742754721,0.017453292519943295,0.0,0.0,0.0,0.017453292519943295,0.0,0.0,0.0,0.15707963267948966,0.008664367720484734,-0.0015608975663781166,0.04008247330784798,0.0004363323129985824,0.0,0.0,0.0,0.0004363323129985824,0.0,0.0,0.0,0.0004363323129985824,-0.06261935830116272,0.06981813162565231,9.856097221374512,0.0004,0.0,0.0,0.0,0.0004,0.0,0.0,0.0,0.0004
2025/04/11 12:08:27.90192348,1744366107,87807468,mti/imu_base_body,0.8332528523393102,0.5528103272373829,0.00832604357449186,-0.004593818291689739,0.017453292519943295,0.0,0.0,0.0,0.017453292519943295,0.0,0.0,0.0,0.15707963267948966,0.004318899940699339,-8.474661444779485e-05,0.026111284270882607,0.0004363323129985824,0.0,0.0,0.0,0.0004363323129985824,0.0,0.0,0.0,0.0004363323129985824,-0.04952748864889145,0.08043088763952255,9.688864707946777,0.0004,0.0,0.0,0.0,0.0004,0.0,0.0,0.0,0.0004
2025/04/11 12:08:27.137593631,1744366107,137283614,mti/imu_base_body,0.8333403068004231,0.5526788808517583,0.008300448971598652,-0.004592414299071696,0.017453292519943295,0.0,0.0,0.0,0.017453292519943295,0.0,0.0,0.0,0.15707963267948966,0.012944715097546577,-0.0014503347920253873,0.028599759563803673,0.0004363323129985824,0.0,0.0,0.0,0.0004363323129985824,0.0,0.0,0.0,0.0004363323129985824,-0.07313328236341476,0.06611969321966171,9.79488754272461,0.0004,0.0,0.0,0.0,0.0004,0.0,0.0,0.0,0.0004
2025/04/11 12:08:27.189388895,1744366107,187836603,mti/imu_base_body,0.8334072029769868,0.5525785793867477,0.008286656976456133,-0.004547410818678365,0.017453292519943295,0.0,0.0,0.0,0.017453292519943295,0.0,0.0,0.0,0.15707963267948966,-0.0026938836090266705,-0.002905005356296897,0.027738552540540695,0.0004363323129985824,0.0,0.0,0.0,0.0004363323129985824,0.0,0.0,0.0,0.0004363323129985824,-0.06002291291952133,0.06567209213972092,9.911784172058105,0.0004,0.0,0.0,0.0,0.0004,0.0,0.0,0.0,0.0004
2025/04/11 12:08:27.237649159,1744366107,237336107,mti/imu_base_body,0.8334731191563016,0.5524797136023023,0.00827059403723103,-0.00450810115843964,0.017453292519943295,0.0,0.0,0.0,0.017453292519943295,0.0,0.0,0.0,0.15707963267948966,0.009165205992758274,-0.003296147333458066,0.023052383214235306,0.0004363323129985824,0.0,0.0,0.0,0.0004363323129985824,0.0,0.0,0.0,0.0004363323129985824,-0.023910313844680786,0.06154712662100792,9.851004600524902,0.0004,0.0,0.0,0.0,0.0004,0.0,0.0,0.0,0.0004
2025/04/11 12:08:27.287595233,1744366107,287288418,mti/imu_base_body,0.833552332695606,0.5523606764668905,0.008248460259650727,-0.004489393511128219,0.017453292519943295,0.0,0.0,0.0,0.017453292519943295,0.0,0.0,0.0,0.15707963267948966,0.012684768997132778,-0.002188554033637047,0.02872091345489025,0.0004363323129985824,0.0,0.0,0.0,0.0004363323129985824,0.0,0.0,0.0,0.0004363323129985824,-0.061437807977199554,0.06042846292257309,9.715766906738281,0.0004,0.0,0.0,0.0,0.0004,0.0,0.0,0.0,0.0004
2025/04/11 12:08:27.337625297,1744366107,337276310,mti/imu_base_body,0.8336154381396188,0.5522658039902935,0.008236731684150529,-0.004465343145758118,0.017453292519943295,0.0,0.0,0.0,0.017453292519943295,0.0,0.0,0.0,0.15707963267948966,0.0015305746346712112,-0.003267409512773156,0.022618846967816353,0.0004363323129985824,0.0,0.0,0.0,0.0004363323129985824,0.0,0.0,0.0,0.0004363323129985824,-0.07190567255020142,0.047124266624450684,9.765711784362793,0.0004,0.0,0.0,0.0,0.0004,0.0,0.0,0.0,0.0004
2025/04/11 12:08:27.387631562,1744366107,387378824,mti/imu_base_body,0.8336759357789183,0.5521753842064387,0.008198298627516965,-0.004423469139803413,0.017453292519943295,0.0,0.0,0.0,0.017453292519943295,0.0,0.0,0.0,0.15707963267948966,0.00751489819958806,-0.003911738283932209,0.016532933339476585,0.0004363323129985824,0.0,0.0,0.0,0.0004363323129985824,0.0,0.0,0.0,0.0004363323129985824,-0.045183215290308,0.06439641118049622,9.907205581665039,0.0004,0.0,0.0,0.0,0.0004,0.0,0.0,0.0,0.0004
2025/04/11 12:08:27.437635064,1744366107,437379646,mti/imu_base_body,0.8337196333514597,0.5521096303810852,0.008188341909163893,-0.0044136222706128506,0.017453292519943295,0.0,0.0,0.0,0.017453292519943295,0.0,0.0,0.0,0.15707963267948966,0.010227366350591183,0.002509088022634387,0.016497544944286346,0.0004363323129985824,0.0,0.0,0.0,0.0004363323129985824,0.0,0.0,0.0,0.0004363323129985824,-0.04666611924767494,0.07893166691064835,9.856913566589355,0.0004,0.0,0.0,0.0,0.0004,0.0,0.0,0.0,0.0004
2025/04/11 12:08:27.488134276,1744366107,487599404,mti/imu_base_body,0.8337505246331732,0.5520630781512813,0.008188886203787094,-0.004400290761063723,0.017453292519943295,0.0,0.0,0.0,0.017453292519943295,0.0,0.0,0.0,0.15707963267948966,0.0076810820028185844,0.0020302797202020884,0.012018922716379166,0.0004363323129985824,0.0,0.0,0.0,0.0004363323129985824,0.0,0.0,0.0,0.0004363323129985824,-0.07285907864570618,0.061232201755046844,9.72237777709961,0.0004,0.0,0.0,0.0,0.0004,0.0,0.0,0.0,0.0004
2025/04/11 12:08:27.537772470,1744366107,537360277,mti/imu_base_body,0.8337891024218915,0.5520053556192142,0.00818356573687717,-0.004341578288080719,0.017453292519943295,0.0,0.0,0.0,0.017453292519943295,0.0,0.0,0.0,0.15707963267948966,0.0044728731736540794,-0.0035622690338641405,0.013619610108435154,0.0004363323129985824,0.0,0.0,0.0,0.0004363323129985824,0.0,0.0,0.0,0.0004363323129985824,-0.05658603459596634,0.05495242029428482,9.776256561279297,0.0004,0.0,0.0,0.0,0.0004,0.0,0.0,0.0,0.0004
2025/04/11 12:08:27.587567305,1744366107,587306547,mti/imu_base_body,0.8338137981058498,0.551968857952913,0.008148677593037163,-0.0043045315585934895,0.017453292519943295,0.0,0.0,0.0,0.017453292519943295,0.0,0.0,0.0,0.15707963267948966,0.006449650041759014,-0.005414724815636873,0.007904626429080963,0.0004363323129985824,0.0,0.0,0.0,0.0004363323129985824,0.0,0.0,0.0,0.0004363323129985824,-0.03838584944605827,0.06423869729042053,9.911761283874512,0.0004,0.0,0.0,0.0,0.0004,0.0,0.0,0.0,0.0004
2025/04/11 12:08:27.637746091,1744366107,637399679,mti/imu_base_body,0.83384361165818,0.5519246137450011,0.00811748216843091,-0.004261281792918606,0.017453292519943295,0.0,0.0,0.0,0.017453292519943295,0.0,0.0,0.0,0.15707963267948966,0.005060912109911442,-0.003175831865519285,0.008228360675275326,0.0004363323129985824,0.0,0.0,0.0,0.0004363323129985824,0.0,0.0,0.0,0.0004363323129985824,-0.051462046802043915,0.06979309022426605,9.875045776367188,0.0004,0.0,0.0,0.0,0.0004,0.0,0.0,0.0,0.0004
2025/04/11 12:08:27.687513472,1744366107,687278724,mti/imu_base_body,0.8338814952548179,0.5518677143097834,0.008113674070631013,-0.004224460576195318,0.017453292519943295,0.0,0.0,0.0,0.017453292519943295,0.0,0.0,0.0,0.15707963267948966,0.003841406898573041,-0.0019792080856859684,0.013526101596653461,0.0004363323129985824,0.0,0.0,0.0,0.0004363323129985824,0.0,0.0,0.0,0.0004363323129985824,-0.07101380825042725,0.06656685471534729,9.68889045715332,0.0004,0.0,0.0,0.0,0.0004,0.0,0.0,0.0,0.0004
2025/04/11 12:08:27.737624235,1744366107,737340729,mti/imu_base_body,0.8339001986103066,0.551839438550834,0.008137449555116118,-0.0041802789774632206,0.017453292519943295,0.0,0.0,0.0,0.017453292519943295,0.0,0.0,0.0,0.15707963267948966,0.0003479325969237834,0.0028394083492457867,0.006803879514336586,0.0004363323129985824,0.0,0.0,0.0,0.0004363323129985824,0.0,0.0,0.0,0.0004363323129985824,-0.07658486068248749,0.07733575999736786,9.785526275634766,0.0004,0.0,0.0,0.0,0.0004,0.0,0.0,0.0,0.0004
2025/04/11 12:08:27.787652952,1744366107,787359895,mti/imu_base_body,0.8339317788861187,0.5517913411002393,0.00818663048678105,-0.004133174555456645,0.017453292519943295,0.0,0.0,0.0,0.017453292519943295,0.0,0.0,0.0,0.15707963267948966,-0.0026771770790219307,0.003293737070634961,0.01065659336745739,0.0004363323129985824,0.0,0.0,0.0,0.0004363323129985824,0.0,0.0,0.0,0.0004363323129985824,-0.03185711428523064,0.053349435329437256,9.945002555847168,0.0004,0.0,0.0,0.0,0.0004,0.0,0.0,0.0,0.0004
2025/04/11 12:08:27.838542883,1744366107,837965754,mti/imu_base_body,0.8339570296925705,0.5517535118057464,0.008176575543349853,-0.004108338928926204,0.017453292519943295,0.0,0.0,0.0,0.017453292519943295,0.0,0.0,0.0,0.15707963267948966,0.005246653687208891,0.0033076258841902018,0.009416859596967697,0.0004363323129985824,0.0,0.0,0.0,0.0004363323129985824,0.0,0.0,0.0,0.0004363323129985824,-0.06941021978855133,0.06145360693335533,9.828368186950684,0.0004,0.0,0.0,0.0,0.0004,0.0,0.0,0.0,0.0004
2025/04/11 12:08:27.890235697,1744366107,887474213,mti/imu_base_body,0.8339713475664192,0.5517321928852932,0.00817975728456642,-0.004058367036389055,0.017453292519943295,0.0,0.0,0.0,0.017453292519943295,0.0,0.0,0.0,0.15707963267948966,0.003976012114435434,-0.002738086972385645,0.00713649345561862,0.0004363323129985824,0.0,0.0,0.0,0.0004363323129985824,0.0,0.0,0.0,0.0004363323129985824,-0.09172062575817108,0.08136958628892899,9.705835342407227,0.0004,0.0,0.0,0.0,0.0004,0.0,0.0,0.0,0.0004
2025/04/11 12:08:27.937901825,1744366107,937514450,mti/imu_base_body,0.8339905012158374,0.5517038956015333,0.008153727571833561,-0.004021465719524371,0.017453292519943295,0.0,0.0,0.0,0.017453292519943295,0.0,0.0,0.0,0.15707963267948966,0.006698847748339176,-0.002026419388130307,0.006426958832889795,0.0004363323129985824,0.0,0.0,0.0,0.0004363323129985824,0.0,0.0,0.0,0.0004363323129985824,-0.07269488275051117,0.07174846529960632,9.810367584228516,0.0004,0.0,0.0,0.0,0.0004,0.0,0.0,0.0,0.0004
2025/04/11 12:08:27.987559934,1744366107,987365833,mti/imu_base_body,0.8340036401479471,0.551684087768324,0.008168827640010137,-0.003983186939287833,0.017453292519943295,0.0,0.0,0.0,0.017453292519943295,0.0,0.0,0.0,0.15707963267948966,0.0019091930007562041,0.00040121254278346896,0.003845627186819911,0.0004363323129985824,0.0,0.0,0.0,0.0004363323129985824,0.0,0.0,0.0,0.0004363323129985824,-0.06168944388628006,0.06942825764417648,9.91226863861084,0.0004,0.0,0.0,0.0,0.0004,0.0,0.0,0.0,0.0004
2025/04/11 12:08:28.37631372,1744366108,37387314,mti/imu_base_body,0.8340246167188305,0.5516523677250647,0.00818079131645459,-0.003959614094087082,0.017453292519943295,0.0,0.0,0.0,0.017453292519943295,0.0,0.0,0.0,0.15707963267948966,0.0024415759835392237,0.007379116024821997,0.005526769906282425,0.0004363323129985824,0.0,0.0,0.0,0.0004363323129985824,0.0,0.0,0.0,0.0004363323129985824,-0.09037385880947113,0.06265759468078613,9.819032669067383,0.0004,0.0,0.0,0.0,0.0004,0.0,0.0,0.0,0.0004
2025/04/11 12:08:28.95096553,1744366108,87557110,mti/imu_base_body,0.8340287997697997,0.5516460451174865,0.008175348220358687,-0.003970609809506446,0.017453292519943295,0.0,0.0,0.0,0.017453292519943295,0.0,0.0,0.0,0.15707963267948966,0.01417655311524868,-0.0008653166587464511,0.0021252031438052654,0.0004363323129985824,0.0,0.0,0.0,0.0004363323129985824,0.0,0.0,0.0,0.0004363323129985824,-0.09859850257635117,0.0614292286336422,9.72252082824707,0.0004,0.0,0.0,0.0,0.0004,0.0,0.0,0.0,0.0004
2025/04/11 12:08:28.138254222,1744366108,137409483,mti/imu_base_body,0.8340187602241029,0.5516617779390722,0.00815958462733245,-0.003925752674497947,0.017453292519943295,0.0,0.0,0.0,0.017453292519943295,0.0,0.0,0.0,0.15707963267948966,0.0033926672767847776,-0.0025711432099342346,-0.004102987237274647,0.0004363323129985824,0.0,0.0,0.0,0.0004363323129985824,0.0,0.0,0.0,0.0004363323129985824,-0.08884155750274658,0.07484928518533707,9.782780647277832,0.0004,0.0,0.0,0.0,0.0004,0.0,0.0,0.0,0.0004
2025/04/11 12:08:28.190040112,1744366108,188766498,mti/imu_base_body,0.8340164766329297,0.5516659502583621,0.008155964880096123,-0.003830961655611878,0.017453292519943295,0.0,0.0,0.0,0.017453292519943295,0.0,0.0,0.0,0.15707963267948966,-0.0016354972030967474,-0.0048633175902068615,-0.0040491847321391106,0.0004363323129985824,0.0,0.0,0.0,0.0004363323129985824,0.0,0.0,0.0,0.0004363323129985824,-0.07484258711338043,0.05047868937253952,9.91672420501709,0.0004,0.0,0.0,0.0,0.0004,0.0,0.0,0.0,0.0004
2025/04/11 12:08:28.238051422,1744366108,237693076,mti/imu_base_body,0.8340083347878646,0.5516784664244336,0.008151701656582591,-0.003810111292368743,0.017453292519943295,0.0,0.0,0.0,0.017453292519943295,0.0,0.0,0.0,0.15707963267948966,0.0064436327666044235,0.001957929227501154,-0.004178325179964304,0.0004363323129985824,0.0,0.0,0.0,0.0004363323129985824,0.0,0.0,0.0,0.0004363323129985824,-0.08352053910493851,0.03399787098169327,9.867874145507812,0.0004,0.0,0.0,0.0,0.0004,0.0,0.0,0.0,0.0004
2025/04/11 12:08:28.288192512,1744366108,287441762,mti/imu_base_body,0.8340074512186342,0.5516799774445837,0.008140872642992455,-0.003807885391089734,0.017453292519943295,0.0,0.0,0.0,0.017453292519943295,0.0,0.0,0.0,0.15707963267948966,0.014605029486119747,0.0003844554303213954,-0.00046228812425397336,0.0004363323129985824,0.0,0.0,0.0,0.0004363323129985824,0.0,0.0,0.0,0.0004363323129985824,-0.10133673250675201,0.04201889783143997,9.726492881774902,0.0004,0.0,0.0,0.0,0.0004,0.0,0.0,0.0,0.0004
2025/04/11 12:08:28.339217004,1744366108,337881850,mti/imu_base_body,0.8339773782812008,0.551725865541058,0.008099360721912929,-0.0038343401103272377,0.017453292519943295,0.0,0.0,0.0,0.017453292519943295,0.0,0.0,0.0,0.15707963267948966,0.016427792608737946,0.0012381310807541013,-0.011683258228003979,0.0004363323129985824,0.0,0.0,0.0,0.0004363323129985824,0.0,0.0,0.0,0.0004363323129985824,-0.11013928055763245,0.06736693531274796,9.77776050567627,0.0004,0.0,0.0,0.0,0.0004,0.0,0.0,0.0,0.0004
2025/04/11 12:08:28.387720819,1744366108,387460421,mti/imu_base_body,0.833942809450623,0.5517782345136054,0.00810574148611484,-0.0038036084985961977,0.017453292519943295,0.0,0.0,0.0,0.017453292519943295,0.0,0.0,0.0,0.15707963267948966,0.0027337446808815002,-0.0002399568766122684,-0.012776590883731842,0.0004363323129985824,0.0,0.0,0.0,0.0004363323129985824,0.0,0.0,0.0,0.0004363323129985824,-0.08915478736162186,0.04916033893823624,9.912896156311035,0.0004,0.0,0.0,0.0,0.0004,0.0,0.0,0.0,0.0004
2025/04/11 12:08:28.437954271,1744366108,437562690,mti/imu_base_body,0.8339002140850003,0.551843330212415,0.008070786271119835,-0.0037728315663344194,0.017453292519943295,0.0,0.0,0.0,0.017453292519943295,0.0,0.0,0.0,0.15707963267948966,0.009101067669689655,0.0008541084243915975,-0.013667449355125427,0.0004363323129985824,0.0,0.0,0.0,0.0004363323129985824,0.0,0.0,0.0,0.0004363323129985824,-0.09061954915523529,0.049104295670986176,9.856718063354492,0.0004,0.0,0.0,0.0,0.0004,0.0,0.0,0.0,0.0004
2025/04/11 12:08:28.487706450,1744366108,487388813,mti/imu_base_body,0.8338720972978478,0.5518859837902866,0.008063838975293502,-0.003763076520165561,0.017453292519943295,0.0,0.0,0.0,0.017453292519943295,0.0,0.0,0.0,0.15707963267948966,0.011135734617710114,-0.006571299862116575,-0.011213460937142372,0.0004363323129985824,0.0,0.0,0.0,0.0004363323129985824,0.0,0.0,0.0,0.0004363323129985824,-0.12978070974349976,0.07087530940771103,9.729172706604004,0.0004,0.0,0.0,0.0,0.0004,0.0,0.0,0.0,0.0004
