time,header_stamp_secs,header_stamp_nsecs,header_frame_id,orientation_x,orientation_y,orientation_z,orientation_w,orientation_covariance_0,orientation_covariance_1,orientation_covariance_2,orientation_covariance_3,orientation_covariance_4,orientation_covariance_5,orientation_covariance_6,orientation_covariance_7,orientation_covariance_8,angular_velocity_x,angular_velocity_y,angular_velocity_z,angular_velocity_covariance_0,angular_velocity_covariance_1,angular_velocity_covariance_2,angular_velocity_covariance_3,angular_velocity_covariance_4,angular_velocity_covariance_5,angular_velocity_covariance_6,angular_velocity_covariance_7,angular_velocity_covariance_8,linear_acceleration_x,linear_acceleration_y,linear_acceleration_z,linear_acceleration_covariance_0,linear_acceleration_covariance_1,linear_acceleration_covariance_2,linear_acceleration_covariance_3,linear_acceleration_covariance_4,linear_acceleration_covariance_5,linear_acceleration_covariance_6,linear_acceleration_covariance_7,linear_acceleration_covariance_8
2025/05/21 12:18:41.737769462,1747822720,777536324,mA1/imu,0.04224240107191356,0.9991070263962314,0.0007331554289862891,0.0004379959781463114,0.0,0.0,0.0,0.0,0.0,0.0,0.0,0.0,0.0,-0.0012169060422872221,2.6900919369611433e-05,-6.178738288837947e-06,0.0,0.0,0.0,0.0,0.0,0.0,0.0,0.0,0.0,0.008309647841488986,-0.06116922174937781,9.809045618311886,0.0,0.0,0.0,0.0,0.0,0.0,0.0,0.0,0.0
2025/05/21 12:18:41.762613966,1747822720,829651623,mA1/imu,0.04224224307087999,0.9991070243017817,0.0007451073874485644,0.0004378426212886901,0.0,0.0,0.0,0.0,0.0,0.0,0.0,0.0,0.0,-0.0014225054910155103,2.9620270309179558e-05,-6.082713721218628e-06,0.0,0.0,0.0,0.0,0.0,0.0,0.0,0.0,0.0,0.008316326838868505,-0.069878480068302,9.80935028566253,0.0,0.0,0.0,0.0,0.0,0.0,0.0,0.0,0.0
2025/05/21 12:18:42.684026209,1747822721,732621738,mA1/imu,0.04223938145669923,0.9991071292610234,0.0007636354982598171,0.0004424644369553986,0.0,0.0,0.0,0.0,0.0,0.0,0.0,0.0,0.0,-0.00011311124413532226,7.323354212004367e-06,-6.78162607655181e-06,0.0,0.0,0.0,0.0,0.0,0.0,0.0,0.0,0.0,0.00827158279051804,-0.0699987403402653,9.809032939995406,0.0,0.0,0.0,0.0,0.0,0.0,0.0,0.0,0.0
2025/05/21 12:18:42.686132130,1747822721,775867772,mA1/imu,0.04223922234471466,0.9991071514610752,0.0007436860694710422,0.0004415043373791043,0.0,0.0,0.0,0.0,0.0,0.0,0.0,0.0,0.0,-0.00030073929079199076,1.8240402074136685e-05,-6.724219962584776e-06,0.0,0.0,0.0,0.0,0.0,0.0,0.0,0.0,0.0,0.007878132761517147,0.5504363559340653,9.810464620880015,0.0,0.0,0.0,0.0,0.0,0.0,0.0,0.0,0.0
2025/05/21 12:18:42.694978811,1747822721,828948193,mA1/imu,0.042239064590881226,0.9991071725066214,0.0007247288233075937,0.0004404956802873487,0.0,0.0,0.0,0.0,0.0,0.0,0.0,0.0,0.0,0.0012001013845786138,1.241148635448928e-05,-6.595691730808803e-06,0.0,0.0,0.0,0.0,0.0,0.0,0.0,0.0,0.0,0.007471521329867879,0.03087177609341039,9.809515343290077,0.0,0.0,0.0,0.0,0.0,0.0,0.0,0.0,0.0
2025/05/21 12:18:43.179293727,1747822722,228587068,mA1/imu,0.042237838620812304,0.9991072240245412,0.0007273071713583214,0.0004369380918643974,0.0,0.0,0.0,0.0,0.0,0.0,0.0,0.0,0.0,0.0004508366571277869,6.047422012228143e-06,-5.6051427352833e-06,0.0,0.0,0.0,0.0,0.0,0.0,0.0,0.0,0.0,0.007774057590587967,-0.5803639346050778,9.81055838837924,0.0,0.0,0.0,0.0,0.0,0.0,0.0,0.0,0.0
2025/05/21 12:18:43.182850406,1747822722,278470617,mA1/imu,0.04223769128725066,0.9991072167594818,0.0007453154502364816,0.00043744568181748,0.0,0.0,0.0,0.0,0.0,0.0,0.0,0.0,0.0,-0.0012267958125143999,6.2946891391825895e-06,-5.539194441361345e-06,0.0,0.0,0.0,0.0,0.0,0.0,0.0,0.0,0.0,0.008316973694857814,-0.061131281014825234,9.808897058589293,0.0,0.0,0.0,0.0,0.0,0.0,0.0,0.0,0.0
2025/05/21 12:18:43.191111559,1747822722,329499076,mA1/imu,0.04223754920121273,0.9991072136902139,0.0007571609307009189,0.00043783213380075713,0.0,0.0,0.0,0.0,0.0,0.0,0.0,0.0,0.0,-0.001410370457247756,7.229494078451949e-06,-5.477599185923751e-06,0.0,0.0,0.0,0.0,0.0,0.0,0.0,0.0,0.0,0.00831330136155908,-0.06985686637334565,9.809110538990582,0.0,0.0,0.0,0.0,0.0,0.0,0.0,0.0,0.0
2025/05/21 12:18:43.200961851,1747822722,379308906,mA1/imu,0.042237408532884664,0.9991072101524767,0.0007692633021990747,0.00043837852662640455,0.0,0.0,0.0,0.0,0.0,0.0,0.0,0.0,0.0,-0.0015392990818466892,8.254149575211672e-06,-5.44013723464731e-06,0.0,0.0,0.0,0.0,0.0,0.0,0.0,0.0,0.0,0.0079008090470785,0.5352920064125928,9.81054892895118,0.0,0.0,0.0,0.0,0.0,0.0,0.0,0.0,0.0
2025/05/21 12:18:43.213089537,1747822722,430358436,mA1/imu,0.04223726890398031,0.9991072070166253,0.0007805615095705786,0.0004390064929888941,0.0,0.0,0.0,0.0,0.0,0.0,0.0,0.0,0.0,1.439414614467338e-05,-4.816892151340103e-06,-5.379747432339769e-06,0.0,0.0,0.0,0.0,0.0,0.0,0.0,0.0,0.0,0.007484863640505996,0.03231651196738827,9.809344227314797,0.0,0.0,0.0,0.0,0.0,0.0,0.0,0.0,0.0
2025/05/21 12:18:43.224510556,1747822722,480354579,mA1/imu,0.04223712557577349,0.9991071974707821,0.0007997440816161765,0.00043999384069083255,0.0,0.0,0.0,0.0,0.0,0.0,0.0,0.0,0.0,0.00014742215685916,-1.7301997592806216e-05,-5.379678183390452e-06,0.0,0.0,0.0,0.0,0.0,0.0,0.0,0.0,0.0,0.008248241304161356,0.03629650058596417,9.81144700878457,0.0,0.0,0.0,0.0,0.0,0.0,0.0,0.0,0.0
2025/05/21 12:18:44.185270659,1747822723,232153776,mA1/imu,0.04227214501960585,0.9991057487816413,0.0007580779952456438,0.00044025523311241985,0.0,0.0,0.0,0.0,0.0,0.0,0.0,0.0,0.0,-0.00021786920045848348,-0.00011189126843930449,1.5966787806997542e-06,0.0,0.0,0.0,0.0,0.0,0.0,0.0,0.0,0.0,0.031746682579904574,-0.07234204298106481,9.807531094712662,0.0,0.0,0.0,0.0,0.0,0.0,0.0,0.0,0.0
2025/05/21 12:18:44.188639643,1747822723,281821524,mA1/imu,0.042269558453462384,0.9991058679727884,0.0007409699456952313,0.00044718455908185735,0.0,0.0,0.0,0.0,0.0,0.0,0.0,0.0,0.0,-0.00042821314697859476,-0.0002985629627196846,-0.00011223156418856043,0.0,0.0,0.0,0.0,0.0,0.0,0.0,0.0,0.0,0.00751542635387196,0.5506904709722817,9.810701245362422,0.0,0.0,0.0,0.0,0.0,0.0,0.0,0.0,0.0
2025/05/21 12:18:44.196237968,1747822723,332899064,mA1/imu,0.0422668058870918,0.9991059931856062,0.0007250179300202218,0.0004537066315431249,0.0,0.0,0.0,0.0,0.0,0.0,0.0,0.0,0.0,0.0010671130659772612,-0.00026712671012861196,-0.0001096759539982673,0.0,0.0,0.0,0.0,0.0,0.0,0.0,0.0,0.0,0.007025358054459,0.031112969996589093,9.809708667645577,0.0,0.0,0.0,0.0,0.0,0.0,0.0,0.0,0.0
2025/05/21 12:18:44.206904847,1747822723,382597020,mA1/imu,0.042264110050529956,0.9991061087770027,0.0007193091025656551,0.0004593479375875481,0.0,0.0,0.0,0.0,0.0,0.0,0.0,0.0,0.0,0.0010832260330243982,-0.00022012938875451773,-0.00010710912048526163,0.0,0.0,0.0,0.0,0.0,0.0,0.0,0.0,0.0,0.007736851316567014,0.03547536266193427,9.811877078054803,0.0,0.0,0.0,0.0,0.0,0.0,0.0,0.0,0.0
2025/05/21 12:18:44.630552427,1747822723,675923132,mA1/imu,0.042249204084157534,0.9991067337901204,0.0007275390853843163,0.00045818814040671024,0.0,0.0,0.0,0.0,0.0,0.0,0.0,0.0,0.0,0.0003968231725735657,0.00019614492775350906,-9.209238986996983e-05,0.0,0.0,0.0,0.0,0.0,0.0,0.0,0.0,0.0,0.00792250556799682,0.03558930786071375,9.811554410510194,0.0,0.0,0.0,0.0,0.0,0.0,0.0,0.0,0.0
2025/05/21 12:18:44.642870586,1747822723,726905031,mA1/imu,0.04224692183243041,0.9991068218056507,0.0007423196760609912,0.00045296643876092843,0.0,0.0,0.0,0.0,0.0,0.0,0.0,0.0,0.0,0.00047195730319806215,0.0002422439250727985,-8.991100468928809e-05,0.0,0.0,0.0,0.0,0.0,0.0,0.0,0.0,0.0,0.0075466230690701755,-0.5804280315620275,9.810401393060403,0.0,0.0,0.0,0.0,0.0,0.0,0.0,0.0,0.0
2025/05/21 12:18:44.651935355,1747822723,776758282,mA1/imu,0.04224469336624496,0.9991069057323957,0.0007595934101693585,0.00044701015763046187,0.0,0.0,0.0,0.0,0.0,0.0,0.0,0.0,0.0,-0.0011763343825717616,0.00027506193418985503,-8.77944235018269e-05,0.0,0.0,0.0,0.0,0.0,0.0,0.0,0.0,0.0,0.008136780578377922,-0.06120573962299059,9.808706989480841,0.0,0.0,0.0,0.0,0.0,0.0,0.0,0.0,0.0
2025/05/21 12:18:44.662140791,1747822723,827835136,mA1/imu,0.04224252059556419,0.999106992551596,0.0007700511883321522,0.00044035145711790767,0.0,0.0,0.0,0.0,0.0,0.0,0.0,0.0,0.0,-0.0013325504207261723,0.0002912637512608489,-8.58536458258805e-05,0.0,0.0,0.0,0.0,0.0,0.0,0.0,0.0,0.0,0.008242886519544055,-0.069931741279403,9.808916954472387,0.0,0.0,0.0,0.0,0.0,0.0,0.0,0.0,0.0
2025/05/21 12:18:44.672410152,1747822723,877591604,mA1/imu,0.04224039755324173,0.9991070771995473,0.000780388427665886,0.00043370292129449057,0.0,0.0,0.0,0.0,0.0,0.0,0.0,0.0,0.0,-0.0014802666936806982,0.0002911512625253233,-8.404199449150114e-05,0.0,0.0,0.0,0.0,0.0,0.0,0.0,0.0,0.0,0.00785795050148849,0.5505939649756562,9.81019272368858,0.0,0.0,0.0,0.0,0.0,0.0,0.0,0.0,0.0
2025/05/21 12:18:45.632945243,1747822724,679526453,mA1/imu,0.04211190753234605,0.9991124307135538,0.0007828458355318397,0.0005702543633680222,0.0,0.0,0.0,0.0,0.0,0.0,0.0,0.0,0.0,-0.0005132840185039265,-0.001436861558533684,-0.0015200505609163338,0.0,0.0,0.0,0.0,0.0,0.0,0.0,0.0,0.0,0.02830320353457788,-0.08084905817639132,9.807565559756409,0.0,0.0,0.0,0.0,0.0,0.0,0.0,0.0,0.0
2025/05/21 12:18:45.636099239,1747822724,730482013,mA1/imu,0.04206808939285785,0.9991142611710311,0.0007748009846247976,0.0006071761964848177,0.0,0.0,0.0,0.0,0.0,0.0,0.0,0.0,0.0,-0.000677597078912186,-0.0014943234020994283,-0.001885323291862105,0.0,0.0,0.0,0.0,0.0,0.0,0.0,0.0,0.0,0.027399858436119244,-0.0855761827312264,9.807713535259662,0.0,0.0,0.0,0.0,0.0,0.0,0.0,0.0,0.0
2025/05/21 12:18:45.644089716,1747822724,780111202,mA1/imu,0.042014644690222196,0.9991164858749461,0.0007748062685179986,0.0006457241668174426,0.0,0.0,0.0,0.0,0.0,0.0,0.0,0.0,0.0,-0.00120450000372631,-0.001511826333092271,-0.0023006654575933165,0.0,0.0,0.0,0.0,0.0,0.0,0.0,0.0,0.0,0.020545622380751326,-0.1092316945959535,9.811105919623529,0.0,0.0,0.0,0.0,0.0,0.0,0.0,0.0,0.0
2025/05/21 12:18:45.655093606,1747822724,831190143,mA1/imu,0.041956341977112545,0.9991189189665391,0.0007704713252759469,0.0006763911373333225,0.0,0.0,0.0,0.0,0.0,0.0,0.0,0.0,0.0,-0.00203144412797986,-0.0010064038382553559,-0.002356022392219046,0.0,0.0,0.0,0.0,0.0,0.0,0.0,0.0,0.0,0.008838791946208723,0.4695094957233005,9.81093946265633,0.0,0.0,0.0,0.0,0.0,0.0,0.0,0.0,0.0
2025/05/21 12:18:45.668436348,1747822724,881192015,mA1/imu,0.04189686294836783,0.9991214131318314,0.0007581160599375404,0.0006927889847258241,0.0,0.0,0.0,0.0,0.0,0.0,0.0,0.0,0.0,8.956517304524922e-05,-0.0004338301220283505,-0.0024041831076759665,0.0,0.0,0.0,0.0,0.0,0.0,0.0,0.0,0.0,0.008281111719580354,0.07379369597690305,9.811468003977623,0.0,0.0,0.0,0.0,0.0,0.0,0.0,0.0,0.0
2025/05/21 12:18:45.680250902,1747822724,934597530,mA1/imu,0.04183944615879837,0.9991238203943891,0.0007578888918663254,0.00069128147176121,0.0,0.0,0.0,0.0,0.0,0.0,0.0,0.0,0.0,0.0009200099910855989,0.0005287460296173796,-0.0021192116558148206,0.0,0.0,0.0,0.0,0.0,0.0,0.0,0.0,0.0,-0.012923665042306734,0.11334825586404147,9.810672693460578,0.0,0.0,0.0,0.0,0.0,0.0,0.0,0.0,0.0
2025/05/21 12:18:46.127112243,1747822725,176859800,mA1/imu,0.04154701603355304,0.9991361358014779,0.0007666098012050613,0.0004897997665648764,0.0,0.0,0.0,0.0,0.0,0.0,0.0,0.0,0.0,-0.0008770800865306705,0.0020749937976165486,-0.0026777323641412965,0.0,0.0,0.0,0.0,0.0,0.0,0.0,0.0,0.0,0.00789324462141891,0.5564262687931909,9.811154740932938,0.0,0.0,0.0,0.0,0.0,0.0,0.0,0.0,0.0
2025/05/21 12:18:46.128172540,1747822725,228271950,mA1/imu,0.041479650522512505,0.9991389521744974,0.0007755640949906667,0.00043742486433650315,0.0,0.0,0.0,0.0,0.0,0.0,0.0,0.0,0.0,-0.0008523402922624692,0.0021323890069985633,-0.00268341999974813,0.0,0.0,0.0,0.0,0.0,0.0,0.0,0.0,0.0,0.008552529056269038,-0.06869205672928846,9.809802378478379,0.0,0.0,0.0,0.0,0.0,0.0,0.0,0.0,0.0
2025/05/21 12:18:46.138265686,1747822725,277692017,mA1/imu,0.04141339521089113,0.9991417257057402,0.0007715413587780153,0.00038389424771333636,0.0,0.0,0.0,0.0,0.0,0.0,0.0,0.0,0.0,0.0010178265230502013,0.002110811901210796,-0.0026565472656317392,0.0,0.0,0.0,0.0,0.0,0.0,0.0,0.0,0.0,0.008310810109015378,-0.5731234063965089,9.808625046198433,0.0,0.0,0.0,0.0,0.0,0.0,0.0,0.0,0.0
2025/05/21 12:18:46.149456190,1747822725,328995335,mA1/imu,0.041346374479428204,0.9991445136786418,0.0007791380231979096,0.00033323747976353696,0.0,0.0,0.0,0.0,0.0,0.0,0.0,0.0,0.0,0.0012171831895204787,0.0019610825673435184,-0.0026964076619936024,0.0,0.0,0.0,0.0,0.0,0.0,0.0,0.0,0.0,0.007836467155901776,-0.5585834833244169,9.808001703404537,0.0,0.0,0.0,0.0,0.0,0.0,0.0,0.0,0.0
2025/05/21 12:18:46.161092130,1747822725,378487199,mA1/imu,0.04127843105414442,0.9991473381926875,0.0007779137022265022,0.00028733681889804954,0.0,0.0,0.0,0.0,0.0,0.0,0.0,0.0,0.0,-7.464700581239236e-05,0.0017371357110560577,-0.0027306478506470525,0.0,0.0,0.0,0.0,0.0,0.0,0.0,0.0,0.0,0.0077285128847184754,-0.020486782768676524,9.809863667271296,0.0,0.0,0.0,0.0,0.0,0.0,0.0,0.0,0.0
2025/05/21 12:18:46.173876533,1747822725,429844535,mA1/imu,0.04121067000378867,0.9991501437880403,0.000780454454930239,0.0002484693567693584,0.0,0.0,0.0,0.0,0.0,0.0,0.0,0.0,0.0,-1.2361953162671994e-05,0.0014344276660557662,-0.002672549069277334,0.0,0.0,0.0,0.0,0.0,0.0,0.0,0.0,0.0,0.007146901055926417,-0.013710804644792064,9.80965671815285,0.0,0.0,0.0,0.0,0.0,0.0,0.0,0.0,0.0
2025/05/21 12:18:47.126766869,1747822726,176063462,mA1/imu,0.04022151236481462,0.9991904086520963,0.000764674234654534,0.0004152999624209959,0.0,0.0,0.0,0.0,0.0,0.0,0.0,0.0,0.0,-0.000701527231221064,0.0005703717202290015,-0.0020020377660829496,0.0,0.0,0.0,0.0,0.0,0.0,0.0,0.0,0.0,-0.0007133478470567707,0.5593180079517012,9.811252471317223,0.0,0.0,0.0,0.0,0.0,0.0,0.0,0.0,0.0
2025/05/21 12:18:47.129325399,1747822726,227024885,mA1/imu,0.04017545815804076,0.9991922688413083,0.0007649012798738643,0.00039670591420342896,0.0,0.0,0.0,0.0,0.0,0.0,0.0,0.0,0.0,-0.0005598852356443754,0.0010714600142780759,-0.0015992020085244878,0.0,0.0,0.0,0.0,0.0,0.0,0.0,0.0,0.0,-0.05084321547439079,-0.055666925384774794,9.807525768545817,0.0,0.0,0.0,0.0,0.0,0.0,0.0,0.0,0.0
2025/05/21 12:18:47.138241308,1747822726,276880922,mA1/imu,0.040145418337917634,0.9991934970781139,0.0007573700976471714,0.00035661438286863604,0.0,0.0,0.0,0.0,0.0,0.0,0.0,0.0,0.0,0.0010627443743440267,0.001656598917057004,-0.001095748246673267,0.0,0.0,0.0,0.0,0.0,0.0,0.0,0.0,0.0,0.0033521881028805356,-0.5822652384278495,9.80867687596892,0.0,0.0,0.0,0.0,0.0,0.0,0.0,0.0,0.0
2025/05/21 12:18:47.149309251,1747822726,328347867,mA1/imu,0.04012060758853979,0.999194512905316,0.0007502139704019078,0.0003152865884984841,0.0,0.0,0.0,0.0,0.0,0.0,0.0,0.0,0.0,0.0009337757432700875,0.0016058995745739102,-0.000923912753154502,0.0,0.0,0.0,0.0,0.0,0.0,0.0,0.0,0.0,0.0028183962821060086,0.04015337775292318,9.810216714460442,0.0,0.0,0.0,0.0,0.0,0.0,0.0,0.0,0.0
2025/05/21 12:18:47.159646939,1747822726,377725719,mA1/imu,0.0401000003823689,0.9991953507742259,0.0007510396851764371,0.0002773083063930494,0.0,0.0,0.0,0.0,0.0,0.0,0.0,0.0,0.0,-0.0006627721846578935,0.00145971657408234,-0.000758096414730475,0.0,0.0,0.0,0.0,0.0,0.0,0.0,0.0,0.0,0.0034652274948837923,0.5590816699086257,9.810936283095465,0.0,0.0,0.0,0.0,0.0,0.0,0.0,0.0,0.0
2025/05/21 12:18:47.171177234,1747822726,428953631,mA1/imu,0.040083453852820944,0.9991960228257923,0.0007515020453860097,0.00024482855882540126,0.0,0.0,0.0,0.0,0.0,0.0,0.0,0.0,0.0,-0.0005612227141172225,0.0011930565791435975,-0.0005979470994640307,0.0,0.0,0.0,0.0,0.0,0.0,0.0,0.0,0.0,0.005446508449435434,-0.06383947359842816,9.809414255600064,0.0,0.0,0.0,0.0,0.0,0.0,0.0,0.0,0.0
2025/05/21 12:18:48.128517450,1747822727,175983550,mA1/imu,0.039853092882692516,0.9992050904776071,0.0008139916553591839,0.0005055382335821944,0.0,0.0,0.0,0.0,0.0,0.0,0.0,0.0,0.0,-0.0008398254800761756,-0.000663886030063006,-0.0005767077548513219,0.0,0.0,0.0,0.0,0.0,0.0,0.0,0.0,0.0,0.0035047546107680417,-0.058387340605549606,9.810838402363691,0.0,0.0,0.0,0.0,0.0,0.0,0.0,0.0,0.0
2025/05/21 12:18:48.130068247,1747822727,227239785,mA1/imu,0.039841987682179315,0.9992055302701257,0.0008106513620304591,0.0005168553947881882,0.0,0.0,0.0,0.0,0.0,0.0,0.0,0.0,0.0,0.000848339203293852,-0.00010099243661603849,-0.00022229886616643535,0.0,0.0,0.0,0.0,0.0,0.0,0.0,0.0,0.0,-0.046980996835209704,-0.5741701009293696,9.806763524775405,0.0,0.0,0.0,0.0,0.0,0.0,0.0,0.0,0.0
2025/05/21 12:18:48.139294544,1747822727,276862303,mA1/imu,0.03984552486163027,0.9992053994502538,0.0008061815277649512,0.0005039139848244553,0.0,0.0,0.0,0.0,0.0,0.0,0.0,0.0,0.0,0.0008259327694151077,0.0006557496720895184,0.00022819856589133402,0.0,0.0,0.0,0.0,0.0,0.0,0.0,0.0,0.0,0.0065579061063831675,0.03483622506154903,9.809885828900596,0.0,0.0,0.0,0.0,0.0,0.0,0.0,0.0,0.0
2025/05/21 12:18:48.149626228,1747822727,328341878,mA1/imu,0.03985270449031009,0.9992051214963619,0.000807253111210449,0.0004852449517087448,0.0,0.0,0.0,0.0,0.0,0.0,0.0,0.0,0.0,-0.0006690971921606744,0.0007715292630108546,0.0003132703262628005,0.0,0.0,0.0,0.0,0.0,0.0,0.0,0.0,0.0,0.009820396389099161,0.5587528870252583,9.811535998613161,0.0,0.0,0.0,0.0,0.0,0.0,0.0,0.0,0.0
2025/05/21 12:18:48.160058878,1747822727,377649212,mA1/imu,0.03986202843596998,0.999204760888374,0.0008053766521745506,0.0004646239614486392,0.0,0.0,0.0,0.0,0.0,0.0,0.0,0.0,0.0,-0.0004380743131854388,0.0008679466268974557,0.00042327080188728943,0.0,0.0,0.0,0.0,0.0,0.0,0.0,0.0,0.0,0.006332148173344311,-0.05942016676787463,9.810723688341415,0.0,0.0,0.0,0.0,0.0,0.0,0.0,0.0,0.0
2025/05/21 12:18:48.175943689,1747822727,429072567,mA1/imu,0.03988029295744028,0.9992040563551103,0.0007934811329271068,0.0004317230755643608,0.0,0.0,0.0,0.0,0.0,0.0,0.0,0.0,0.0,0.0012758388632841768,0.001891549988586653,0.0011331967166408959,0.0,0.0,0.0,0.0,0.0,0.0,0.0,0.0,0.0,-0.04127366571042413,-0.575616752717486,9.806611796522635,0.0,0.0,0.0,0.0,0.0,0.0,0.0,0.0,0.0
2025/05/21 12:18:49.131796556,1747822728,178409885,mA1/imu,0.040602477343774854,0.9991749925085316,0.0007792921672828623,0.0004072871744051632,0.0,0.0,0.0,0.0,0.0,0.0,0.0,0.0,0.0,-0.0011201253070041077,0.00011244804741915543,0.0025338937264299697,0.0,0.0,0.0,0.0,0.0,0.0,0.0,0.0,0.0,0.0008102264508657569,-0.04474284996794559,9.810718423240155,0.0,0.0,0.0,0.0,0.0,0.0,0.0,0.0,0.0
2025/05/21 12:18:49.132534151,1747822728,229469028,mA1/imu,0.04066539662722195,0.9991724253419888,0.0007913864448093228,0.00040455018665381745,0.0,0.0,0.0,0.0,0.0,0.0,0.0,0.0,0.0,-0.0005284288176952875,0.00013762767479980856,0.002505592154108309,0.0,0.0,0.0,0.0,0.0,0.0,0.0,0.0,0.0,0.0031909075314754684,-0.007048622837932795,9.809670222211231,0.0,0.0,0.0,0.0,0.0,0.0,0.0,0.0,0.0
2025/05/21 12:18:49.142258315,1747822728,279381437,mA1/imu,0.040727606854324444,0.9991698797040235,0.000807524699244025,0.00040179102368381037,0.0,0.0,0.0,0.0,0.0,0.0,0.0,0.0,0.0,-0.00043179073733668534,0.0001419588143989523,0.0024788607401239147,0.0,0.0,0.0,0.0,0.0,0.0,0.0,0.0,0.0,0.0033433656136285907,0.5890723183063044,9.81180046924623,0.0,0.0,0.0,0.0,0.0,0.0,0.0,0.0,0.0
2025/05/21 12:18:49.152625957,1747822728,330302293,mA1/imu,0.04078903294776369,0.9991673574883134,0.0008290885426403014,0.0003989150232723036,0.0,0.0,0.0,0.0,0.0,0.0,0.0,0.0,0.0,-0.0015406696928989562,0.00015211545986182446,0.002446290286737814,0.0,0.0,0.0,0.0,0.0,0.0,0.0,0.0,0.0,0.003700349428415817,0.43119056757916413,9.811020677388676,0.0,0.0,0.0,0.0,0.0,0.0,0.0,0.0,0.0
2025/05/21 12:18:49.163195023,1747822728,380151247,mA1/imu,0.04084971566879498,0.9991648696591773,0.0008411636408695379,0.00039549016086332794,0.0,0.0,0.0,0.0,0.0,0.0,0.0,0.0,0.0,0.0002933998425482476,0.00014064743431407817,0.0024223218434715602,0.0,0.0,0.0,0.0,0.0,0.0,0.0,0.0,0.0,0.0028485734390273822,-0.5947001452345086,9.808443960512582,0.0,0.0,0.0,0.0,0.0,0.0,0.0,0.0,0.0
2025/05/21 12:18:49.174263925,1747822728,431185560,mA1/imu,0.040909772760057896,0.9991624045939779,0.0008519862088382491,0.000392247626010191,0.0,0.0,0.0,0.0,0.0,0.0,0.0,0.0,0.0,0.00012806000820726897,0.00012440879892560808,0.0023977018812635794,0.0,0.0,0.0,0.0,0.0,0.0,0.0,0.0,0.0,0.0028777540624101055,-0.6144249741377332,9.80829334925337,0.0,0.0,0.0,0.0,0.0,0.0,0.0,0.0,0.0
2025/05/21 12:18:50.131073215,1747822729,180319139,mA1/imu,0.04173022375227951,0.999128587907713,0.0006794669379628613,0.0004376937336425252,0.0,0.0,0.0,0.0,0.0,0.0,0.0,0.0,0.0,0.0016980623964903648,-0.0002372767035910667,0.001985765575741205,0.0,0.0,0.0,0.0,0.0,0.0,0.0,0.0,0.0,0.005837662290521172,-0.5551275246801848,9.808483961341945,0.0,0.0,0.0,0.0,0.0,0.0,0.0,0.0,0.0
2025/05/21 12:18:50.132131344,1747822729,231330515,mA1/imu,0.04177943698689667,0.9991265344504178,0.0006718511638512743,0.0004420612734968797,0.0,0.0,0.0,0.0,0.0,0.0,0.0,0.0,0.0,0.001636298743788008,-0.00019587286000048165,0.0019595301949022316,0.0,0.0,0.0,0.0,0.0,0.0,0.0,0.0,0.0,0.005884769796392363,-0.5490220473166048,9.807844248400494,0.0,0.0,0.0,0.0,0.0,0.0,0.0,0.0,0.0
2025/05/21 12:18:50.141359493,1747822729,281169542,mA1/imu,0.04182807462955391,0.9991244996989835,0.0006689080402285039,0.00044591038791412535,0.0,0.0,0.0,0.0,0.0,0.0,0.0,0.0,0.0,-0.00015812326949594528,-0.00014933152349345109,0.0019391728961938202,0.0,0.0,0.0,0.0,0.0,0.0,0.0,0.0,0.0,0.006294416150738338,-0.03512174358031761,9.809431211336568,0.0,0.0,0.0,0.0,0.0,0.0,0.0,0.0,0.0
2025/05/21 12:18:50.154196565,1747822729,332360771,mA1/imu,0.04187552111493145,0.999122511651402,0.0006672716375998028,0.00044965687914776126,0.0,0.0,0.0,0.0,0.0,0.0,0.0,0.0,0.0,-0.0014635776812859365,-0.00016116492417169823,0.0018580973744159361,0.0,0.0,0.0,0.0,0.0,0.0,0.0,0.0,0.0,0.009694996713946717,0.4267910278231865,9.809820203124678,0.0,0.0,0.0,0.0,0.0,0.0,0.0,0.0,0.0
2025/05/21 12:18:50.728227005,1747822729,776465849,mA1/imu,0.04225321677633659,0.9991065597803506,0.000747396274558517,0.00043505716108437856,0.0,0.0,0.0,0.0,0.0,0.0,0.0,0.0,0.0,0.000262160690062334,0.00015327043197847502,0.0015142819120191626,0.0,0.0,0.0,0.0,0.0,0.0,0.0,0.0,0.0,0.007243190532244893,0.04645009567162594,9.811047566535347,0.0,0.0,0.0,0.0,0.0,0.0,0.0,0.0,0.0
2025/05/21 12:18:50.730710554,1747822729,827896119,mA1/imu,0.04229104902434549,0.9991049498206025,0.0007618089490391029,0.00043135080480940125,0.0,0.0,0.0,0.0,0.0,0.0,0.0,0.0,0.0,0.00011996663434082658,0.00017247024281554573,0.001506684359410138,0.0,0.0,0.0,0.0,0.0,0.0,0.0,0.0,0.0,0.003759757251318163,0.03831177879638304,9.808602177480964,0.0,0.0,0.0,0.0,0.0,0.0,0.0,0.0,0.0
2025/05/21 12:18:50.738698333,1747822729,877257170,mA1/imu,0.04232848750275927,0.9991033520054807,0.0007801229676255206,0.0004272766041082249,0.0,0.0,0.0,0.0,0.0,0.0,0.0,0.0,0.0,0.0003987422253653639,0.0001678397480026092,0.001495646946230924,0.0,0.0,0.0,0.0,0.0,0.0,0.0,0.0,0.0,0.006620577249881324,-0.5799448572153073,9.809960416786772,0.0,0.0,0.0,0.0,0.0,0.0,0.0,0.0,0.0
2025/05/21 12:18:50.749729636,1747822729,929069095,mA1/imu,0.04236491057458867,0.9991017974153931,0.0007957115166538147,0.0004237882963844881,0.0,0.0,0.0,0.0,0.0,0.0,0.0,0.0,0.0,-0.0010390334276591624,0.00010675937436263356,0.0014241833244349456,0.0,0.0,0.0,0.0,0.0,0.0,0.0,0.0,0.0,0.010598416086419479,-0.056217357682673455,9.810488945761195,0.0,0.0,0.0,0.0,0.0,0.0,0.0,0.0,0.0
2025/05/21 12:18:50.759450838,1747822729,978134031,mA1/imu,0.04239966488460394,0.9991003262354012,0.0007930595568103767,0.0004214149112607965,0.0,0.0,0.0,0.0,0.0,0.0,0.0,0.0,0.0,-0.0003826055459514704,0.00010630637441972355,0.0013894753248104598,0.0,0.0,0.0,0.0,0.0,0.0,0.0,0.0,0.0,0.004716271807453385,-0.018210012048637383,9.81182670493039,0.0,0.0,0.0,0.0,0.0,0.0,0.0,0.0,0.0
2025/05/21 12:18:50.770903834,1747822730,29435269,mA1/imu,0.04243594560276838,0.999098781630117,0.0007998868409188326,0.00041862519786231,0.0,0.0,0.0,0.0,0.0,0.0,0.0,0.0,0.0,-0.00016874545246015662,0.00021032069207714622,0.0015602032672683455,0.0,0.0,0.0,0.0,0.0,0.0,0.0,0.0,0.0,-0.005948627253248482,-0.010160954390853898,9.814460865444238,0.0,0.0,0.0,0.0,0.0,0.0,0.0,0.0,0.0
2025/05/21 12:18:51.731075051,1747822730,777215484,mA1/imu,0.043548676989153955,0.9990507878489258,0.0006328842243990838,0.0007971753218258054,0.0,0.0,0.0,0.0,0.0,0.0,0.0,0.0,0.0,0.000500771777831653,-0.0025254911935857216,0.0026116938526175074,0.0,0.0,0.0,0.0,0.0,0.0,0.0,0.0,0.0,0.015061043450038116,0.051959072422412655,9.810730803062965,0.0,0.0,0.0,0.0,0.0,0.0,0.0,0.0,0.0
2025/05/21 12:18:51.732020241,1747822730,829667871,mA1/imu,0.043610344766485766,0.9990480444763922,0.0006411307805887484,0.0008553411992923203,0.0,0.0,0.0,0.0,0.0,0.0,0.0,0.0,0.0,0.0003514678213219513,-0.0022288081898195903,0.002291621493012979,0.0,0.0,0.0,0.0,0.0,0.0,0.0,0.0,0.0,0.024807384535447778,0.0558189143524348,9.810580036580802,0.0,0.0,0.0,0.0,0.0,0.0,0.0,0.0,0.0
2025/05/21 12:18:51.739976748,1747822730,879508804,mA1/imu,0.04366378801862269,0.9990456581507654,0.0006553540571282635,0.0009039120691388913,0.0,0.0,0.0,0.0,0.0,0.0,0.0,0.0,0.0,-0.0003030629821671717,-0.0016831613358107432,0.0020797823427906263,0.0,0.0,0.0,0.0,0.0,0.0,0.0,0.0,0.0,0.017436873881722638,0.017396032669870113,9.808631564702106,0.0,0.0,0.0,0.0,0.0,0.0,0.0,0.0,0.0
2025/05/21 12:18:51.753082516,1747822730,930523584,mA1/imu,0.043714292882158154,0.9990434097041356,0.0006719836580400446,0.000935180469571742,0.0,0.0,0.0,0.0,0.0,0.0,0.0,0.0,0.0,-0.0006273866732258124,-0.0009322326340087126,0.0019666284515025725,0.0,0.0,0.0,0.0,0.0,0.0,0.0,0.0,0.0,0.016613233801806994,0.0001059663236609356,9.809428462259909,0.0,0.0,0.0,0.0,0.0,0.0,0.0,0.0,0.0
2025/05/21 12:18:51.764048696,1747822730,980470974,mA1/imu,0.04376207722984876,0.9990412974353272,0.0006854707521687994,0.0009469662692014275,0.0,0.0,0.0,0.0,0.0,0.0,0.0,0.0,0.0,0.0003663213444008379,-0.00010546717965916699,0.0018900160811350832,0.0,0.0,0.0,0.0,0.0,0.0,0.0,0.0,0.0,0.01224589096950627,-0.41217987390552546,9.809521083925286,0.0,0.0,0.0,0.0,0.0,0.0,0.0,0.0,0.0
2025/05/21 12:18:51.774120795,1747822731,31525900,mA1/imu,0.043811038799641384,0.9990391500368824,0.0007047076203023446,0.0009343233112786934,0.0,0.0,0.0,0.0,0.0,0.0,0.0,0.0,0.0,-0.0008691977015034223,0.0010495828650010106,0.002094528673825974,0.0,0.0,0.0,0.0,0.0,0.0,0.0,0.0,0.0,-0.0022249583905667933,0.03868851389552702,9.810819196279569,0.0,0.0,0.0,0.0,0.0,0.0,0.0,0.0,0.0
2025/05/21 12:18:52.728914873,1747822731,778596721,mA1/imu,0.04434262107736301,0.9990160812212338,0.0007025597165568551,0.0003283705280318638,0.0,0.0,0.0,0.0,0.0,0.0,0.0,0.0,0.0,0.0011713318653986662,-0.0014579532061938987,0.0010092206095672007,0.0,0.0,0.0,0.0,0.0,0.0,0.0,0.0,0.0,0.014841036281111422,0.02401949582368048,9.80921032728071,0.0,0.0,0.0,0.0,0.0,0.0,0.0,0.0,0.0
2025/05/21 12:18:52.732569862,1747822731,829608540,mA1/imu,0.04436751543563109,0.9990149733238427,0.0006853888800066168,0.0003699877211355417,0.0,0.0,0.0,0.0,0.0,0.0,0.0,0.0,0.0,0.0006365807014394387,-0.0018531402650108335,0.0009778120456511515,0.0,0.0,0.0,0.0,0.0,0.0,0.0,0.0,0.0,0.016235585461023813,-0.00718515532862434,9.807906249731282,0.0,0.0,0.0,0.0,0.0,0.0,0.0,0.0,0.0
2025/05/21 12:18:52.739320771,1747822731,879506620,mA1/imu,0.044391303285226426,0.9990139127894535,0.0006616359512714461,0.00042009952747515736,0.0,0.0,0.0,0.0,0.0,0.0,0.0,0.0,0.0,0.0009054056717293775,-0.0021400834428141027,0.0009422958620409999,0.0,0.0,0.0,0.0,0.0,0.0,0.0,0.0,0.0,0.012863413167305111,0.01341344999099698,9.808119832056281,0.0,0.0,0.0,0.0,0.0,0.0,0.0,0.0,0.0
2025/05/21 12:18:52.749817704,1747822731,930765720,mA1/imu,0.04441464150749435,0.9990128634511948,0.0006423419934569566,0.00047505322733898246,0.0,0.0,0.0,0.0,0.0,0.0,0.0,0.0,0.0,0.002526185948671726,-0.002277517789395182,0.0009264167261957643,0.0,0.0,0.0,0.0,0.0,0.0,0.0,0.0,0.0,0.011257153731831072,-0.4964957870922781,9.807079093370577,0.0,0.0,0.0,0.0,0.0,0.0,0.0,0.0,0.0
2025/05/21 12:18:52.760343443,1747822731,980340155,mA1/imu,0.04443759388993605,0.9990118227635199,0.0006294320616875462,0.0005310774543274661,0.0,0.0,0.0,0.0,0.0,0.0,0.0,0.0,0.0,0.0001320835977377845,-0.0022445043249382838,0.00091160655125264,0.0,0.0,0.0,0.0,0.0,0.0,0.0,0.0,0.0,0.011802248424765032,-0.027951160007978433,9.80981721576769,0.0,0.0,0.0,0.0,0.0,0.0,0.0,0.0,0.0
2025/05/21 12:18:52.760751818,1747822732,31297556,mA1/imu,0.04445978846889615,0.999010810187851,0.000621167267220806,0.000585225034222249,0.0,0.0,0.0,0.0,0.0,0.0,0.0,0.0,0.0,-0.0013272111352561624,-0.002132737808092637,0.0008584145210480379,0.0,0.0,0.0,0.0,0.0,0.0,0.0,0.0,0.0,0.0138872087289727,0.32335093492177486,9.81077662407719,0.0,0.0,0.0,0.0,0.0,0.0,0.0,0.0,0.0
2025/05/21 12:18:52.772203775,1747822732,81169175,mA1/imu,0.044480829138112826,0.9990098534870325,0.0006051107054024613,0.0006342838781647866,0.0,0.0,0.0,0.0,0.0,0.0,0.0,0.0,0.0,-0.00011838677051384217,-0.0018519930923640486,0.0008374293968936681,0.0,0.0,0.0,0.0,0.0,0.0,0.0,0.0,0.0,0.00974957726264207,-0.02497300607460725,9.80882316513948,0.0,0.0,0.0,0.0,0.0,0.0,0.0,0.0,0.0
2025/05/21 12:18:53.732006919,1747822732,777897324,mA1/imu,0.044703586985041524,0.9989999449986584,0.0007722969228927886,0.00032056327221048544,0.0,0.0,0.0,0.0,0.0,0.0,0.0,0.0,0.0,-0.0009448895005220716,0.0013298783003620391,0.0005255164925320675,0.0,0.0,0.0,0.0,0.0,0.0,0.0,0.0,0.0,0.015701023198402844,-0.041276898722390286,9.810023006086993,0.0,0.0,0.0,0.0,0.0,0.0,0.0,0.0,0.0
2025/05/21 12:18:53.734641847,1747822732,828985806,mA1/imu,0.04471618797493523,0.9989993879086941,0.000773783900910325,0.0002945327142140319,0.0,0.0,0.0,0.0,0.0,0.0,0.0,0.0,0.0,0.0007144291497279453,0.0008235363811631399,0.00047606406541235034,0.0,0.0,0.0,0.0,0.0,0.0,0.0,0.0,0.0,0.01637921745684115,-0.5678450203061006,9.80728641679014,0.0,0.0,0.0,0.0,0.0,0.0,0.0,0.0,0.0
2025/05/21 12:18:53.742186197,1747822732,878958142,mA1/imu,0.04472687936346218,0.9989989128971963,0.0007735618184784575,0.00028265657457622053,0.0,0.0,0.0,0.0,0.0,0.0,0.0,0.0,0.0,0.0006481523247480389,0.0002301368376844491,0.00039733411497158277,0.0,0.0,0.0,0.0,0.0,0.0,0.0,0.0,0.0,0.016683096513807397,0.044302701385014326,9.80798832602243,0.0,0.0,0.0,0.0,0.0,0.0,0.0,0.0,0.0
2025/05/21 12:18:53.752573976,1747822732,930032816,mA1/imu,0.044733555851887714,0.9989986094140445,0.000777480897845831,0.0002879116265793922,0.0,0.0,0.0,0.0,0.0,0.0,0.0,0.0,0.0,-0.0008093801575184652,-0.0005595582771428983,0.00011128915680465437,0.0,0.0,0.0,0.0,0.0,0.0,0.0,0.0,0.0,0.025419518836279215,0.5637465949116317,9.810407835746126,0.0,0.0,0.0,0.0,0.0,0.0,0.0,0.0,0.0
2025/05/21 12:18:53.762852962,1747822732,979890643,mA1/imu,0.04473343810793985,0.998998608820629,0.0007760673291822902,0.00031114143322365467,0.0,0.0,0.0,0.0,0.0,0.0,0.0,0.0,0.0,-0.0004983945894774004,-0.0011218430968806697,-3.709870570107011e-05,0.0,0.0,0.0,0.0,0.0,0.0,0.0,0.0,0.0,0.014002011802856287,-0.04928153064082862,9.808818158754383,0.0,0.0,0.0,0.0,0.0,0.0,0.0,0.0,0.0
2025/05/21 12:18:53.773426786,1747822733,32512094,mA1/imu,0.044731398970489195,0.9989986994923601,0.0007622162793446847,0.0003455214315660266,0.0,0.0,0.0,0.0,0.0,0.0,0.0,0.0,0.0,0.0012454610827106773,-0.00156413232828675,-0.0001134157077194326,0.0,0.0,0.0,0.0,0.0,0.0,0.0,0.0,0.0,0.013965707347181534,-0.5714535228312263,9.806484699961796,0.0,0.0,0.0,0.0,0.0,0.0,0.0,0.0,0.0
2025/05/21 12:18:54.733371072,1747822733,779673160,mA1/imu,0.04465568528131961,0.9990020673513097,0.0006271322516453449,0.0005881368920964349,0.0,0.0,0.0,0.0,0.0,0.0,0.0,0.0,0.0,-0.0006492573343159901,0.0018308346726520785,-0.00033085215125926246,0.0,0.0,0.0,0.0,0.0,0.0,0.0,0.0,0.0,0.014737973840194167,-0.009300165636631578,9.812180374951591,0.0,0.0,0.0,0.0,0.0,0.0,0.0,0.0,0.0
2025/05/21 12:18:54.741167560,1747822733,830729508,mA1/imu,0.04464729171936973,0.9990024589742087,0.0006428812028195736,0.0005413033982868122,0.0,0.0,0.0,0.0,0.0,0.0,0.0,0.0,0.0,1.897656243810579e-05,0.0019566300020837655,-0.00031715994343054854,0.0,0.0,0.0,0.0,0.0,0.0,0.0,0.0,0.0,0.01189298856209519,-0.5697962214801624,9.811316024552895,0.0,0.0,0.0,0.0,0.0,0.0,0.0,0.0,0.0
2025/05/21 12:18:54.753738817,1747822733,880573304,mA1/imu,0.0446395943206817,0.9990028099287968,0.0006703057618106841,0.0004930146437149396,0.0,0.0,0.0,0.0,0.0,0.0,0.0,0.0,0.0,-0.0011091582561394587,0.0019710440984666306,-0.0003002323502713795,0.0,0.0,0.0,0.0,0.0,0.0,0.0,0.0,0.0,0.012674877148164688,-0.22746218463416215,9.808883938651507,0.0,0.0,0.0,0.0,0.0,0.0,0.0,0.0,0.0
2025/05/21 12:18:54.766955249,1747822733,931750481,mA1/imu,0.04463267972099166,0.9990031274757449,0.0006906813914252655,0.00044514471715560093,0.0,0.0,0.0,0.0,0.0,0.0,0.0,0.0,0.0,-0.0005340131676057784,0.0019376375525145923,-0.00024167578427650068,0.0,0.0,0.0,0.0,0.0,0.0,0.0,0.0,0.0,0.009500740567720803,-0.6105331514388488,9.808917367497482,0.0,0.0,0.0,0.0,0.0,0.0,0.0,0.0,0.0
2025/05/21 12:18:54.777565369,1747822733,982752027,mA1/imu,0.0446272542175394,0.999003373143589,0.0007132273726098144,0.0003999193031431999,0.0,0.0,0.0,0.0,0.0,0.0,0.0,0.0,0.0,-5.125311134948993e-05,0.0017470986347577256,-0.00021121980313294867,0.0,0.0,0.0,0.0,0.0,0.0,0.0,0.0,0.0,0.013533669633537542,-0.5746250853003442,9.80863523812632,0.0,0.0,0.0,0.0,0.0,0.0,0.0,0.0,0.0
2025/05/21 12:18:55.736460109,1747822734,785583189,mA1/imu,0.04428730325105784,0.9990184551235355,0.000734491884588679,0.00047076002901745,0.0,0.0,0.0,0.0,0.0,0.0,0.0,0.0,0.0,0.001638751350852482,0.0007051082468063109,-0.0010024389729642684,0.0,0.0,0.0,0.0,0.0,0.0,0.0,0.0,0.0,0.0020960171057167786,0.04146970309614338,9.813107878286853,0.0,0.0,0.0,0.0,0.0,0.0,0.0,0.0,0.0
2025/05/21 12:18:55.738320972,1747822734,826241995,mA1/imu,0.044262979596131076,0.9990195560740709,0.0007170558288163374,0.0004483857460828292,0.0,0.0,0.0,0.0,0.0,0.0,0.0,0.0,0.0,3.512271871851902e-05,0.0009589229689544398,-0.0009535939224360899,0.0,0.0,0.0,0.0,0.0,0.0,0.0,0.0,0.0,0.002410523946689145,0.5630031114315277,9.812296983043561,0.0,0.0,0.0,0.0,0.0,0.0,0.0,0.0,0.0
2025/05/21 12:18:55.746953384,1747822734,876075073,mA1/imu,0.04423990488108589,0.9990206023888346,0.0006998935283115143,0.0004206754232706664,0.0,0.0,0.0,0.0,0.0,0.0,0.0,0.0,0.0,0.0001329367807767901,0.001151868673445215,-0.0009040347145447002,0.0,0.0,0.0,0.0,0.0,0.0,0.0,0.0,0.0,0.002101599281915171,-0.055062740885246104,9.811286055624814,0.0,0.0,0.0,0.0,0.0,0.0,0.0,0.0,0.0
2025/05/21 12:18:55.757195947,1747822734,927228753,mA1/imu,0.044217090578208676,0.9990216407654707,0.0006765047042064651,0.0003905437879528778,0.0,0.0,0.0,0.0,0.0,0.0,0.0,0.0,0.0,0.001647053093435318,0.001112858369512501,-0.0009563475465094589,0.0,0.0,0.0,0.0,0.0,0.0,0.0,0.0,0.0,0.010945215611525862,-0.5785260015325246,9.811785852192758,0.0,0.0,0.0,0.0,0.0,0.0,0.0,0.0,0.0
2025/05/21 12:18:55.767601134,1747822734,976913745,mA1/imu,0.044192992737045134,0.9990227314658425,0.000655997036922979,0.00036204330953418744,0.0,0.0,0.0,0.0,0.0,0.0,0.0,0.0,0.0,0.001413458926502683,0.0011230215938728215,-0.0009442154656036541,0.0,0.0,0.0,0.0,0.0,0.0,0.0,0.0,0.0,0.0024661835384822053,0.03723175062963245,9.812509781213315,0.0,0.0,0.0,0.0,0.0,0.0,0.0,0.0,0.0
2025/05/21 12:18:56.735858908,1747822735,775830495,mA1/imu,0.04536122824305363,0.9989699925250745,0.0008368948261413142,0.0007826964828000478,0.0,0.0,0.0,0.0,0.0,0.0,0.0,0.0,0.0,0.00023910591435932798,-0.005841311656695038,0.0035071336817808795,0.0,0.0,0.0,0.0,0.0,0.0,0.0,0.0,0.0,0.011115227483939904,-0.5908497289003548,9.809692643008384,0.0,0.0,0.0,0.0,0.0,0.0,0.0,0.0,0.0
2025/05/21 12:18:56.737891892,1747822735,826903756,mA1/imu,0.045448468825374816,0.9989659197485209,0.0008295502605421268,0.0009163562547873224,0.0,0.0,0.0,0.0,0.0,0.0,0.0,0.0,0.0,0.0009141150346129942,-0.004932532922980309,0.003525793501089172,0.0,0.0,0.0,0.0,0.0,0.0,0.0,0.0,0.0,-0.008672942865702152,-0.5577860890819049,9.80951847142897,0.0,0.0,0.0,0.0,0.0,0.0,0.0,0.0,0.0
2025/05/21 12:18:57.380880246,1747822736,432303640,mA1/imu,0.046511743158312635,0.9989174859417281,0.0006117467844906061,0.0003738904978330905,0.0,0.0,0.0,0.0,0.0,0.0,0.0,0.0,0.0,0.0014770687737773959,0.004095285074194902,0.00324672280823547,0.0,0.0,0.0,0.0,0.0,0.0,0.0,0.0,0.0,0.024898507444883478,-0.5762997390350333,9.805706646054709,0.0,0.0,0.0,0.0,0.0,0.0,0.0,0.0,0.0
2025/05/21 12:18:57.383702710,1747822736,481975653,mA1/imu,0.04659101216752963,0.9989138309451812,0.0005971927514531917,0.0002815891418838067,0.0,0.0,0.0,0.0,0.0,0.0,0.0,0.0,0.0,-0.001207430731449238,0.0033530720504339594,0.003135536929045864,0.0,0.0,0.0,0.0,0.0,0.0,0.0,0.0,0.0,0.023196727207440333,0.0917210183170358,9.80865970405311,0.0,0.0,0.0,0.0,0.0,0.0,0.0,0.0,0.0
2025/05/21 12:18:57.393662008,1747822736,533260062,mA1/imu,0.04666797221756655,0.9989102635270863,0.000583963832291494,0.0002116024334720294,0.0,0.0,0.0,0.0,0.0,0.0,0.0,0.0,0.0,0.0005554275819563717,0.002384006504121385,0.0030466654052192688,0.0,0.0,0.0,0.0,0.0,0.0,0.0,0.0,0.0,0.023838345220207634,0.01949198103488769,9.807638473955324,0.0,0.0,0.0,0.0,0.0,0.0,0.0,0.0,0.0
2025/05/21 12:18:57.403213853,1747822736,582937422,mA1/imu,0.04674269625451741,0.9989067792887574,0.0005818837903597569,0.00016747857796955873,0.0,0.0,0.0,0.0,0.0,0.0,0.0,0.0,0.0,0.0006550488517972426,0.0013096906446330538,0.0029565881195454218,0.0,0.0,0.0,0.0,0.0,0.0,0.0,0.0,0.0,0.024830771736270595,0.0007807377076895373,9.807615692498166,0.0,0.0,0.0,0.0,0.0,0.0,0.0,0.0,0.0
2025/05/21 12:18:57.415677072,1747822736,634843018,mA1/imu,0.04681609706578527,0.9989033447049234,0.0005818422804305731,0.00014984126567870837,0.0,0.0,0.0,0.0,0.0,0.0,0.0,0.0,0.0,-0.00019422426328551194,0.00034208815763582827,0.0029691022380939347,0.0,0.0,0.0,0.0,0.0,0.0,0.0,0.0,0.0,0.01503169304114739,0.1998264183339492,9.809230648065016,0.0,0.0,0.0,0.0,0.0,0.0,0.0,0.0,0.0
2025/05/21 12:18:57.426658222,1747822736,683838619,mA1/imu,0.04688985780616232,0.9988998783192815,0.0005911851426150345,0.00015757147483893302,0.0,0.0,0.0,0.0,0.0,0.0,0.0,0.0,0.0,-0.000449100532599456,-0.0007524817346070718,0.0029189914064776065,0.0,0.0,0.0,0.0,0.0,0.0,0.0,0.0,0.0,0.02424682586243657,-0.006043332325678054,9.809152488785346,0.0,0.0,0.0,0.0,0.0,0.0,0.0,0.0,0.0
2025/05/21 12:18:58.381432973,1747822737,432383236,mA1/imu,0.04784578073672679,0.9988540616363648,0.0007580395571415632,0.0008776071215599474,0.0,0.0,0.0,0.0,0.0,0.0,0.0,0.0,0.0,-0.0002567777937190315,0.002791064826241514,0.001925934037094811,0.0,0.0,0.0,0.0,0.0,0.0,0.0,0.0,0.0,0.02635083358542459,0.5582936094318415,9.811656047421723,0.0,0.0,0.0,0.0,0.0,0.0,0.0,0.0,0.0
2025/05/21 12:18:58.386551319,1747822737,482140602,mA1/imu,0.04789181267953955,0.9988519283067843,0.0007506280550885341,0.0007975923829652918,0.0,0.0,0.0,0.0,0.0,0.0,0.0,0.0,0.0,0.00015862695735020793,0.0034869740733196155,0.001839559071816598,0.0,0.0,0.0,0.0,0.0,0.0,0.0,0.0,0.0,0.009207130408720078,0.6041678987643087,9.810982301718,0.0,0.0,0.0,0.0,0.0,0.0,0.0,0.0,0.0
2025/05/21 12:18:58.389547602,1747822737,533412592,mA1/imu,0.047936356209135396,0.9988498722786316,0.0007396112022960569,0.0007009833249792304,0.0,0.0,0.0,0.0,0.0,0.0,0.0,0.0,0.0,0.0019553837545746105,0.004039899428745258,0.001717662625246691,0.0,0.0,0.0,0.0,0.0,0.0,0.0,0.0,0.0,0.009592165257751594,-0.5437147494288217,9.80755602109639,0.0,0.0,0.0,0.0,0.0,0.0,0.0,0.0,0.0
2025/05/21 12:18:58.396851473,1747822737,583331207,mA1/imu,0.047978199323187934,0.9988479501236489,0.0007168171044735425,0.0005925341573090666,0.0,0.0,0.0,0.0,0.0,0.0,0.0,0.0,0.0,0.001732423545528106,0.004413247756700139,0.0016700274573434551,0.0,0.0,0.0,0.0,0.0,0.0,0.0,0.0,0.0,0.010174652449606759,0.05878017197222132,9.810433932784516,0.0,0.0,0.0,0.0,0.0,0.0,0.0,0.0,0.0
2025/05/21 12:18:58.411275928,1747822737,634347612,mA1/imu,0.04801958488084851,0.9988460364260887,0.0006967450404719044,0.00047909301001075784,0.0,0.0,0.0,0.0,0.0,0.0,0.0,0.0,0.0,0.0022951360185739576,0.0045043413461997575,0.0016540808614196475,0.0,0.0,0.0,0.0,0.0,0.0,0.0,0.0,0.0,0.01070519089029599,0.08891818110646837,9.808552048047169,0.0,0.0,0.0,0.0,0.0,0.0,0.0,0.0,0.0
2025/05/21 12:18:58.418888674,1747822737,684187997,mA1/imu,0.048060587694839486,0.9988441239619699,0.000679108254854396,0.00036708180258698646,0.0,0.0,0.0,0.0,0.0,0.0,0.0,0.0,0.0,0.001135217562687834,0.004352412376811671,0.0016382572096393078,0.0,0.0,0.0,0.0,0.0,0.0,0.0,0.0,0.0,0.011805275278155319,0.0037435592712556955,9.806978348255956,0.0,0.0,0.0,0.0,0.0,0.0,0.0,0.0,0.0
2025/05/21 12:18:59.380274152,1747822738,426438934,mA1/imu,0.04844802976551914,0.9988253290639021,0.0005973169708565535,0.0006274110803138915,0.0,0.0,0.0,0.0,0.0,0.0,0.0,0.0,0.0,-0.0007623020125130548,-0.0018961218015558763,0.0006203256482047049,0.0,0.0,0.0,0.0,0.0,0.0,0.0,0.0,0.0,-0.0036934931406555037,-0.5859675577520503,9.811570987722803,0.0,0.0,0.0,0.0,0.0,0.0,0.0,0.0,0.0
2025/05/21 12:18:59.383051746,1747822738,476193021,mA1/imu,0.04846408923298074,0.9988245119540297,0.0006214253559922853,0.0006634795696244404,0.0,0.0,0.0,0.0,0.0,0.0,0.0,0.0,0.0,-0.00021903125665755045,-0.0010656677284012449,0.0006618718360375173,0.0,0.0,0.0,0.0,0.0,0.0,0.0,0.0,0.0,-0.0034668456364875602,-0.3279716021522855,9.811707432223226,0.0,0.0,0.0,0.0,0.0,0.0,0.0,0.0,0.0
2025/05/21 12:18:59.394013162,1747822738,527040918,mA1/imu,0.04847714126674391,0.9988238488855793,0.0006473154478344864,0.000683121301516016,0.0,0.0,0.0,0.0,0.0,0.0,0.0,0.0,0.0,0.0011514369243272988,-0.0006467467758059587,0.0003048688319943629,0.0,0.0,0.0,0.0,0.0,0.0,0.0,0.0,0.0,0.012945486313143694,-0.4039584172324286,9.811078978145465,0.0,0.0,0.0,0.0,0.0,0.0,0.0,0.0,0.0
2025/05/21 12:18:59.402532605,1747822738,577034000,mA1/imu,0.04848197849210112,0.9988235807805619,0.000690906488200996,0.0006891200275211702,0.0,0.0,0.0,0.0,0.0,0.0,0.0,0.0,0.0,-0.00030219384605482014,0.00020800914073967845,0.00021034256052433428,0.0,0.0,0.0,0.0,0.0,0.0,0.0,0.0,0.0,-0.005646595061189974,-0.5588779784453698,9.810655422013657,0.0,0.0,0.0,0.0,0.0,0.0,0.0,0.0,0.0
2025/05/21 12:18:59.413841394,1747822738,628204466,mA1/imu,0.04848737906608489,0.998823313406902,0.0007164746914288977,0.0006703209499752945,0.0,0.0,0.0,0.0,0.0,0.0,0.0,0.0,0.0,-0.00048373443250125046,0.0011847806185288953,0.00022570666845050228,0.0,0.0,0.0,0.0,0.0,0.0,0.0,0.0,0.0,-0.006246182828218493,0.051191557808320465,9.812011343510266,0.0,0.0,0.0,0.0,0.0,0.0,0.0,0.0,0.0
2025/05/21 12:18:59.424794303,1747822738,677926877,mA1/imu,0.04849332908050615,0.9988230298550128,0.000746389603768439,0.0006284651950186607,0.0,0.0,0.0,0.0,0.0,0.0,0.0,0.0,0.0,-0.0016891208781267743,0.0020878162333632876,0.00024914665469979416,0.0,0.0,0.0,0.0,0.0,0.0,0.0,0.0,0.0,-0.0054422560237115825,0.5801110687219269,9.81196803673509,0.0,0.0,0.0,0.0,0.0,0.0,0.0,0.0,0.0
2025/05/21 12:19:00.381992051,1747822739,430658158,mA1/imu,0.04849070914119242,0.998823506324367,0.0004683905567854492,0.00018695231418213777,0.0,0.0,0.0,0.0,0.0,0.0,0.0,0.0,0.0,-0.00018158624882711572,-0.0036284292212019915,-0.0003696236340664325,0.0,0.0,0.0,0.0,0.0,0.0,0.0,0.0,0.0,0.000917755582488816,-0.061186616689838436,9.812912548760673,0.0,0.0,0.0,0.0,0.0,0.0,0.0,0.0,0.0
2025/05/21 12:19:00.386088058,1747822739,480441617,mA1/imu,0.04848098477914879,0.9988239716471161,0.00043512745350869094,0.00028007503254935093,0.0,0.0,0.0,0.0,0.0,0.0,0.0,0.0,0.0,0.0001833915586962502,-0.0038460543199930995,-0.00041562387513024074,0.0,0.0,0.0,0.0,0.0,0.0,0.0,0.0,0.0,0.0026347294450448523,0.6172655086761072,9.81119989063603,0.0,0.0,0.0,0.0,0.0,0.0,0.0,0.0,0.0
2025/05/21 12:19:00.392384769,1747822739,531570258,mA1/imu,0.048469728314738954,0.9988244879354453,0.0004310486701370685,0.0003767421329885869,0.0,0.0,0.0,0.0,0.0,0.0,0.0,0.0,0.0,-0.0003410508315805617,-0.0038537388709204787,-0.00047700997770926226,0.0,0.0,0.0,0.0,0.0,0.0,0.0,0.0,0.0,0.001863996655778779,0.09213577605204017,9.811730403577194,0.0,0.0,0.0,0.0,0.0,0.0,0.0,0.0,0.0
2025/05/21 12:19:00.930545901,1747822739,975917946,mA1/imu,0.048313798216303265,0.9988318269591288,0.0006251717900067463,0.0006062306791418985,0.0,0.0,0.0,0.0,0.0,0.0,0.0,0.0,0.0,-0.0008919704810057136,0.002463852481792408,-0.0008639844235887559,0.0,0.0,0.0,0.0,0.0,0.0,0.0,0.0,0.0,0.0022598706345873017,0.04892324723338574,9.808707244611917,0.0,0.0,0.0,0.0,0.0,0.0,0.0,0.0,0.0
2025/05/21 12:19:00.947520086,1747822740,26898322,mA1/imu,0.04829192541996831,0.9988328922469359,0.0006715771173080977,0.0005406376128581402,0.0,0.0,0.0,0.0,0.0,0.0,0.0,0.0,0.0,-0.0005964030879691396,0.0028061901764822,-0.000864660356675818,0.0,0.0,0.0,0.0,0.0,0.0,0.0,0.0,0.0,0.006891985202729796,-0.5597823283771829,9.806605446065587,0.0,0.0,0.0,0.0,0.0,0.0,0.0,0.0,0.0
2025/05/21 12:19:01.888052791,1747822740,929155274,mA1/imu,0.04792731503660245,0.9988504433197335,0.0004325289528597914,0.000759784218747604,0.0,0.0,0.0,0.0,0.0,0.0,0.0,0.0,0.0,0.001494959060712658,-0.0019584305770092942,-0.0004674812668434824,0.0,0.0,0.0,0.0,0.0,0.0,0.0,0.0,0.0,0.008938094798761217,0.06423285829554035,9.810110465776134,0.0,0.0,0.0,0.0,0.0,0.0,0.0,0.0,0.0
2025/05/21 12:19:01.890513572,1747822740,979471577,mA1/imu,0.04791785475295657,0.9988508733884597,0.0004185694556236734,0.00079795150009964,0.0,0.0,0.0,0.0,0.0,0.0,0.0,0.0,0.0,0.001243567443957366,-0.0012792592466995805,-0.0003414574333187912,0.0,0.0,0.0,0.0,0.0,0.0,0.0,0.0,0.0,0.009483158015881156,0.059379060586439436,9.812662811648233,0.0,0.0,0.0,0.0,0.0,0.0,0.0,0.0,0.0
2025/05/21 12:19:01.907911073,1747822741,30553591,mA1/imu,0.047910626860390645,0.9988512068596834,0.00041136889584431443,0.0008180247121032839,0.0,0.0,0.0,0.0,0.0,0.0,0.0,0.0,0.0,0.0010355286666088163,-0.0005058074244604511,-0.0002551746622750572,0.0,0.0,0.0,0.0,0.0,0.0,0.0,0.0,0.0,0.008328731656656511,0.07039502103580336,9.809993725905413,0.0,0.0,0.0,0.0,0.0,0.0,0.0,0.0,0.0
2025/05/21 12:19:01.918073213,1747822741,80522842,mA1/imu,0.04790553929318587,0.9988514496094801,0.0004125313977442754,0.0008189846855384546,0.0,0.0,0.0,0.0,0.0,0.0,0.0,0.0,0.0,0.0006848734079796927,0.0002681295672865922,-0.00016934083224128893,0.0,0.0,0.0,0.0,0.0,0.0,0.0,0.0,0.0,0.009233020313121081,0.06481350935398396,9.808977251498792,0.0,0.0,0.0,0.0,0.0,0.0,0.0,0.0,0.0
2025/05/21 12:19:02.882366894,1747822741,927007727,mA1/imu,0.04808587242187573,0.9988428527015837,0.0007901878403594802,0.00028299039992603147,0.0,0.0,0.0,0.0,0.0,0.0,0.0,0.0,0.0,0.0002515372588443931,-0.002460540560710021,0.00111557325639366,0.0,0.0,0.0,0.0,0.0,0.0,0.0,0.0,0.0,0.010713321279009928,-0.03183401283015985,9.811192353036558,0.0,0.0,0.0,0.0,0.0,0.0,0.0,0.0,0.0
2025/05/21 12:19:02.893867078,1747822741,978250722,mA1/imu,0.04811502669698807,0.9988414552318087,0.0007551094410474683,0.0003483189384097769,0.0,0.0,0.0,0.0,0.0,0.0,0.0,0.0,0.0,0.0016292626829994413,-0.0028078959034082505,0.0011979599149593313,0.0,0.0,0.0,0.0,0.0,0.0,0.0,0.0,0.0,0.010575815852813673,0.09226918592853223,9.812038281865192,0.0,0.0,0.0,0.0,0.0,0.0,0.0,0.0,0.0
2025/05/21 12:19:02.904283321,1747822742,31607059,mA1/imu,0.0481462532515541,0.9988399489992936,0.0007200781435396948,0.0004196050442515096,0.0,0.0,0.0,0.0,0.0,0.0,0.0,0.0,0.0,0.0011088187807655218,-0.0029636753717415484,0.0012813403518022943,0.0,0.0,0.0,0.0,0.0,0.0,0.0,0.0,0.0,0.008583285761844906,0.6258577838294548,9.811492111313632,0.0,0.0,0.0,0.0,0.0,0.0,0.0,0.0,0.0
2025/05/21 12:19:02.918853606,1747822742,81524949,mA1/imu,0.04817956650419134,0.9988383281912576,0.0006933551363656251,0.0004927131178779535,0.0,0.0,0.0,0.0,0.0,0.0,0.0,0.0,0.0,0.0017615468864614304,-0.0029829830185986476,0.0013648154194375974,0.0,0.0,0.0,0.0,0.0,0.0,0.0,0.0,0.0,0.009599919110858904,-0.09006795517792764,9.812559865122038,0.0,0.0,0.0,0.0,0.0,0.0,0.0,0.0,0.0
2025/05/21 12:19:02.934349607,1747822742,132977267,mA1/imu,0.04821482224279962,0.9988366188083817,0.0006509720633533365,0.0005622089535241222,0.0,0.0,0.0,0.0,0.0,0.0,0.0,0.0,0.0,0.0011031937978680509,-0.0027387431592068297,0.0014226282070997735,0.0,0.0,0.0,0.0,0.0,0.0,0.0,0.0,0.0,0.002960525809093409,-0.037912543909821864,9.813286807879793,0.0,0.0,0.0,0.0,0.0,0.0,0.0,0.0,0.0
2025/05/21 12:19:03.882153410,1747822742,934837218,mA1/imu,0.0490350055534811,0.9987967977713078,0.0007030471765956909,0.00017526214231876236,0.0,0.0,0.0,0.0,0.0,0.0,0.0,0.0,0.0,-0.0007717991037352427,0.0009029276615746891,0.0026735514487753196,0.0,0.0,0.0,0.0,0.0,0.0,0.0,0.0,0.0,0.010179535137387076,0.05462704582303566,9.810974591888797,0.0,0.0,0.0,0.0,0.0,0.0,0.0,0.0,0.0
2025/05/21 12:19:03.884008768,1747822742,975427033,mA1/imu,0.04910261959497313,0.9987934488230473,0.0007432055934377838,0.00016426356880435208,0.0,0.0,0.0,0.0,0.0,0.0,0.0,0.0,0.0,-0.002151992862405124,0.0002603045603327733,0.002731607260291118,0.0,0.0,0.0,0.0,0.0,0.0,0.0,0.0,0.0,0.010480746343936054,0.5362741877025281,9.812020895232765,0.0,0.0,0.0,0.0,0.0,0.0,0.0,0.0,0.0
2025/05/21 12:19:03.893362854,1747822743,28113983,mA1/imu,0.049168400836476986,0.9987901846709871,0.000778173771895193,0.0001726547413753243,0.0,0.0,0.0,0.0,0.0,0.0,0.0,0.0,0.0,-0.001998831135563807,-0.0007401970392069152,0.002455116454294969,0.0,0.0,0.0,0.0,0.0,0.0,0.0,0.0,0.0,0.031223213938113614,-0.06543353003384247,9.809953848641674,0.0,0.0,0.0,0.0,0.0,0.0,0.0,0.0,0.0
2025/05/21 12:19:03.905679635,1747822743,79303236,mA1/imu,0.04922818130641878,0.998787214913008,0.0008027554549524821,0.00020267031901361707,0.0,0.0,0.0,0.0,0.0,0.0,0.0,0.0,0.0,-0.00028043411830778493,-0.0013060015005846597,0.002436483329316107,0.0,0.0,0.0,0.0,0.0,0.0,0.0,0.0,0.0,0.003332753583470818,-0.569502518262636,9.810029328203594,0.0,0.0,0.0,0.0,0.0,0.0,0.0,0.0,0.0
2025/05/21 12:19:03.913246329,1747822743,131626896,mA1/imu,0.04928952469594428,0.9987841665488231,0.000820262367231938,0.00024202534935607916,0.0,0.0,0.0,0.0,0.0,0.0,0.0,0.0,0.0,-6.053861168364795e-05,-0.0016713881209011426,0.0024790162640539034,0.0,0.0,0.0,0.0,0.0,0.0,0.0,0.0,0.0,0.0017982083725371148,0.05923937772126796,9.812031413074404,0.0,0.0,0.0,0.0,0.0,0.0,0.0,0.0,0.0
2025/05/21 12:19:03.924070786,1747822743,182221246,mA1/imu,0.04935243778042191,0.9987810284483516,0.0008430533439611754,0.0002887175816609915,0.0,0.0,0.0,0.0,0.0,0.0,0.0,0.0,0.0,-0.0017089299069671052,-0.0019249792397939155,0.002532606314866797,0.0,0.0,0.0,0.0,0.0,0.0,0.0,0.0,0.0,0.00580250394499504,0.5550459072443084,9.812605180648037,0.0,0.0,0.0,0.0,0.0,0.0,0.0,0.0,0.0
2025/05/21 12:19:04.879544444,1747822743,930469472,mA1/imu,0.050426930840671916,0.9987275747711019,0.0005026670908564807,0.00032150212868456684,0.0,0.0,0.0,0.0,0.0,0.0,0.0,0.0,0.0,0.0007517466518563166,0.0017244600323037612,0.003168505125408793,0.0,0.0,0.0,0.0,0.0,0.0,0.0,0.0,0.0,0.003003534257123113,0.06326444248868413,9.808920101124334,0.0,0.0,0.0,0.0,0.0,0.0,0.0,0.0,0.0
2025/05/21 12:19:04.881717239,1747822743,981334678,mA1/imu,0.05050671352116704,0.9987235595022376,0.0004950049168344111,0.0002802759418900616,0.0,0.0,0.0,0.0,0.0,0.0,0.0,0.0,0.0,0.0003656860935478446,0.0015475658578831385,0.0032042382579282737,0.0,0.0,0.0,0.0,0.0,0.0,0.0,0.0,0.0,0.006160505303370623,0.6375922298695578,9.810934567268013,0.0,0.0,0.0,0.0,0.0,0.0,0.0,0.0,0.0
2025/05/21 12:19:04.893628391,1747822744,35290819,mA1/imu,0.05058759242275302,0.9987194737574434,0.0004976572610622415,0.00024610521145929,0.0,0.0,0.0,0.0,0.0,0.0,0.0,0.0,0.0,0.0003727623462766567,0.0012346100792176137,0.0032897419649169086,0.0,0.0,0.0,0.0,0.0,0.0,0.0,0.0,0.0,0.006715957905454346,0.03591702013438899,9.809956886897817,0.0,0.0,0.0,0.0,0.0,0.0,0.0,0.0,0.0
2025/05/21 12:19:04.906270647,1747822744,80103576,mA1/imu,0.050670602755885016,0.9987152651903182,0.0005098927939222683,0.00022158864228230004,0.0,0.0,0.0,0.0,0.0,0.0,0.0,0.0,0.0,-0.0005383454949113769,0.0008304744931779401,0.0033331689568957407,0.0,0.0,0.0,0.0,0.0,0.0,0.0,0.0,0.0,0.008170465577647376,-0.007372787429220177,9.808129243654923,0.0,0.0,0.0,0.0,0.0,0.0,0.0,0.0,0.0
2025/05/21 12:19:04.916487224,1747822744,128500809,mA1/imu,0.05075641252157919,0.9987109018471939,0.0005282064451385623,0.00020522537705314553,0.0,0.0,0.0,0.0,0.0,0.0,0.0,0.0,0.0,-0.0008132266460592149,0.0007035634380623187,0.003591645935602746,0.0,0.0,0.0,0.0,0.0,0.0,0.0,0.0,0.0,-0.011413475302049619,-0.0037537993325469175,9.80759098690167,0.0,0.0,0.0,0.0,0.0,0.0,0.0,0.0,0.0
2025/05/21 12:19:04.928064777,1747822744,182178250,mA1/imu,0.05084886550305582,0.9987061883032581,0.0005519990306398799,0.00019395592099094081,0.0,0.0,0.0,0.0,0.0,0.0,0.0,0.0,0.0,-0.0019188237681888709,0.0002697204527334194,0.0037187900631251098,0.0,0.0,0.0,0.0,0.0,0.0,0.0,0.0,0.0,0.010381636380606598,0.2524462916034859,9.811925121402764,0.0,0.0,0.0,0.0,0.0,0.0,0.0,0.0,0.0
2025/05/21 12:19:05.878133872,1747822744,930711258,mA1/imu,0.05233456129933824,0.9986290772951547,0.0008005028316634734,0.0006472012440435867,0.0,0.0,0.0,0.0,0.0,0.0,0.0,0.0,0.0,-0.0009815245578816305,0.0008544201231738779,0.004165581821560096,0.0,0.0,0.0,0.0,0.0,0.0,0.0,0.0,0.0,0.00724138704123856,0.4854824469165585,9.80999106009568,0.0,0.0,0.0,0.0,0.0,0.0,0.0,0.0,0.0
2025/05/21 12:19:05.887544600,1747822744,980663159,mA1/imu,0.05243887235088123,0.9986236583050291,0.0007570917754155558,0.0006168890435801038,0.0,0.0,0.0,0.0,0.0,0.0,0.0,0.0,0.0,0.0016562288351185286,0.0012993187642189848,0.004185695159552365,0.0,0.0,0.0,0.0,0.0,0.0,0.0,0.0,0.0,0.006065213377757408,0.058191488942224395,9.80752019555686,0.0,0.0,0.0,0.0,0.0,0.0,0.0,0.0,0.0
2025/05/21 12:19:05.900175549,1747822745,31578073,mA1/imu,0.05252940923565341,0.9986189341257328,0.0007256234622177585,0.0005992007424167321,0.0,0.0,0.0,0.0,0.0,0.0,0.0,0.0,0.0,0.002129302776718066,-0.0004944303817343278,0.002771717364329121,0.0,0.0,0.0,0.0,0.0,0.0,0.0,0.0,0.0,0.11424059558152846,0.048907223016133546,9.81108550190069,0.0,0.0,0.0,0.0,0.0,0.0,0.0,0.0,0.0
2025/05/21 12:19:05.911792560,1747822745,81349659,mA1/imu,0.052585860839875355,0.9986159753410381,0.0006905172144213024,0.0006198543160563511,0.0,0.0,0.0,0.0,0.0,0.0,0.0,0.0,0.0,0.0022761489417259984,-0.0007290838017608753,0.0022317452851612985,0.0,0.0,0.0,0.0,0.0,0.0,0.0,0.0,0.0,0.005354524071718795,0.054957283411511425,9.810521565477424,0.0,0.0,0.0,0.0,0.0,0.0,0.0,0.0,0.0
2025/05/21 12:19:05.924908974,1747822745,133521023,mA1/imu,0.05264046446245119,0.9986131124733109,0.0006612648056137987,0.0006291473598174195,0.0,0.0,0.0,0.0,0.0,0.0,0.0,0.0,0.0,0.002643157243450087,-0.000257631180951558,0.0021555526043816977,0.0,0.0,0.0,0.0,0.0,0.0,0.0,0.0,0.0,0.005137166265664461,-0.5489201235631241,9.806247914464391,0.0,0.0,0.0,0.0,0.0,0.0,0.0,0.0,0.0
2025/05/21 12:19:06.879103833,1747822745,928952008,mA1/imu,0.053179581155996886,0.9985847241561085,0.0006532798920506646,0.00023249843877110382,0.0,0.0,0.0,0.0,0.0,0.0,0.0,0.0,0.0,-0.0007841799488480907,-0.0010706638786666647,0.0006266886991080845,0.0,0.0,0.0,0.0,0.0,0.0,0.0,0.0,0.0,0.004352795982504809,0.041961625362940375,9.808708362415597,0.0,0.0,0.0,0.0,0.0,0.0,0.0,0.0,0.0
2025/05/21 12:19:06.883929343,1747822745,979473360,mA1/imu,0.05319494075560165,0.9985838748092092,0.0006876569044334207,0.0002652866664094509,0.0,0.0,0.0,0.0,0.0,0.0,0.0,0.0,0.0,-0.0003076246206907535,-0.001351636474000795,0.0006069021898113165,0.0,0.0,0.0,0.0,0.0,0.0,0.0,0.0,0.0,0.004542650819341858,-0.5600123960166975,9.808733405296648,0.0,0.0,0.0,0.0,0.0,0.0,0.0,0.0,0.0
2025/05/21 12:19:07.832488556,1747822746,877594449,mA1/imu,0.053326182102855745,0.9985769924896382,0.0005323520361436854,0.00015803161558868283,0.0,0.0,0.0,0.0,0.0,0.0,0.0,0.0,0.0,0.00024147336506110802,0.0009248865467187156,-0.00024302370336426525,0.0,0.0,0.0,0.0,0.0,0.0,0.0,0.0,0.0,0.0007436092596449406,0.5855949917814331,9.810906678601508,0.0,0.0,0.0,0.0,0.0,0.0,0.0,0.0,0.0
2025/05/21 12:19:07.836035190,1747822746,929957482,mA1/imu,0.05331864257522616,0.998577405768311,0.0005173124312448711,0.00013939445373915564,0.0,0.0,0.0,0.0,0.0,0.0,0.0,0.0,0.0,6.28669005566467e-05,0.0005894137135976175,-0.00033231746200792264,0.0,0.0,0.0,0.0,0.0,0.0,0.0,0.0,0.0,-0.0014901364113057815,0.5882730772942573,9.810933945383669,0.0,0.0,0.0,0.0,0.0,0.0,0.0,0.0,0.0
2025/05/21 12:19:07.843690456,1747822746,979799182,mA1/imu,0.05330939750869598,0.9985779064143456,0.0005062381141758407,0.00012915639203397723,0.0,0.0,0.0,0.0,0.0,0.0,0.0,0.0,0.0,-0.0003517996722338809,0.00024333861203022355,-0.00040577048146442124,0.0,0.0,0.0,0.0,0.0,0.0,0.0,0.0,0.0,0.0011291065742402052,0.5785408873603657,9.811640789123437,0.0,0.0,0.0,0.0,0.0,0.0,0.0,0.0,0.0
2025/05/21 12:19:07.859774027,1747822747,31543971,mA1/imu,0.05329816921591789,0.9985785090259551,0.0004995931629703751,0.0001299092124597103,0.0,0.0,0.0,0.0,0.0,0.0,0.0,0.0,0.0,-0.0003390404668058935,-0.0002473229611392636,-0.00046407823814082107,0.0,0.0,0.0,0.0,0.0,0.0,0.0,0.0,0.0,0.005717394496567661,0.45495820056474173,9.810776900482248,0.0,0.0,0.0,0.0,0.0,0.0,0.0,0.0,0.0
2025/05/21 12:19:07.870987008,1747822747,81447938,mA1/imu,0.05328515620864314,0.9985791967441534,0.0005088796812462794,0.00014491063343796326,0.0,0.0,0.0,0.0,0.0,0.0,0.0,0.0,0.0,-0.0006262471890679307,-0.0007947332075618612,-0.0005752764523239322,0.0,0.0,0.0,0.0,0.0,0.0,0.0,0.0,0.0,0.005846001805792762,-0.030105501182716807,9.809546019031094,0.0,0.0,0.0,0.0,0.0,0.0,0.0,0.0,0.0
2025/05/21 12:19:07.885200473,1747822747,132751462,mA1/imu,0.05326988307908389,0.9985800077278931,0.0005084248615291667,0.0001709592396181036,0.0,0.0,0.0,0.0,0.0,0.0,0.0,0.0,0.0,0.00019438774620729018,-0.0011452459685868026,-0.0006009432260253404,0.0,0.0,0.0,0.0,0.0,0.0,0.0,0.0,0.0,-0.00191282620004375,0.04718142171181585,9.809161264754897,0.0,0.0,0.0,0.0,0.0,0.0,0.0,0.0,0.0
2025/05/21 12:19:07.893521277,1747822747,182839196,mA1/imu,0.05325412252658961,0.9985808305860482,0.0005296426624867727,0.00020663651970157993,0.0,0.0,0.0,0.0,0.0,0.0,0.0,0.0,0.0,-0.0013453993340179545,-0.0015601892755142382,-0.0006752768151802806,0.0,0.0,0.0,0.0,0.0,0.0,0.0,0.0,0.0,0.007303678920218787,0.35467239591985417,9.80920010002729,0.0,0.0,0.0,0.0,0.0,0.0,0.0,0.0,0.0
2025/05/21 12:19:07.904631385,1747822747,233843638,mA1/imu,0.05323561850602295,0.9985817939521118,0.0005528416135233246,0.0002531320088192992,0.0,0.0,0.0,0.0,0.0,0.0,0.0,0.0,0.0,-0.0015456017885654518,-0.0019541272801082525,-0.0007859919949000043,0.0,0.0,0.0,0.0,0.0,0.0,0.0,0.0,0.0,0.0069947293161805296,-0.04022598986683777,9.80957908635098,0.0,0.0,0.0,0.0,0.0,0.0,0.0,0.0,0.0
2025/05/21 12:19:07.915043965,1747822747,284246804,mA1/imu,0.053214322379644706,0.9985828953714592,0.0005849396391835821,0.0003079137007890701,0.0,0.0,0.0,0.0,0.0,0.0,0.0,0.0,0.0,-0.0015277652196038745,-0.0022195895634204744,-0.0008988222435805306,0.0,0.0,0.0,0.0,0.0,0.0,0.0,0.0,0.0,0.006537655926039799,-0.6530637422304477,9.808906572169004,0.0,0.0,0.0,0.0,0.0,0.0,0.0,0.0,0.0
2025/05/21 12:19:07.926343062,1747822747,335875825,mA1/imu,0.05319025496802521,0.9985841472076425,0.0006028168440720485,0.00036651585820520556,0.0,0.0,0.0,0.0,0.0,0.0,0.0,0.0,0.0,-0.001329135475316593,-0.0023331648022365103,-0.0010097273721413342,0.0,0.0,0.0,0.0,0.0,0.0,0.0,0.0,0.0,0.005751803124038423,-0.0027086858875177144,9.80824172634407,0.0,0.0,0.0,0.0,0.0,0.0,0.0,0.0,0.0
2025/05/21 12:19:08.882552892,1747822747,934926384,mA1/imu,0.05290384295787106,0.9985991633216883,0.0008034254395410876,0.0004989199092613243,0.0,0.0,0.0,0.0,0.0,0.0,0.0,0.0,0.0,0.0007055118493215931,0.0018832850517029366,-0.0006004340682922115,0.0,0.0,0.0,0.0,0.0,0.0,0.0,0.0,0.0,0.010470670176584214,-0.007885490806653314,9.811295934320764,0.0,0.0,0.0,0.0,0.0,0.0,0.0,0.0,0.0
2025/05/21 12:19:08.894504266,1747822747,975545858,mA1/imu,0.05288917247580521,0.9985999780932721,0.0007847929172011453,0.00045087361641256814,0.0,0.0,0.0,0.0,0.0,0.0,0.0,0.0,0.0,0.0009342837450513424,0.0018633634794756816,-0.000577411016436875,0.0,0.0,0.0,0.0,0.0,0.0,0.0,0.0,0.0,0.010600171552752686,-0.007927437280766158,9.811821512318321,0.0,0.0,0.0,0.0,0.0,0.0,0.0,0.0,0.0
2025/05/21 12:19:08.908270563,1747822748,26501977,mA1/imu,0.052874399175645084,0.9986007980440721,0.0007613265697933146,0.00040551129553436304,0.0,0.0,0.0,0.0,0.0,0.0,0.0,0.0,0.0,0.0010840349109283933,0.0016581628930122834,-0.0006237699627942358,0.0,0.0,0.0,0.0,0.0,0.0,0.0,0.0,0.0,0.014759110364229923,-0.013456872803929253,9.81139956506749,0.0,0.0,0.0,0.0,0.0,0.0,0.0,0.0,0.0
2025/05/21 12:19:08.916152822,1747822748,76316501,mA1/imu,0.052859040061547784,0.9986016467625033,0.000734878995168808,0.00036458174773101436,0.0,0.0,0.0,0.0,0.0,0.0,0.0,0.0,0.0,0.001175430876620455,0.0015506273990449871,-0.0005846864284388351,0.0,0.0,0.0,0.0,0.0,0.0,0.0,0.0,0.0,0.006048506684414278,-0.012112869545224043,9.811677795930906,0.0,0.0,0.0,0.0,0.0,0.0,0.0,0.0,0.0
2025/05/21 12:19:09.885447021,1747822748,926358717,mA1/imu,0.05257146282077209,0.998616755292933,0.0007254901146321481,0.0005394526782689017,0.0,0.0,0.0,0.0,0.0,0.0,0.0,0.0,0.0,-0.0007568190681981173,-5.357628862863533e-05,-0.0010995675775189177,0.0,0.0,0.0,0.0,0.0,0.0,0.0,0.0,0.0,0.0003468721152835655,0.01703408523050752,9.80960660483082,0.0,0.0,0.0,0.0,0.0,0.0,0.0,0.0,0.0
2025/05/21 12:19:09.893867493,1747822748,977838195,mA1/imu,0.052543696340855144,0.9986182017991416,0.0007480270835886564,0.0005361583451588358,0.0,0.0,0.0,0.0,0.0,0.0,0.0,0.0,0.0,-0.0008248921463019778,0.00032593745245219045,-0.0011300331307606654,0.0,0.0,0.0,0.0,0.0,0.0,0.0,0.0,0.0,0.003892498290961253,0.634529849656665,9.811042141260812,0.0,0.0,0.0,0.0,0.0,0.0,0.0,0.0,0.0
2025/05/21 12:19:09.910982632,1747822749,28964040,mA1/imu,0.05251514244085023,0.9986196791188834,0.0007868658515309805,0.0005264342765311737,0.0,0.0,0.0,0.0,0.0,0.0,0.0,0.0,0.0,-0.002108395596457719,0.0005289996567892717,-0.0011341762922980484,0.0,0.0,0.0,0.0,0.0,0.0,0.0,0.0,0.0,0.008842534195519756,0.5413424521431105,9.810771584897049,0.0,0.0,0.0,0.0,0.0,0.0,0.0,0.0,0.0
2025/05/21 12:19:09.918063999,1747822749,79347295,mA1/imu,0.05248602445622918,0.9986211989044638,0.0008100879676106104,0.0005119500719381851,0.0,0.0,0.0,0.0,0.0,0.0,0.0,0.0,0.0,-0.00045446505944000395,0.000687567117546172,-0.0012021029128897027,0.0,0.0,0.0,0.0,0.0,0.0,0.0,0.0,0.0,0.008140017426422449,-0.6134519204658399,9.80991875091637,0.0,0.0,0.0,0.0,0.0,0.0,0.0,0.0,0.0
2025/05/21 12:19:10.877457931,1747822749,927082439,mA1/imu,0.051692028036049005,0.9986627546922601,0.0006507118989045897,0.00046173803376917214,0.0,0.0,0.0,0.0,0.0,0.0,0.0,0.0,0.0,0.0011039331477464525,-0.0004349520867972087,-0.002081063996300733,0.0,0.0,0.0,0.0,0.0,0.0,0.0,0.0,0.0,0.008440251999564087,-0.5926178091836138,9.807370289448409,0.0,0.0,0.0,0.0,0.0,0.0,0.0,0.0,0.0
2025/05/21 12:19:10.879482325,1747822749,979291319,mA1/imu,0.051639984528912636,0.9986654453986122,0.0006461456346846158,0.00047186911744898324,0.0,0.0,0.0,0.0,0.0,0.0,0.0,0.0,0.0,0.001450588498676487,-0.0004168928564020144,-0.002087208081506286,0.0,0.0,0.0,0.0,0.0,0.0,0.0,0.0,0.0,0.00935988726775323,-0.5578667190899231,9.80830277433064,0.0,0.0,0.0,0.0,0.0,0.0,0.0,0.0,0.0
2025/05/21 12:19:11.637350519,1747822750,683672866,mA1/imu,0.05087662626510403,0.9987044078491868,0.0009027009699570895,0.0005096797472506245,0.0,0.0,0.0,0.0,0.0,0.0,0.0,0.0,0.0,-0.001477718181004604,0.0007542806770014473,-0.0019799814710219615,0.0,0.0,0.0,0.0,0.0,0.0,0.0,0.0,0.0,0.01039151230872174,0.5302826830469791,9.810122037377335,0.0,0.0,0.0,0.0,0.0,0.0,0.0,0.0,0.0
2025/05/21 12:19:11.645939207,1747822750,735625108,mA1/imu,0.05082769476959141,0.9987068988737829,0.0009133606934878905,0.0004912825707348239,0.0,0.0,0.0,0.0,0.0,0.0,0.0,0.0,0.0,-0.0001385353314058661,0.0007579178011155741,-0.0019446346536386586,0.0,0.0,0.0,0.0,0.0,0.0,0.0,0.0,0.0,0.011290131317718536,-0.6533826378126523,9.809788776527087,0.0,0.0,0.0,0.0,0.0,0.0,0.0,0.0,0.0
2025/05/21 12:19:11.655988969,1747822750,776039271,mA1/imu,0.050779638706882395,0.9987093544826839,0.0009111731460438344,0.0004725728274578713,0.0,0.0,0.0,0.0,0.0,0.0,0.0,0.0,0.0,-0.0006793980124088036,0.0007353489599364129,-0.0019111329468908637,0.0,0.0,0.0,0.0,0.0,0.0,0.0,0.0,0.0,0.010856831596035593,-0.07656331327603372,9.81056946596755,0.0,0.0,0.0,0.0,0.0,0.0,0.0,0.0,0.0
2025/05/21 12:19:11.665126128,1747822750,826841208,mA1/imu,0.050732887473692874,0.9987117368735957,0.0009131657504659128,0.00045484922732777684,0.0,0.0,0.0,0.0,0.0,0.0,0.0,0.0,0.0,-0.0008367548818457243,0.0007161392530411032,-0.0018288729947477157,0.0,0.0,0.0,0.0,0.0,0.0,0.0,0.0,0.0,0.008089527394958457,-0.10636676180736121,9.811129671178872,0.0,0.0,0.0,0.0,0.0,0.0,0.0,0.0,0.0
2025/05/21 12:19:12.635140060,1747822751,675579041,mA1/imu,0.0502503033829035,0.9987362985782446,0.000698426683002489,0.00047446003242839787,0.0,0.0,0.0,0.0,0.0,0.0,0.0,0.0,0.0,-0.0009264175896765664,-0.0005908425507181322,-0.0005571669511344526,0.0,0.0,0.0,0.0,0.0,0.0,0.0,0.0,0.0,0.009706908655623273,-0.12276096222133545,9.811473466345989,0.0,0.0,0.0,0.0,0.0,0.0,0.0,0.0,0.0
2025/05/21 12:19:12.636921141,1747822751,732666589,mA1/imu,0.05023676639005604,0.9987369619118357,0.0007133235479804974,0.0004892681302229892,0.0,0.0,0.0,0.0,0.0,0.0,0.0,0.0,0.0,-0.002353898860093455,-0.0005318846779267417,-0.0005325202203547741,0.0,0.0,0.0,0.0,0.0,0.0,0.0,0.0,0.0,0.009681063690623739,0.4945493825875801,9.81235045361517,0.0,0.0,0.0,0.0,0.0,0.0,0.0,0.0,0.0
2025/05/21 12:19:12.645039184,1747822751,784249511,mA1/imu,0.050223826240743584,0.9987375912140142,0.000733963959851565,0.0005024645995198736,0.0,0.0,0.0,0.0,0.0,0.0,0.0,0.0,0.0,-0.0027647700524912155,-0.00043648284792952426,-0.0005085968899182177,0.0,0.0,0.0,0.0,0.0,0.0,0.0,0.0,0.0,0.008923865230245749,0.47434753570084254,9.810631194830806,0.0,0.0,0.0,0.0,0.0,0.0,0.0,0.0,0.0
2025/05/21 12:19:12.656530063,1747822751,826803040,mA1/imu,0.05021151758583409,0.9987381946680297,0.0007472648763108168,0.0005134278689315854,0.0,0.0,0.0,0.0,0.0,0.0,0.0,0.0,0.0,-0.001156550073178581,-0.000357476174504405,-0.00048335943587734804,0.0,0.0,0.0,0.0,0.0,0.0,0.0,0.0,0.0,0.008713754686577469,0.5872263782768201,9.810751610813293,0.0,0.0,0.0,0.0,0.0,0.0,0.0,0.0,0.0
2025/05/21 12:19:12.667325374,1747822751,876523361,mA1/imu,0.05019979107682198,0.9987387637250027,0.0007686486994900553,0.0005215247582543402,0.0,0.0,0.0,0.0,0.0,0.0,0.0,0.0,0.0,-0.00032919611300127676,-0.00022508449095833867,-0.000460156156154309,0.0,0.0,0.0,0.0,0.0,0.0,0.0,0.0,0.0,0.0086017804362442,0.014500998822272144,9.811286673412217,0.0,0.0,0.0,0.0,0.0,0.0,0.0,0.0,0.0
2025/05/21 12:19:12.677754265,1747822751,927546925,mA1/imu,0.05018867284941597,0.9987393039241556,0.0007894349841738827,0.0005260295743128743,0.0,0.0,0.0,0.0,0.0,0.0,0.0,0.0,0.0,0.0009167909457735491,-8.259764139443905e-05,-0.0004343478216277384,0.0,0.0,0.0,0.0,0.0,0.0,0.0,0.0,0.0,0.008160506029420072,-0.3253394269616628,9.810825154835944,0.0,0.0,0.0,0.0,0.0,0.0,0.0,0.0,0.0
2025/05/21 12:19:13.635873100,1747822752,683996594,mA1/imu,0.05020796791593855,0.998738421549947,0.000762131941783709,0.0003800428608485981,0.0,0.0,0.0,0.0,0.0,0.0,0.0,0.0,0.0,-0.00050230211481345,-0.0004158782096647091,0.000444578028603051,0.0,0.0,0.0,0.0,0.0,0.0,0.0,0.0,0.0,0.009773355226260199,0.5143196104180382,9.81047780506229,0.0,0.0,0.0,0.0,0.0,0.0,0.0,0.0,0.0
2025/05/21 12:19:13.637362778,1747822752,735992080,mA1/imu,0.05021942639062672,0.9987378571743748,0.0007402843504714882,0.0003922229145403497,0.0,0.0,0.0,0.0,0.0,0.0,0.0,0.0,0.0,0.00019740063369332606,-0.0005840271325990697,0.00046766865297357394,0.0,0.0,0.0,0.0,0.0,0.0,0.0,0.0,0.0,0.009376073802286833,0.1826953426983013,9.810443039309508,0.0,0.0,0.0,0.0,0.0,0.0,0.0,0.0,0.0
2025/05/21 12:19:13.649927675,1747822752,775458341,mA1/imu,0.050231479812129366,0.9987372581413179,0.0007218803558389975,0.0004080747457789353,0.0,0.0,0.0,0.0,0.0,0.0,0.0,0.0,0.0,0.0005538830135812859,-0.000714308930406479,0.0004914626456149117,0.0,0.0,0.0,0.0,0.0,0.0,0.0,0.0,0.0,0.008824225144152816,-0.031150996820719066,9.809203622186335,0.0,0.0,0.0,0.0,0.0,0.0,0.0,0.0,0.0
2025/05/21 12:19:13.659961128,1747822752,826815923,mA1/imu,0.05024461742348656,0.9987366041011859,0.0007020032065270235,0.00042572279290744127,0.0,0.0,0.0,0.0,0.0,0.0,0.0,0.0,0.0,0.0018945796787993919,-0.0007390629128416818,0.000564171231581473,0.0,0.0,0.0,0.0,0.0,0.0,0.0,0.0,0.0,0.004968355455498278,-0.5476119232802859,9.811539797783604,0.0,0.0,0.0,0.0,0.0,0.0,0.0,0.0,0.0
2025/05/21 12:19:13.670580213,1747822752,876320251,mA1/imu,0.05025950519864782,0.9987358514744804,0.0006957783560575038,0.0004438571965751694,0.0,0.0,0.0,0.0,0.0,0.0,0.0,0.0,0.0,0.0012164726401536017,-0.0007725133797449675,0.0006062521954769492,0.0,0.0,0.0,0.0,0.0,0.0,0.0,0.0,0.0,0.009630803202709691,-0.6000654124993982,9.81017672542533,0.0,0.0,0.0,0.0,0.0,0.0,0.0,0.0,0.0
2025/05/21 12:19:14.630273938,1747822753,679093883,mA1/imu,0.05041428672245208,0.9987279326955463,0.0009230027637130736,0.00025340450839765637,0.0,0.0,0.0,0.0,0.0,0.0,0.0,0.0,0.0,-0.0003824238252069943,0.0017294520630469744,0.0003396244707330401,0.0,0.0,0.0,0.0,0.0,0.0,0.0,0.0,0.0,0.0004611514636333799,-0.38114825877353925,9.808276568972852,0.0,0.0,0.0,0.0,0.0,0.0,0.0,0.0,0.0
2025/05/21 12:19:14.632916158,1747822753,728345371,mA1/imu,0.05042356668280543,0.9987274743171114,0.000922338635580629,0.00021274066327546577,0.0,0.0,0.0,0.0,0.0,0.0,0.0,0.0,0.0,-0.0006908901364234813,0.0015439630730141889,0.0003963830501019935,0.0,0.0,0.0,0.0,0.0,0.0,0.0,0.0,0.0,0.0017291069232961516,-0.08584682710042794,9.810553281956997,0.0,0.0,0.0,0.0,0.0,0.0,0.0,0.0,0.0
2025/05/21 12:19:14.641049634,1747822753,778117698,mA1/imu,0.050434115475832764,0.9987269568370507,0.0009131865296698986,0.00017825132919493714,0.0,0.0,0.0,0.0,0.0,0.0,0.0,0.0,0.0,-0.000845607538294495,0.0012294736644799958,0.00044218005590617354,0.0,0.0,0.0,0.0,0.0,0.0,0.0,0.0,0.0,0.0019731253016318797,0.34230480138878394,9.80930019958779,0.0,0.0,0.0,0.0,0.0,0.0,0.0,0.0,0.0
2025/05/21 12:19:14.651990754,1747822753,831377936,mA1/imu,0.050446021866367076,0.9987263757842377,0.0008954785660498664,0.00015267245042206428,0.0,0.0,0.0,0.0,0.0,0.0,0.0,0.0,0.0,0.0016347050651072958,0.0008278692650997673,0.0004943834830301071,0.0,0.0,0.0,0.0,0.0,0.0,0.0,0.0,0.0,0.0023455349307332373,0.051309329620647076,9.808908861677448,0.0,0.0,0.0,0.0,0.0,0.0,0.0,0.0,0.0
2025/05/21 12:19:14.882781422,1747822753,932197686,mA1/imu,0.05047225528293776,0.9987250767686509,0.0008686109089973835,0.00013414617204728714,0.0,0.0,0.0,0.0,0.0,0.0,0.0,0.0,0.0,0.0014527747178707708,-8.556374729227576e-05,0.0004929906805500433,0.0,0.0,0.0,0.0,0.0,0.0,0.0,0.0,0.0,0.0008347427817631337,-0.19467831823825393,9.810525314425192,0.0,0.0,0.0,0.0,0.0,0.0,0.0,0.0,0.0
2025/05/21 12:19:14.883501083,1747822753,982037771,mA1/imu,0.050484423413968284,0.9987244826742264,0.0008431527408181871,0.00014068800115897605,0.0,0.0,0.0,0.0,0.0,0.0,0.0,0.0,0.0,0.001585841687262805,-0.00047482311748570875,0.0005075626252116359,0.0,0.0,0.0,0.0,0.0,0.0,0.0,0.0,0.0,0.0006282084344477006,-0.270757293737515,9.80917567089333,0.0,0.0,0.0,0.0,0.0,0.0,0.0,0.0,0.0
2025/05/21 12:19:14.894755576,1747822754,33429274,mA1/imu,0.05049699617240692,0.9987238646813397,0.0008186927992051097,0.00015885727356780804,0.0,0.0,0.0,0.0,0.0,0.0,0.0,0.0,0.0,0.0006023977364754119,-0.0009900746920873825,0.0005148146817299187,0.0,0.0,0.0,0.0,0.0,0.0,0.0,0.0,0.0,0.007467272512429668,0.579179302397214,9.81133394258879,0.0,0.0,0.0,0.0,0.0,0.0,0.0,0.0,0.0
2025/05/21 12:19:14.904816539,1747822754,83360277,mA1/imu,0.05050938546756653,0.9987232510642446,0.0007959025782032412,0.00019053199301641407,0.0,0.0,0.0,0.0,0.0,0.0,0.0,0.0,0.0,0.0003091700166821314,-0.0015147109166055266,0.0004639888232809853,0.0,0.0,0.0,0.0,0.0,0.0,0.0,0.0,0.0,0.007240302886924042,-0.0750675642183754,9.811503623444986,0.0,0.0,0.0,0.0,0.0,0.0,0.0,0.0,0.0
2025/05/21 12:19:14.915067558,1747822754,134496205,mA1/imu,0.05052001541563702,0.9987227306267782,0.000762124157213261,0.0002335349327739705,0.0,0.0,0.0,0.0,0.0,0.0,0.0,0.0,0.0,-0.000302133103397421,-0.0019330760193002905,0.00039980894579275827,0.0,0.0,0.0,0.0,0.0,0.0,0.0,0.0,0.0,0.006846635284913854,0.5094811493544725,9.81204691963014,0.0,0.0,0.0,0.0,0.0,0.0,0.0,0.0,0.0
2025/05/21 12:19:14.926305040,1747822754,184205072,mA1/imu,0.050529155948764976,0.9987222820001612,0.0007256678301688914,0.00028502928967909957,0.0,0.0,0.0,0.0,0.0,0.0,0.0,0.0,0.0,0.001829188480141523,-0.0022353603456356547,0.00034235923466444855,0.0,0.0,0.0,0.0,0.0,0.0,0.0,0.0,0.0,0.005436011390408525,0.04936933011456727,9.810513123468347,0.0,0.0,0.0,0.0,0.0,0.0,0.0,0.0,0.0
2025/05/21 12:19:15.883451484,1747822754,933096579,mA1/imu,0.05088683744424422,0.9987040244685926,0.0008691000661163962,0.00021436005872479673,0.0,0.0,0.0,0.0,0.0,0.0,0.0,0.0,0.0,-0.0011919978242931658,0.0012498626438464196,0.0015534334926999753,0.0,0.0,0.0,0.0,0.0,0.0,0.0,0.0,0.0,0.0050216270124531105,-0.05273657541633108,9.809213052775364,0.0,0.0,0.0,0.0,0.0,0.0,0.0,0.0,0.0
2025/05/21 12:19:15.885407347,1747822754,983293616,mA1/imu,0.05092593500421831,0.9987020183104611,0.0008895604103082828,0.00019091577745157593,0.0,0.0,0.0,0.0,0.0,0.0,0.0,0.0,0.0,-0.0007413528535946095,0.0007777368224310742,0.0015670784214563275,0.0,0.0,0.0,0.0,0.0,0.0,0.0,0.0,0.0,0.00767060239635174,-0.01504472877110197,9.809897058327167,0.0,0.0,0.0,0.0,0.0,0.0,0.0,0.0,0.0
2025/05/21 12:19:15.893134735,1747822755,34318069,mA1/imu,0.05096539660120067,0.9986999940168224,0.000904203388720116,0.00018087651319068185,0.0,0.0,0.0,0.0,0.0,0.0,0.0,0.0,0.0,7.194679212050881e-05,0.00017562533330943634,0.001602993701331739,0.0,0.0,0.0,0.0,0.0,0.0,0.0,0.0,0.0,0.01116451639123862,0.02972228032846346,9.810285138841968,0.0,0.0,0.0,0.0,0.0,0.0,0.0,0.0,0.0
2025/05/21 12:19:15.904460172,1747822755,84169002,mA1/imu,0.05100521899802909,0.998697944146722,0.0009213104093451212,0.00018756119996174046,0.0,0.0,0.0,0.0,0.0,0.0,0.0,0.0,0.0,-0.0012951138448579888,-0.0004986117339661786,0.0015729665920276438,0.0,0.0,0.0,0.0,0.0,0.0,0.0,0.0,0.0,0.012099303382888373,0.5468086561240634,9.811337081767295,0.0,0.0,0.0,0.0,0.0,0.0,0.0,0.0,0.0
2025/05/21 12:19:15.914160126,1747822755,135112865,mA1/imu,0.051044450386835125,0.9986959240810893,0.0009331968796648256,0.0002108366867963056,0.0,0.0,0.0,0.0,0.0,0.0,0.0,0.0,0.0,-0.0010370049431379432,-0.0011663924912563052,0.0015962047711504087,0.0,0.0,0.0,0.0,0.0,0.0,0.0,0.0,0.0,0.013189832854235008,-0.08020228652982961,9.81068907050444,0.0,0.0,0.0,0.0,0.0,0.0,0.0,0.0,0.0
2025/05/21 12:19:15.924497911,1747822755,185032481,mA1/imu,0.05108434633973569,0.9986938820110877,0.000926040709765255,0.00024908084984167906,0.0,0.0,0.0,0.0,0.0,0.0,0.0,0.0,0.0,0.001040870012296434,-0.0017881060671139431,0.0015793894627642011,0.0,0.0,0.0,0.0,0.0,0.0,0.0,0.0,0.0,0.012829714958597286,-0.5622525578511113,9.80912494985486,0.0,0.0,0.0,0.0,0.0,0.0,0.0,0.0,0.0
2025/05/21 12:19:16.884959447,1747822755,934306267,mA1/imu,0.052071231747588674,0.9986430357081161,0.000688077413714424,0.0004478899866452895,0.0,0.0,0.0,0.0,0.0,0.0,0.0,0.0,0.0,-0.0007121725662032229,0.0014236484769903465,0.0036711349445862026,0.0,0.0,0.0,0.0,0.0,0.0,0.0,0.0,0.0,0.009498928168186954,0.2350370772059157,9.808291513329737,0.0,0.0,0.0,0.0,0.0,0.0,0.0,0.0,0.0
2025/05/21 12:19:16.887620589,1747822755,983431189,mA1/imu,0.05216380537192913,0.9986382072077462,0.0007044940387186125,0.0004149724900440585,0.0,0.0,0.0,0.0,0.0,0.0,0.0,0.0,0.0,-0.001707176507756091,0.0012774180171896358,0.0037254454466503746,0.0,0.0,0.0,0.0,0.0,0.0,0.0,0.0,0.0,0.012529063092911769,0.5274844937331669,9.808594369984963,0.0,0.0,0.0,0.0,0.0,0.0,0.0,0.0,0.0
2025/05/21 12:19:16.894249460,1747822756,34449408,mA1/imu,0.05225785923056679,0.9986332891531756,0.0007204084625755971,0.0003885297867254712,0.0,0.0,0.0,0.0,0.0,0.0,0.0,0.0,0.0,-0.00029433015565485157,0.0009248200915837573,0.003813931925470366,0.0,0.0,0.0,0.0,0.0,0.0,0.0,0.0,0.0,0.017890407369418826,-0.620071188693772,9.809338549355244,0.0,0.0,0.0,0.0,0.0,0.0,0.0,0.0,0.0
2025/05/21 12:19:16.904548682,1747822756,84641322,mA1/imu,0.05235365640288661,0.9986282615855749,0.0007420969294514721,0.0003729825309159248,0.0,0.0,0.0,0.0,0.0,0.0,0.0,0.0,0.0,-0.001017329299092806,0.0004965995023366721,0.0038342495343314676,0.0,0.0,0.0,0.0,0.0,0.0,0.0,0.0,0.0,0.01670213623435593,-0.03131005227713235,9.810196656040556,0.0,0.0,0.0,0.0,0.0,0.0,0.0,0.0,0.0
2025/05/21 12:19:16.915190272,1747822756,135648609,mA1/imu,0.05245021365900253,0.9986231808240681,0.0007635225854779889,0.0003672073079497614,0.0,0.0,0.0,0.0,0.0,0.0,0.0,0.0,0.0,-0.0018483182402390542,0.00016547038515192882,0.0039193660992396274,0.0,0.0,0.0,0.0,0.0,0.0,0.0,0.0,0.0,0.013849175286856386,0.5492286614944741,9.80905420588178,0.0,0.0,0.0,0.0,0.0,0.0,0.0,0.0,0.0
2025/05/21 12:19:16.926179048,1747822756,175510965,mA1/imu,0.05254844887245633,0.9986179891413813,0.0007962762529058487,0.0003717908711212229,0.0,0.0,0.0,0.0,0.0,0.0,0.0,0.0,0.0,-0.0024345767016905446,-0.000300039008363422,0.003932552888340548,0.0,0.0,0.0,0.0,0.0,0.0,0.0,0.0,0.0,0.017186416157897084,0.44038371313191427,9.809752006379483,0.0,0.0,0.0,0.0,0.0,0.0,0.0,0.0,0.0
2025/05/21 12:19:17.882471552,1747822756,933952415,mA1/imu,0.05438486085520271,0.9985195294792576,0.0008554048195726513,0.0005517616124357446,0.0,0.0,0.0,0.0,0.0,0.0,0.0,0.0,0.0,0.0015377570889436633,0.0006912016742782388,0.005961081670854842,0.0,0.0,0.0,0.0,0.0,0.0,0.0,0.0,0.0,0.01111254460889985,-0.609999561445332,9.809536291328643,0.0,0.0,0.0,0.0,0.0,0.0,0.0,0.0,0.0
2025/05/21 12:19:17.885888418,1747822756,983772779,mA1/imu,0.05453499694934304,0.9985113681081851,0.0008351993434251939,0.0005332058821873233,0.0,0.0,0.0,0.0,0.0,0.0,0.0,0.0,0.0,0.000871196130334312,0.0006771353595929155,0.006040222049011252,0.0,0.0,0.0,0.0,0.0,0.0,0.0,0.0,0.0,0.014071319706622657,-0.06946018683173061,9.810511295221245,0.0,0.0,0.0,0.0,0.0,0.0,0.0,0.0,0.0
2025/05/21 12:19:17.896072069,1747822757,34872334,mA1/imu,0.054671815696513616,0.9985039051795079,0.0008094570363960745,0.000537297892129787,0.0,0.0,0.0,0.0,0.0,0.0,0.0,0.0,0.0,0.0010537442947784383,-0.0015560163819340286,0.004613090510415839,0.0,0.0,0.0,0.0,0.0,0.0,0.0,0.0,0.0,0.12832378476023176,-0.021361186347763374,9.8048265185231,0.0,0.0,0.0,0.0,0.0,0.0,0.0,0.0,0.0
2025/05/21 12:19:17.903444514,1747822757,84650289,mA1/imu,0.05477531864758237,0.9984982196042398,0.0007871513755290775,0.0005918673256021721,0.0,0.0,0.0,0.0,0.0,0.0,0.0,0.0,0.0,0.00047400238796019224,-0.002147004539428217,0.004149461342854787,0.0,0.0,0.0,0.0,0.0,0.0,0.0,0.0,0.0,0.010123487038904854,-0.04299600420356245,9.80828886320636,0.0,0.0,0.0,0.0,0.0,0.0,0.0,0.0,0.0
2025/05/21 12:19:17.914047644,1747822757,135641661,mA1/imu,0.05487625847665344,0.9984926630515601,0.000763680972437671,0.0006441111545265514,0.0,0.0,0.0,0.0,0.0,0.0,0.0,0.0,0.0,0.0006577483658717071,-0.0021702078367942775,0.00392550974950301,0.0,0.0,0.0,0.0,0.0,0.0,0.0,0.0,0.0,0.009523984546226189,-0.0904880519579179,9.810036098170771,0.0,0.0,0.0,0.0,0.0,0.0,0.0,0.0,0.0
2025/05/21 12:19:17.924408575,1747822757,175392317,mA1/imu,0.054974928144479546,0.9984872275496692,0.0007339125387210374,0.0006892518189188155,0.0,0.0,0.0,0.0,0.0,0.0,0.0,0.0,0.0,0.002458649716451398,-0.001658388978419625,0.003977865847799225,0.0,0.0,0.0,0.0,0.0,0.0,0.0,0.0,0.0,0.005788276686038934,-0.5370948056511142,9.80832250434467,0.0,0.0,0.0,0.0,0.0,0.0,0.0,0.0,0.0
2025/05/21 12:19:18.881364110,1747822757,932668116,mA1/imu,0.05666279781228831,0.9983929307020791,0.0009384623954011013,5.056213918750433e-05,0.0,0.0,0.0,0.0,0.0,0.0,0.0,0.0,0.0,-0.0005727012440694764,0.00028601614937642534,0.004905991046528731,0.0,0.0,0.0,0.0,0.0,0.0,0.0,0.0,0.0,0.0029894900094889435,-0.6416286354810811,9.81046192400374,0.0,0.0,0.0,0.0,0.0,0.0,0.0,0.0,0.0
2025/05/21 12:19:18.884439531,1747822757,982450768,mA1/imu,0.05678611943247424,0.9983859159613991,0.0009467767275953634,5.5349315938742936e-05,0.0,0.0,0.0,0.0,0.0,0.0,0.0,0.0,0.0,0.0010247097772198735,-0.0005112265722298587,0.004949459291543606,0.0,0.0,0.0,0.0,0.0,0.0,0.0,0.0,0.0,0.007094296791540025,-0.5432174873565314,9.810245503247907,0.0,0.0,0.0,0.0,0.0,0.0,0.0,0.0,0.0
2025/05/21 12:19:19.386607763,1747822758,427531035,mA1/imu,0.057576529390424104,0.9983404993196425,0.0007909218767420941,0.0007517473945546357,0.0,0.0,0.0,0.0,0.0,0.0,0.0,0.0,0.0,0.0010520990875840816,-0.00029725768180923547,0.0034442224701860128,0.0,0.0,0.0,0.0,0.0,0.0,0.0,0.0,0.0,-0.010535768999557544,0.5989933788395168,9.80963810413493,0.0,0.0,0.0,0.0,0.0,0.0,0.0,0.0,0.0
2025/05/21 12:19:19.388352102,1747822758,476807147,mA1/imu,0.05766337342178609,0.9983355096016477,0.0007728434837866685,0.0007405045494975909,0.0,0.0,0.0,0.0,0.0,0.0,0.0,0.0,0.0,-0.0005784978552257884,0.0008602117725822307,0.0034931109425478213,0.0,0.0,0.0,0.0,0.0,0.0,0.0,0.0,0.0,-0.0067259861819557315,0.4895598669596307,9.808848580219347,0.0,0.0,0.0,0.0,0.0,0.0,0.0,0.0,0.0
2025/05/21 12:19:19.399365214,1747822758,528201613,mA1/imu,0.05775028035523723,0.9983305366789641,0.0007421967013752626,0.000702707079505958,0.0,0.0,0.0,0.0,0.0,0.0,0.0,0.0,0.0,0.00044950434905288754,0.001784991221336512,0.003444111686110633,0.0,0.0,0.0,0.0,0.0,0.0,0.0,0.0,0.0,0.0016266103122623225,-0.07095291200755503,9.810177957524612,0.0,0.0,0.0,0.0,0.0,0.0,0.0,0.0,0.0
2025/05/21 12:19:20.82723718,1747822759,133194622,mA1/imu,0.058712835774440746,0.9982745615371829,0.0008365900779187834,-5.31047121248959e-05,0.0,0.0,0.0,0.0,0.0,0.0,0.0,0.0,0.0,-0.002194062256014437,-0.0017039241204766856,0.0024190657230839215,0.0,0.0,0.0,0.0,0.0,0.0,0.0,0.0,0.0,0.04562868267189138,0.5319589398282969,9.811343658745457,0.0,0.0,0.0,0.0,0.0,0.0,0.0,0.0,0.0
2025/05/21 12:19:20.86124805,1747822759,183047054,mA1/imu,0.05876894873918526,0.9982712451980819,0.000855340278618498,8.23224921933187e-06,0.0,0.0,0.0,0.0,0.0,0.0,0.0,0.0,0.0,-0.0005579002026386844,-0.0026390184672879925,0.0022621186171853653,0.0,0.0,0.0,0.0,0.0,0.0,0.0,0.0,0.0,-0.0032822456500000707,0.6387786318311559,9.81179474995713,0.0,0.0,0.0,0.0,0.0,0.0,0.0,0.0,0.0
2025/05/21 12:19:20.95806184,1747822759,234687703,mA1/imu,0.05882686785531872,0.9982678093581865,0.0008795813317618353,8.21840698158586e-05,0.0,0.0,0.0,0.0,0.0,0.0,0.0,0.0,0.0,0.0012979848707739764,-0.0030346649148804295,0.002374616422311259,0.0,0.0,0.0,0.0,0.0,0.0,0.0,0.0,0.0,-0.00839063401356162,-0.4639197747710574,9.80933607863159,0.0,0.0,0.0,0.0,0.0,0.0,0.0,0.0,0.0
2025/05/21 12:19:20.109050177,1747822759,283927222,mA1/imu,0.05888719777378592,0.9982642144504156,0.0009106606380209075,0.00016365588326397687,0.0,0.0,0.0,0.0,0.0,0.0,0.0,0.0,0.0,0.00014326632697744799,-0.0033094011413590265,0.0024333144456122756,0.0,0.0,0.0,0.0,0.0,0.0,0.0,0.0,0.0,-0.0032916227558590395,-0.5857215950486077,9.80926732592429,0.0,0.0,0.0,0.0,0.0,0.0,0.0,0.0,0.0
2025/05/21 12:19:20.120954834,1747822759,335554655,mA1/imu,0.058949168258643866,0.9982605211919136,0.000930574707217098,0.00024783457625056555,0.0,0.0,0.0,0.0,0.0,0.0,0.0,0.0,0.0,-0.001230471736036858,-0.0033018872840285167,0.00253370952657619,0.0,0.0,0.0,0.0,0.0,0.0,0.0,0.0,0.0,-0.00936959985076345,-0.6930105039431114,9.809434144329565,0.0,0.0,0.0,0.0,0.0,0.0,0.0,0.0,0.0
2025/05/21 12:19:20.132843157,1747822759,384806609,mA1/imu,0.05901388738663967,0.9982566664356869,0.0009384641184703396,0.00032908558958512086,0.0,0.0,0.0,0.0,0.0,0.0,0.0,0.0,0.0,-0.0028814211305877753,-0.0031487038001420248,0.0026099260181687506,0.0,0.0,0.0,0.0,0.0,0.0,0.0,0.0,0.0,-0.005673919770346111,0.4454314549712672,9.809856631281102,0.0,0.0,0.0,0.0,0.0,0.0,0.0,0.0,0.0
2025/05/21 12:19:21.82407707,1747822760,132478182,mA1/imu,0.06005891015054183,0.9981945616667958,0.0007369278093850391,3.616305259420777e-05,0.0,0.0,0.0,0.0,0.0,0.0,0.0,0.0,0.0,-3.838857580869062e-05,0.003176998012983115,0.003739251678573498,0.0,0.0,0.0,0.0,0.0,0.0,0.0,0.0,0.0,-0.048296900129424995,-0.07632998143200805,9.81251598565175,0.0,0.0,0.0,0.0,0.0,0.0,0.0,0.0,0.0
2025/05/21 12:19:21.86525057,1747822760,182740075,mA1/imu,0.06015839921824562,0.998188579262327,0.0007249600937428894,-4.08242304221705e-05,0.0,0.0,0.0,0.0,0.0,0.0,0.0,0.0,0.0,-0.0005625714596295071,0.0027210115401670467,0.004011067385919178,0.0,0.0,0.0,0.0,0.0,0.0,0.0,0.0,0.0,0.003795304199273931,0.5450970700729995,9.811271778704008,0.0,0.0,0.0,0.0,0.0,0.0,0.0,0.0,0.0
2025/05/21 12:19:21.94331587,1747822760,233712681,mA1/imu,0.06026015661434063,0.9981824374959746,0.000725416411653244,-9.365062531204588e-05,0.0,0.0,0.0,0.0,0.0,0.0,0.0,0.0,0.0,0.0026853772704164987,0.0016882662928587844,0.004155829263250534,0.0,0.0,0.0,0.0,0.0,0.0,0.0,0.0,0.0,0.004176527584780231,-0.4637000476391101,9.808748426477782,0.0,0.0,0.0,0.0,0.0,0.0,0.0,0.0,0.0
2025/05/21 12:19:21.104791158,1747822760,283544096,mA1/imu,0.060365444005709576,0.9981760642685628,0.0007372502997012522,-0.00011980530487039204,0.0,0.0,0.0,0.0,0.0,0.0,0.0,0.0,0.0,0.0009330310592144653,0.0006044803062754776,0.004242947282920031,0.0,0.0,0.0,0.0,0.0,0.0,0.0,0.0,0.0,0.006431179742199679,-0.5770022038000706,9.81001590430889,0.0,0.0,0.0,0.0,0.0,0.0,0.0,0.0,0.0
2025/05/21 12:19:21.114423668,1747822760,335180852,mA1/imu,0.06047439516390105,0.9981694604952148,0.0007489439975077571,-0.00012143780579310784,0.0,0.0,0.0,0.0,0.0,0.0,0.0,0.0,0.0,-0.0007946184793747476,-0.0001558817814062518,0.004531156314986854,0.0,0.0,0.0,0.0,0.0,0.0,0.0,0.0,0.0,-0.013768327271311652,-0.045270922456886964,9.807995686813461,0.0,0.0,0.0,0.0,0.0,0.0,0.0,0.0,0.0
2025/05/21 12:19:21.125289052,1747822760,384702511,mA1/imu,0.06059057921332438,0.9981624035701724,0.0007663765724386221,-0.00010235506689896225,0.0,0.0,0.0,0.0,0.0,0.0,0.0,0.0,0.0,-0.002706292576456463,-0.0011635260818212525,0.004679654598289642,0.0,0.0,0.0,0.0,0.0,0.0,0.0,0.0,0.0,0.006822776530452503,0.47134492993330174,9.810538586245773,0.0,0.0,0.0,0.0,0.0,0.0,0.0,0.0,0.0
2025/05/21 12:19:22.81222524,1747822761,132064632,mA1/imu,0.06283697777179671,0.9980231327175955,0.0009531610210576587,0.0006574717723933119,0.0,0.0,0.0,0.0,0.0,0.0,0.0,0.0,0.0,0.002091620603990999,0.0014904777918889414,0.007097201724065467,0.0,0.0,0.0,0.0,0.0,0.0,0.0,0.0,0.0,-0.0007277837149722265,0.0783544619473608,9.809663844042113,0.0,0.0,0.0,0.0,0.0,0.0,0.0,0.0,0.0
2025/05/21 12:19:22.83575063,1747822761,181874275,mA1/imu,0.06301496126478126,0.9980119447377124,0.0009465246923005577,0.0006139288675172128,0.0,0.0,0.0,0.0,0.0,0.0,0.0,0.0,0.0,0.0020938676409482816,0.0017645326830852007,0.007129810284791237,0.0,0.0,0.0,0.0,0.0,0.0,0.0,0.0,0.0,0.012479512054318537,-0.3929989935526288,9.809195380726452,0.0,0.0,0.0,0.0,0.0,0.0,0.0,0.0,0.0
2025/05/21 12:19:22.535213174,1747822761,585299389,mA1/imu,0.0644442777698919,0.9979209323604459,0.0007920472469464475,0.0003471033481570442,0.0,0.0,0.0,0.0,0.0,0.0,0.0,0.0,0.0,0.0015914882059453776,-0.0020654146511393284,0.005798680700545,0.0,0.0,0.0,0.0,0.0,0.0,0.0,0.0,0.0,0.006557680391057758,0.04713101665830302,9.811091255355707,0.0,0.0,0.0,0.0,0.0,0.0,0.0,0.0,0.0
2025/05/21 12:19:22.538043232,1747822761,626661425,mA1/imu,0.06458657731600062,0.9979117239034603,0.0007759934214646367,0.00040393172441336047,0.0,0.0,0.0,0.0,0.0,0.0,0.0,0.0,0.0,0.0011917665533859216,-0.0025344417346598925,0.005592287319516289,0.0,0.0,0.0,0.0,0.0,0.0,0.0,0.0,0.0,0.004750688479533445,0.030411877528081034,9.811169848506333,0.0,0.0,0.0,0.0,0.0,0.0,0.0,0.0,0.0
2025/05/21 12:19:22.545284766,1747822761,676104692,mA1/imu,0.06472697663152721,0.9979026033985052,0.0007722297683261133,0.0004650675351235958,0.0,0.0,0.0,0.0,0.0,0.0,0.0,0.0,0.0,0.0005221036590294189,-0.0023701900831004166,0.005659966561784378,0.0,0.0,0.0,0.0,0.0,0.0,0.0,0.0,0.0,0.0007913990839739492,-0.08452668197744242,9.80909939139695,0.0,0.0,0.0,0.0,0.0,0.0,0.0,0.0,0.0
2025/05/21 12:19:22.556693265,1747822761,727130171,mA1/imu,0.06486990001961528,0.9978933034770742,0.0007630972046060434,0.0005182950059068219,0.0,0.0,0.0,0.0,0.0,0.0,0.0,0.0,0.0,0.0009909547166125866,-0.0019799721071581235,0.005783735436883085,0.0,0.0,0.0,0.0,0.0,0.0,0.0,0.0,0.0,-0.002612582100081388,-0.42784096681719214,9.808766295316747,0.0,0.0,0.0,0.0,0.0,0.0,0.0,0.0,0.0
2025/05/21 12:19:22.569308724,1747822761,777107355,mA1/imu,0.06501588931835132,0.9978837792340479,0.0007633788997948969,0.0005608300750889868,0.0,0.0,0.0,0.0,0.0,0.0,0.0,0.0,0.0,9.979962446209659e-05,-0.0015194285283221776,0.005887063484237225,0.0,0.0,0.0,0.0,0.0,0.0,0.0,0.0,0.0,-0.00026830152940184905,-0.6397509508353869,9.808595126232866,0.0,0.0,0.0,0.0,0.0,0.0,0.0,0.0,0.0
2025/05/21 12:19:22.577474429,1747822761,828977200,mA1/imu,0.06516359217654615,0.9978741267724456,0.0007647049253901314,0.0005904228611532708,0.0,0.0,0.0,0.0,0.0,0.0,0.0,0.0,0.0,-0.0009891137224560176,-0.0009151775843546738,0.005923137489645835,0.0,0.0,0.0,0.0,0.0,0.0,0.0,0.0,0.0,-0.005091450145302514,0.5508789068214898,9.809627828389557,0.0,0.0,0.0,0.0,0.0,0.0,0.0,0.0,0.0
2025/05/21 12:19:23.536018996,1747822762,584529225,mA1/imu,0.06751115686316457,0.9977180125736557,0.0009942140978220226,0.00015041077024134316,0.0,0.0,0.0,0.0,0.0,0.0,0.0,0.0,0.0,0.00137339508513084,-0.0014394362788636057,0.005974458687285982,0.0,0.0,0.0,0.0,0.0,0.0,0.0,0.0,0.0,0.001558909437971012,-0.5855341406584431,9.81070941548237,0.0,0.0,0.0,0.0,0.0,0.0,0.0,0.0,0.0
2025/05/21 12:19:23.537847210,1747822762,635646171,mA1/imu,0.06766093594501485,0.9977078684904784,0.0009850151098622208,0.00019142743890678107,0.0,0.0,0.0,0.0,0.0,0.0,0.0,0.0,0.0,0.0017718715398539486,-0.0018073068026213837,0.006032757079228799,0.0,0.0,0.0,0.0,0.0,0.0,0.0,0.0,0.0,-0.0016009219371182228,-0.5718786304115686,9.809928746800711,0.0,0.0,0.0,0.0,0.0,0.0,0.0,0.0,0.0
2025/05/21 12:19:24.80862071,1747822763,130965577,mA1/imu,0.06922572874313539,0.9976005736182298,0.0007924307282197815,0.0005158004474692257,0.0,0.0,0.0,0.0,0.0,0.0,0.0,0.0,0.0,-2.6192300869773627e-05,0.0008057158625436693,0.006640330232810551,0.0,0.0,0.0,0.0,0.0,0.0,0.0,0.0,0.0,-0.00594901405717,0.2698157247167511,9.808498862280093,0.0,0.0,0.0,0.0,0.0,0.0,0.0,0.0,0.0
2025/05/21 12:19:24.85360129,1747822763,180839997,mA1/imu,0.06939291822671269,0.9975889711299277,0.0007932242999795798,0.00048823674890395845,0.0,0.0,0.0,0.0,0.0,0.0,0.0,0.0,0.0,0.0003383824476041567,0.0012656403193105218,0.006740498909035906,0.0,0.0,0.0,0.0,0.0,0.0,0.0,0.0,0.0,-0.003057939506919464,0.08691921061078134,9.809007179089203,0.0,0.0,0.0,0.0,0.0,0.0,0.0,0.0,0.0
2025/05/21 12:19:24.94282698,1747822763,231979437,mA1/imu,0.06956233810356288,0.9975771846990822,0.0007988067582733017,0.00045121301160650916,0.0,0.0,0.0,0.0,0.0,0.0,0.0,0.0,0.0,0.00010576306558353334,0.0016176551740282642,0.006830331901954975,0.0,0.0,0.0,0.0,0.0,0.0,0.0,0.0,0.0,-0.002502524545057663,-0.008499196013009577,9.807695072845702,0.0,0.0,0.0,0.0,0.0,0.0,0.0,0.0,0.0
2025/05/21 12:19:24.102730730,1747822763,281717312,mA1/imu,0.06973397151308439,0.9975652080394573,0.0008139948386831674,0.000407846306016803,0.0,0.0,0.0,0.0,0.0,0.0,0.0,0.0,0.0,-0.0015259773605477884,0.0018562616149406207,0.006918611028019172,0.0,0.0,0.0,0.0,0.0,0.0,0.0,0.0,0.0,-0.0016569954257888058,0.5200884055546233,9.808254092759809,0.0,0.0,0.0,0.0,0.0,0.0,0.0,0.0,0.0
2025/05/21 12:19:24.113104007,1747822763,332950358,mA1/imu,0.06990781108192369,0.9975530447632719,0.000831079729922956,0.0003607488631370463,0.0,0.0,0.0,0.0,0.0,0.0,0.0,0.0,0.0,-0.0009115814627255744,0.0019555213475448002,0.007008478338707079,0.0,0.0,0.0,0.0,0.0,0.0,0.0,0.0,0.0,-0.0008070253573796773,-0.1421111413975666,9.80977263926015,0.0,0.0,0.0,0.0,0.0,0.0,0.0,0.0,0.0
2025/05/21 12:19:24.123366446,1747822763,382844045,mA1/imu,0.0700838524644934,0.9975406976985103,0.0008441651143964181,0.0003121604784693833,0.0,0.0,0.0,0.0,0.0,0.0,0.0,0.0,0.0,0.0005412277077659306,0.0019580407673378216,0.007095512079012557,0.0,0.0,0.0,0.0,0.0,0.0,0.0,0.0,0.0,-0.0009629870613128396,-0.575802500955879,9.808933451461249,0.0,0.0,0.0,0.0,0.0,0.0,0.0,0.0,0.0
2025/05/21 12:19:25.79894422,1747822764,130725027,mA1/imu,0.0730119077076174,0.9973304467945306,0.0009923116028967638,0.0005065048852894337,0.0,0.0,0.0,0.0,0.0,0.0,0.0,0.0,0.0,0.0012138390355226519,-0.0014723594332391482,0.008554251276681977,0.0,0.0,0.0,0.0,0.0,0.0,0.0,0.0,0.0,0.0008715213493789443,-0.559238599936206,9.80953998443005,0.0,0.0,0.0,0.0,0.0,0.0,0.0,0.0,0.0
2025/05/21 12:19:25.81747942,1747822764,180586191,mA1/imu,0.07322652616508822,0.9973147101707547,0.0009771182868297586,0.0005385003909194362,0.0,0.0,0.0,0.0,0.0,0.0,0.0,0.0,0.0,0.0001592051501263836,-0.001221016059879997,0.008640226754510155,0.0,0.0,0.0,0.0,0.0,0.0,0.0,0.0,0.0,0.0015517018375673895,0.347650281133349,9.810416777528323,0.0,0.0,0.0,0.0,0.0,0.0,0.0,0.0,0.0
2025/05/21 12:19:25.90934957,1747822764,231732719,mA1/imu,0.07344326241788245,0.9972987792266023,0.0009569079535299009,0.0005625706315026006,0.0,0.0,0.0,0.0,0.0,0.0,0.0,0.0,0.0,0.0015795719460237076,-0.0008915550706124754,0.008725177718769234,0.0,0.0,0.0,0.0,0.0,0.0,0.0,0.0,0.0,0.0006737956393479631,-0.4816657816870543,9.808510835486263,0.0,0.0,0.0,0.0,0.0,0.0,0.0,0.0,0.0
2025/05/21 12:19:25.103937213,1747822764,281552181,mA1/imu,0.07366209507968703,0.9972826455608462,0.0009416487034594058,0.0005778488990877467,0.0,0.0,0.0,0.0,0.0,0.0,0.0,0.0,0.0,-0.0007900969646392009,-0.0005117894443348345,0.008808885168115068,0.0,0.0,0.0,0.0,0.0,0.0,0.0,0.0,0.0,0.0016368811648290477,0.33621358294444514,9.809767548461041,0.0,0.0,0.0,0.0,0.0,0.0,0.0,0.0,0.0
2025/05/21 12:19:25.113104053,1747822764,332904406,mA1/imu,0.07388338617057919,0.9972663047489438,0.0009076500146936944,0.0005820926099782357,0.0,0.0,0.0,0.0,0.0,0.0,0.0,0.0,0.0,0.0008449695859573258,-6.822470869447763e-05,0.008933387666174594,0.0,0.0,0.0,0.0,0.0,0.0,0.0,0.0,0.0,-0.0028307380784569954,0.5774847261713951,9.810291375772499,0.0,0.0,0.0,0.0,0.0,0.0,0.0,0.0,0.0
2025/05/21 12:19:25.123301834,1747822764,382568240,mA1/imu,0.0741076692362922,0.9972496723100163,0.0009011776710237157,0.0005764691967701501,0.0,0.0,0.0,0.0,0.0,0.0,0.0,0.0,0.0,0.0011266016563199195,0.00032902688629475314,0.00902676871279678,0.0,0.0,0.0,0.0,0.0,0.0,0.0,0.0,0.0,0.0017875873709717136,-0.4623274710070075,9.805867697827981,0.0,0.0,0.0,0.0,0.0,0.0,0.0,0.0,0.0
2025/05/21 12:19:26.80353972,1747822765,130824892,mA1/imu,0.07777738013443214,0.9969702177296685,0.0009479967975538688,0.00040669589731581626,0.0,0.0,0.0,0.0,0.0,0.0,0.0,0.0,0.0,-0.0011009534675748755,-0.0016109270293370608,0.010348723459579183,0.0,0.0,0.0,0.0,0.0,0.0,0.0,0.0,0.0,0.008518308177925454,-0.03970536622287786,9.811474461022724,0.0,0.0,0.0,0.0,0.0,0.0,0.0,0.0,0.0
2025/05/21 12:19:26.83621597,1747822765,180617540,mA1/imu,0.07803571897440442,0.9969499913768961,0.0009680321600020797,0.00045185339660108715,0.0,0.0,0.0,0.0,0.0,0.0,0.0,0.0,0.0,-0.0006929251840585978,-0.0018254376689979597,0.010373779746216167,0.0,0.0,0.0,0.0,0.0,0.0,0.0,0.0,0.0,0.008198606197965976,-0.1081901946631935,9.811707596109844,0.0,0.0,0.0,0.0,0.0,0.0,0.0,0.0,0.0
2025/05/21 12:19:26.84697514,1747822765,231766954,mA1/imu,0.07829500779508541,0.9969296236487966,0.000983659340007138,0.0004996600235070305,0.0,0.0,0.0,0.0,0.0,0.0,0.0,0.0,0.0,-0.0007812883254400278,-0.0018669651196197609,0.01043319180977429,0.0,0.0,0.0,0.0,0.0,0.0,0.0,0.0,0.0,0.005138578197436841,-0.03101409238023062,9.810626889182767,0.0,0.0,0.0,0.0,0.0,0.0,0.0,0.0,0.0
2025/05/21 12:19:26.94633235,1747822765,281523664,mA1/imu,0.07855568249664746,0.9969090790837302,0.0009967967403688752,0.0005469773062767383,0.0,0.0,0.0,0.0,0.0,0.0,0.0,0.0,0.0,-0.0005904261348676838,-0.0018453222416242529,0.010465993958555192,0.0,0.0,0.0,0.0,0.0,0.0,0.0,0.0,0.0,0.007510506904890764,-0.027174657112815647,9.810753467617388,0.0,0.0,0.0,0.0,0.0,0.0,0.0,0.0,0.0
2025/05/21 12:19:26.675974208,1747822765,727119390,mA1/imu,0.08090949178546052,0.9967208000936912,0.0009278598289444062,0.0006632312930808789,0.0,0.0,0.0,0.0,0.0,0.0,0.0,0.0,0.0,0.0003395073008424024,0.0009991291414034728,0.010466340959825599,0.0,0.0,0.0,0.0,0.0,0.0,0.0,0.0,0.0,0.003927543634698398,-0.06947368701129086,9.808542357490758,0.0,0.0,0.0,0.0,0.0,0.0,0.0,0.0,0.0
2025/05/21 12:19:26.680310770,1747822765,776434010,mA1/imu,0.08117101584291674,0.9966995774504949,0.0009056112320797419,0.000631161889110225,0.0,0.0,0.0,0.0,0.0,0.0,0.0,0.0,0.0,0.00150027048469455,0.0013116188800713483,0.010507065883863487,0.0,0.0,0.0,0.0,0.0,0.0,0.0,0.0,0.0,0.005912736634942212,-0.6157816396519632,9.807371578115626,0.0,0.0,0.0,0.0,0.0,0.0,0.0,0.0,0.0
2025/05/21 12:19:27.384982875,1747822766,433629013,mA1/imu,0.08464998734634346,0.9964102893607599,0.0008659759381701872,0.00040618215760885966,0.0,0.0,0.0,0.0,0.0,0.0,0.0,0.0,0.0,0.0006941967293012191,-0.0011158626545590086,0.010920183023147794,0.0,0.0,0.0,0.0,0.0,0.0,0.0,0.0,0.0,0.006364211845472862,-0.5538627897132782,9.809680292709432,0.0,0.0,0.0,0.0,0.0,0.0,0.0,0.0,0.0
2025/05/21 12:19:27.389694738,1747822766,483703949,mA1/imu,0.08492248085560414,0.9963870740940511,0.0008824352177331719,0.00043832831518218356,0.0,0.0,0.0,0.0,0.0,0.0,0.0,0.0,0.0,0.00016743067316239452,-0.0013092732318444233,0.010951071349926797,0.0,0.0,0.0,0.0,0.0,0.0,0.0,0.0,0.0,0.00694280637888528,0.03944295844707694,9.811649654056913,0.0,0.0,0.0,0.0,0.0,0.0,0.0,0.0,0.0
2025/05/21 12:19:27.397935572,1747822766,535262956,mA1/imu,0.08519571540047734,0.9963637134704046,0.0009031759611222939,0.0004741624715282631,0.0,0.0,0.0,0.0,0.0,0.0,0.0,0.0,0.0,-0.000658389053060732,-0.0014037745339122365,0.010980951794934014,0.0,0.0,0.0,0.0,0.0,0.0,0.0,0.0,0.0,0.006061973404144508,-0.014794846060149004,9.809645372647486,0.0,0.0,0.0,0.0,0.0,0.0,0.0,0.0,0.0
2025/05/21 12:19:27.412645851,1747822766,584631500,mA1/imu,0.08546968724996357,0.9963402129069671,0.0009226552246880581,0.0005112858587141423,0.0,0.0,0.0,0.0,0.0,0.0,0.0,0.0,0.0,-0.0004598804299260115,-0.0014321046525568489,0.011010008598674847,0.0,0.0,0.0,0.0,0.0,0.0,0.0,0.0,0.0,0.006050862273111012,-0.24692808053936688,9.809652109325153,0.0,0.0,0.0,0.0,0.0,0.0,0.0,0.0,0.0
2025/05/21 12:19:27.422046354,1747822766,636040050,mA1/imu,0.08573863768111648,0.9963170713390572,0.0009329571712294738,0.0005558397853518395,0.0,0.0,0.0,0.0,0.0,0.0,0.0,0.0,0.0,-0.00010386769494121301,-0.002246519741666968,0.010451745927996801,0.0,0.0,0.0,0.0,0.0,0.0,0.0,0.0,0.0,0.052250244210853426,0.019065275972620168,9.808811482933907,0.0,0.0,0.0,0.0,0.0,0.0,0.0,0.0,0.0
2025/05/21 12:19:27.432264095,1747822766,675362859,mA1/imu,0.08599411126329654,0.9962950138476954,0.0009369890894357009,0.0006166536324907772,0.0,0.0,0.0,0.0,0.0,0.0,0.0,0.0,0.0,-0.0003200674985334213,-0.0023096763951518896,0.010251289346796123,0.0,0.0,0.0,0.0,0.0,0.0,0.0,0.0,0.0,0.004956558025289054,0.6197188221418368,9.80958951068185,0.0,0.0,0.0,0.0,0.0,0.0,0.0,0.0,0.0
2025/05/21 12:19:28.377674853,1747822767,435767811,mA1/imu,0.08992270315223429,0.9959483461733765,0.0008569281042945561,0.00025472835606401407,0.0,0.0,0.0,0.0,0.0,0.0,0.0,0.0,0.0,-0.00019788721191772422,0.001052790794733638,0.0108227317709113,0.0,0.0,0.0,0.0,0.0,0.0,0.0,0.0,0.0,0.00661910568658779,0.5540577282203585,9.812331598431083,0.0,0.0,0.0,0.0,0.0,0.0,0.0,0.0,0.0
2025/05/21 12:19:28.379434207,1747822767,485360792,mA1/imu,0.09019274049926716,0.9959239439007336,0.0008438406411424707,0.00023549822249185515,0.0,0.0,0.0,0.0,0.0,0.0,0.0,0.0,0.0,1.6967904295529716e-05,0.0004908540458681191,0.010860198258167307,0.0,0.0,0.0,0.0,0.0,0.0,0.0,0.0,0.0,0.006361392109840776,0.5775407020967386,9.812432890708688,0.0,0.0,0.0,0.0,0.0,0.0,0.0,0.0,0.0
2025/05/21 12:19:28.731783567,1747822767,777736086,mA1/imu,0.09176668983756979,0.9957800812730986,0.0008207673636181968,0.00048033002322796036,0.0,0.0,0.0,0.0,0.0,0.0,0.0,0.0,0.0,-6.507426280613451e-06,-0.0030125218174848847,0.010109902065042652,0.0,0.0,0.0,0.0,0.0,0.0,0.0,0.0,0.0,-0.0009600327597557023,-0.00021652137117195852,9.809866774275891,0.0,0.0,0.0,0.0,0.0,0.0,0.0,0.0,0.0
2025/05/21 12:19:28.734459501,1747822767,829135341,mA1/imu,0.0920195541552842,0.9957567041932021,0.0008269588946407108,0.0005512225878492442,0.0,0.0,0.0,0.0,0.0,0.0,0.0,0.0,0.0,-0.0007766151391037975,-0.002640188728149711,0.010199093914850235,0.0,0.0,0.0,0.0,0.0,0.0,0.0,0.0,0.0,-0.004299653331429036,-0.04814330154237347,9.809562891348977,0.0,0.0,0.0,0.0,0.0,0.0,0.0,0.0,0.0
2025/05/21 12:19:28.741805611,1747822767,878694728,mA1/imu,0.09227461434888164,0.995733061303523,0.0008323544885023387,0.0006110318201282202,0.0,0.0,0.0,0.0,0.0,0.0,0.0,0.0,0.0,-0.000331890681036434,-0.00219458490530384,0.010267326504042062,0.0,0.0,0.0,0.0,0.0,0.0,0.0,0.0,0.0,-0.0012138958160167398,-0.012502783164528087,9.809742113477952,0.0,0.0,0.0,0.0,0.0,0.0,0.0,0.0,0.0
2025/05/21 12:19:28.754257598,1747822767,929945582,mA1/imu,0.09253106306771677,0.9957092260955669,0.000840242834648519,0.0006583522646400242,0.0,0.0,0.0,0.0,0.0,0.0,0.0,0.0,0.0,0.00014948920088882092,-0.0016351733523339242,0.010323722475337067,0.0,0.0,0.0,0.0,0.0,0.0,0.0,0.0,0.0,-0.0021777702796050916,-0.3143006961994545,9.808827026145122,0.0,0.0,0.0,0.0,0.0,0.0,0.0,0.0,0.0
2025/05/21 12:19:28.766250738,1747822767,979584491,mA1/imu,0.09278889047071624,0.9956851940336731,0.0008589125554619041,0.0006917055460819051,0.0,0.0,0.0,0.0,0.0,0.0,0.0,0.0,0.0,-0.000780587552314864,-0.0010184672230302697,0.01037961774489349,0.0,0.0,0.0,0.0,0.0,0.0,0.0,0.0,0.0,-0.0016064748006182974,-0.03952307989258355,9.808946578572645,0.0,0.0,0.0,0.0,0.0,0.0,0.0,0.0,0.0
2025/05/21 12:19:28.778338596,1747822768,30796136,mA1/imu,0.09304575749565627,0.995661194888408,0.0008749490611533092,0.0007116667673144272,0.0,0.0,0.0,0.0,0.0,0.0,0.0,0.0,0.0,-0.0016137695514173815,-0.000686989505235481,0.010198856096591642,0.0,0.0,0.0,0.0,0.0,0.0,0.0,0.0,0.0,0.019436862391441594,-0.09710126040517417,9.808179886014258,0.0,0.0,0.0,0.0,0.0,0.0,0.0,0.0,0.0
2025/05/21 12:19:29.731097821,1747822768,780505519,mA1/imu,0.09681485583841808,0.9953019705703402,0.0008889992630149572,0.0002841620920995588,0.0,0.0,0.0,0.0,0.0,0.0,0.0,0.0,0.0,0.0009794735465652666,-0.001108006142086909,0.009575319385353291,0.0,0.0,0.0,0.0,0.0,0.0,0.0,0.0,0.0,-0.0026007158518557743,-0.00014987062450378535,9.811589029808324,0.0,0.0,0.0,0.0,0.0,0.0,0.0,0.0,0.0
2025/05/21 12:19:29.734248322,1747822768,831456391,mA1/imu,0.09705381964401322,0.9952787068190853,0.000868671421873412,0.0003118573354249847,0.0,0.0,0.0,0.0,0.0,0.0,0.0,0.0,0.0,0.001250416997107663,-0.0012436662896677141,0.009621859699229565,0.0,0.0,0.0,0.0,0.0,0.0,0.0,0.0,0.0,-0.0030020811802812285,-0.6106090423815699,9.80996036346818,0.0,0.0,0.0,0.0,0.0,0.0,0.0,0.0,0.0
2025/05/21 12:19:29.741322998,1747822768,881367366,mA1/imu,0.09729397562628694,0.9952552677454821,0.0008469266296308749,0.0003421213005007623,0.0,0.0,0.0,0.0,0.0,0.0,0.0,0.0,0.0,0.0013559689485614346,-0.0013275638237744414,0.009668941992680447,0.0,0.0,0.0,0.0,0.0,0.0,0.0,0.0,0.0,-0.002387038957073236,0.027630969433060478,9.810431097526665,0.0,0.0,0.0,0.0,0.0,0.0,0.0,0.0,0.0
2025/05/21 12:19:29.751612540,1747822768,932369271,mA1/imu,0.09753530031678723,0.9952316461584119,0.000834157536471681,0.0003739761169746843,0.0,0.0,0.0,0.0,0.0,0.0,0.0,0.0,0.0,-0.00036692596588665987,-0.001318951254521415,0.009717413110406801,0.0,0.0,0.0,0.0,0.0,0.0,0.0,0.0,0.0,-0.0027635112409907132,0.5451511372410638,9.811109224200694,0.0,0.0,0.0,0.0,0.0,0.0,0.0,0.0,0.0
2025/05/21 12:19:29.763627566,1747822768,982232118,mA1/imu,0.0977778175439034,0.9952078458834149,0.0008233135471897071,0.0004050225268099879,0.0,0.0,0.0,0.0,0.0,0.0,0.0,0.0,0.0,-0.00030056044291104135,-0.0012520525992760936,0.00976509506735576,0.0,0.0,0.0,0.0,0.0,0.0,0.0,0.0,0.0,-0.003179933187037489,-0.07064860131234259,9.809986308048408,0.0,0.0,0.0,0.0,0.0,0.0,0.0,0.0,0.0
2025/05/21 12:19:29.774794929,1747822769,34072546,mA1/imu,0.09802151903915252,0.995183873853698,0.000807170522663255,0.0004330156479069612,0.0,0.0,0.0,0.0,0.0,0.0,0.0,0.0,0.0,0.001186071386136444,-0.0011307691512180784,0.009813430018655952,0.0,0.0,0.0,0.0,0.0,0.0,0.0,0.0,0.0,-0.0032905879422022756,-0.5919875967584727,9.808014805474743,0.0,0.0,0.0,0.0,0.0,0.0,0.0,0.0,0.0
2025/05/21 12:19:30.730906331,1747822769,779981388,mA1/imu,0.10174326244472394,0.9948101761428084,0.0009455141506713975,0.00035776082700895474,0.0,0.0,0.0,0.0,0.0,0.0,0.0,0.0,0.0,-0.0005992091622230015,0.00045968547922814137,0.010299349701745762,0.0,0.0,0.0,0.0,0.0,0.0,0.0,0.0,0.0,0.0017857250969308606,-0.04547826924053891,9.811538633373122,0.0,0.0,0.0,0.0,0.0,0.0,0.0,0.0,0.0
2025/05/21 12:19:30.731763447,1747822769,831542788,mA1/imu,0.1019997759731302,0.9947839095501915,0.0009468340626146509,0.00035000960777284434,0.0,0.0,0.0,0.0,0.0,0.0,0.0,0.0,0.0,0.00026125318296703294,0.0002023084049646087,0.0103248664566492,0.0,0.0,0.0,0.0,0.0,0.0,0.0,0.0,0.0,0.0020109235542196064,0.004788302046990864,9.81137299703865,0.0,0.0,0.0,0.0,0.0,0.0,0.0,0.0,0.0
2025/05/21 12:19:30.732581926,1747822769,881396451,mA1/imu,0.10225689551353473,0.9947575076363157,0.0009520408497855404,0.00034919813828011024,0.0,0.0,0.0,0.0,0.0,0.0,0.0,0.0,0.0,-0.00010263791721368811,-6.687639758604002e-05,0.010348203610593857,0.0,0.0,0.0,0.0,0.0,0.0,0.0,0.0,0.0,0.002262037509426265,-0.029253625870897637,9.811455597119794,0.0,0.0,0.0,0.0,0.0,0.0,0.0,0.0,0.0
2025/05/21 12:19:30.741302674,1747822769,932527284,mA1/imu,0.10251366825769256,0.9947310763167613,0.0009528780314596544,0.00035447638355904715,0.0,0.0,0.0,0.0,0.0,0.0,0.0,0.0,0.0,-0.001913206343467553,-0.0003182578154557861,0.010278931840567994,0.0,0.0,0.0,0.0,0.0,0.0,0.0,0.0,0.0,0.003968554655809294,0.461231570963906,9.811613634602935,0.0,0.0,0.0,0.0,0.0,0.0,0.0,0.0,0.0
2025/05/21 12:19:30.751291458,1747822769,982325198,mA1/imu,0.1027689092908089,0.9947047457600581,0.0009416782109495125,0.0003650859386976575,0.0,0.0,0.0,0.0,0.0,0.0,0.0,0.0,0.0,-0.00023427582809750467,-0.0005601067908926832,0.010271765967093768,0.0,0.0,0.0,0.0,0.0,0.0,0.0,0.0,0.0,0.0015818348568922614,-0.05139486854212322,9.811385633933224,0.0,0.0,0.0,0.0,0.0,0.0,0.0,0.0,0.0
2025/05/21 12:19:30.752244433,1747822770,33406133,mA1/imu,0.10302465659314154,0.9946782985761324,0.0009260744823772521,0.00038060689524504717,0.0,0.0,0.0,0.0,0.0,0.0,0.0,0.0,0.0,0.001399828675939906,-0.0007651361546153456,0.010292344427000695,0.0,0.0,0.0,0.0,0.0,0.0,0.0,0.0,0.0,0.0014815376756908425,0.0517367047823383,9.811519128980775,0.0,0.0,0.0,0.0,0.0,0.0,0.0,0.0,0.0
2025/05/21 12:19:30.763160836,1747822770,83280203,mA1/imu,0.1032808943132729,0.9946517271924756,0.0009152660328126617,0.00040093760704081055,0.0,0.0,0.0,0.0,0.0,0.0,0.0,0.0,0.0,0.0015685270661658448,-0.0009293409507898875,0.010311403834631847,0.0,0.0,0.0,0.0,0.0,0.0,0.0,0.0,0.0,0.001945979661519339,0.05363393328151328,9.810633336116005,0.0,0.0,0.0,0.0,0.0,0.0,0.0,0.0,0.0
2025/05/21 12:19:30.773594815,1747822770,134434467,mA1/imu,0.10353760602183128,0.9946250325474486,0.0009100430471603857,0.0004249598887380271,0.0,0.0,0.0,0.0,0.0,0.0,0.0,0.0,0.0,0.0002642749153831392,-0.00102965131418983,0.010329860767508999,0.0,0.0,0.0,0.0,0.0,0.0,0.0,0.0,0.0,0.0015952186643120158,-0.039947028846830046,9.809626579140243,0.0,0.0,0.0,0.0,0.0,0.0,0.0,0.0,0.0
2025/05/21 12:19:31.730992649,1747822770,779515319,mA1/imu,0.10690466071143712,0.9942688088784496,0.0007932065538752975,0.0005477526490118493,0.0,0.0,0.0,0.0,0.0,0.0,0.0,0.0,0.0,-0.00032361449351209166,0.000294295302228944,0.01059560449873904,0.0,0.0,0.0,0.0,0.0,0.0,0.0,0.0,0.0,0.0062166226792537745,-0.021995677691618223,9.809569375562917,0.0,0.0,0.0,0.0,0.0,0.0,0.0,0.0,0.0
2025/05/21 12:19:31.731291032,1747822770,830617841,mA1/imu,0.10717464241812977,0.9942397435017082,0.0008038826146351807,0.0005312597721542743,0.0,0.0,0.0,0.0,0.0,0.0,0.0,0.0,0.0,-0.00034566995870587266,0.0012514696925264638,0.011253548965868611,0.0,0.0,0.0,0.0,0.0,0.0,0.0,0.0,0.0,-0.03809038756598425,-0.011384526003669779,9.807702872516327,0.0,0.0,0.0,0.0,0.0,0.0,0.0,0.0,0.0
2025/05/21 12:19:31.740273891,1747822770,880453367,mA1/imu,0.10745916231875652,0.9942090387562545,0.0008177884359226729,0.0004969015894188676,0.0,0.0,0.0,0.0,0.0,0.0,0.0,0.0,0.0,-0.00044107567520277653,0.001312255967216176,0.011441837376639216,0.0,0.0,0.0,0.0,0.0,0.0,0.0,0.0,0.0,0.010565633979519963,-0.023222041029882172,9.811525462211545,0.0,0.0,0.0,0.0,0.0,0.0,0.0,0.0,0.0
2025/05/21 12:19:31.751550604,1747822770,931722495,mA1/imu,0.10774312704859784,0.994178305609644,0.0008331949638962079,0.0004701224085151757,0.0,0.0,0.0,0.0,0.0,0.0,0.0,0.0,0.0,-0.0005252418096911107,0.0009843862041964498,0.011416961813436993,0.0,0.0,0.0,0.0,0.0,0.0,0.0,0.0,0.0,0.011186907988678545,-0.022802054557199837,9.81267024725638,0.0,0.0,0.0,0.0,0.0,0.0,0.0,0.0,0.0
2025/05/21 12:19:32.176785665,1747822771,234358194,mA1/imu,0.10946876761212936,0.9939896891303315,0.0009199380476503967,0.0004904427152128457,0.0,0.0,0.0,0.0,0.0,0.0,0.0,0.0,0.0,-0.0004663725294145201,-0.0012967885607088102,0.01163800754560129,0.0,0.0,0.0,0.0,0.0,0.0,0.0,0.0,0.0,0.012356773909044667,-0.02331520731855387,9.81271546320958,0.0,0.0,0.0,0.0,0.0,0.0,0.0,0.0,0.0
2025/05/21 12:19:32.178710584,1747822771,284066932,mA1/imu,0.10975754732811618,0.9939578182187645,0.0009257630989814845,0.0005285536817834814,0.0,0.0,0.0,0.0,0.0,0.0,0.0,0.0,0.0,-0.00034437990050118297,-0.0016238355858195122,0.011608548890592521,0.0,0.0,0.0,0.0,0.0,0.0,0.0,0.0,0.0,0.012014563212032772,-0.02161606988786932,9.809675031173692,0.0,0.0,0.0,0.0,0.0,0.0,0.0,0.0,0.0
2025/05/21 12:19:32.833847326,1747822771,880326907,mA1/imu,0.11324255776544437,0.993566735741353,0.0007839526391381396,0.0008063233048431434,0.0,0.0,0.0,0.0,0.0,0.0,0.0,0.0,0.0,0.0017499694085082796,0.0006299980502985341,0.011939716844092178,0.0,0.0,0.0,0.0,0.0,0.0,0.0,0.0,0.0,0.015608470982671964,0.0517972575377328,9.809352542123582,0.0,0.0,0.0,0.0,0.0,0.0,0.0,0.0,0.0
2025/05/21 12:19:32.835123582,1747822771,931484346,mA1/imu,0.11353783532548653,0.9935330550508924,0.0007801918679844422,0.000787255671585098,0.0,0.0,0.0,0.0,0.0,0.0,0.0,0.0,0.0,0.0003943346120821334,0.0007763915682577846,0.011827886964088383,0.0,0.0,0.0,0.0,0.0,0.0,0.0,0.0,0.0,0.0163520439656391,-0.034889138816924514,9.808827936740922,0.0,0.0,0.0,0.0,0.0,0.0,0.0,0.0,0.0
2025/05/21 12:19:32.844275658,1747822771,983961339,mA1/imu,0.11383045847838946,0.9934995928366818,0.0007750763261929813,0.0007648611872572334,0.0,0.0,0.0,0.0,0.0,0.0,0.0,0.0,0.0,0.0001450780450940533,0.0008979262583675649,0.011766161561707908,0.0,0.0,0.0,0.0,0.0,0.0,0.0,0.0,0.0,0.015162718249230005,-0.6676826957392726,9.809099421473448,0.0,0.0,0.0,0.0,0.0,0.0,0.0,0.0,0.0
2025/05/21 12:19:32.854665669,1747822772,34970282,mA1/imu,0.1141244150110671,0.9934658981881244,0.0007654599323282954,0.0007355995765792621,0.0,0.0,0.0,0.0,0.0,0.0,0.0,0.0,0.0,-9.341279990707891e-05,0.0013568271611466402,0.011958326780965846,0.0,0.0,0.0,0.0,0.0,0.0,0.0,0.0,0.0,-2.800180148479492e-05,-0.049759476328861255,9.808795281963437,0.0,0.0,0.0,0.0,0.0,0.0,0.0,0.0,0.0
2025/05/21 12:19:32.866556694,1747822772,84864066,mA1/imu,0.11442264954007103,0.9934316247145555,0.0007589201449468299,0.0006988057257473818,0.0,0.0,0.0,0.0,0.0,0.0,0.0,0.0,0.0,0.00030907950152052907,0.001386373045063752,0.011996066153274419,0.0,0.0,0.0,0.0,0.0,0.0,0.0,0.0,0.0,0.017722470867283024,-0.011164988364465549,9.811189392739507,0.0,0.0,0.0,0.0,0.0,0.0,0.0,0.0,0.0
2025/05/21 12:19:32.878173405,1747822772,136252149,mA1/imu,0.11471995301569808,0.9933973576085797,0.0007604854378377693,0.0006662869250402468,0.0,0.0,0.0,0.0,0.0,0.0,0.0,0.0,0.0,-0.00030228598094359644,0.0012208426181041796,0.011956940689820386,0.0,0.0,0.0,0.0,0.0,0.0,0.0,0.0,0.0,0.018376435714017036,0.5876188192138797,9.811611519433235,0.0,0.0,0.0,0.0,0.0,0.0,0.0,0.0,0.0
2025/05/21 12:19:33.833624442,1747822772,882346232,mA1/imu,0.11911058287832009,0.9928802536115778,0.0008917495779769792,0.00082208107020629,0.0,0.0,0.0,0.0,0.0,0.0,0.0,0.0,0.0,0.00026687319084269185,-0.0008592720233986603,0.011899791587737777,0.0,0.0,0.0,0.0,0.0,0.0,0.0,0.0,0.0,0.017071305705315586,-0.2795671457767069,9.810204690540447,0.0,0.0,0.0,0.0,0.0,0.0,0.0,0.0,0.0
2025/05/21 12:19:33.834746328,1747822772,933372445,mA1/imu,0.11940443131217306,0.992844940642324,0.0008933529167833392,0.0008411566577307912,0.0,0.0,0.0,0.0,0.0,0.0,0.0,0.0,0.0,-0.0013388628884724646,-0.0006963152645006596,0.011767360650520165,0.0,0.0,0.0,0.0,0.0,0.0,0.0,0.0,0.0,0.017988197785902146,0.40399100308904085,9.809339648104178,0.0,0.0,0.0,0.0,0.0,0.0,0.0,0.0,0.0
2025/05/21 12:19:33.844770545,1747822772,983243413,mA1/imu,0.11969526254896118,0.9928099210239498,0.0008809192369134048,0.0008537101683889335,0.0,0.0,0.0,0.0,0.0,0.0,0.0,0.0,0.0,-0.0004461934028104769,-0.0004633952138873309,0.011701043855105772,0.0,0.0,0.0,0.0,0.0,0.0,0.0,0.0,0.0,0.016294153849207037,0.3497638676735241,9.810374587848969,0.0,0.0,0.0,0.0,0.0,0.0,0.0,0.0,0.0
2025/05/21 12:19:33.856349485,1747822773,34279354,mA1/imu,0.11999147127579812,0.9927741774882737,0.0008695389315432808,0.0008504325944688508,0.0,0.0,0.0,0.0,0.0,0.0,0.0,0.0,0.0,0.0003108267166435858,0.000801952231318204,0.01231228166028129,0.0,0.0,0.0,0.0,0.0,0.0,0.0,0.0,0.0,-0.04266129245749295,0.6062210462677124,9.814710702023199,0.0,0.0,0.0,0.0,0.0,0.0,0.0,0.0,0.0
2025/05/21 12:19:33.865596631,1747822773,84094788,mA1/imu,0.12030202608062632,0.9927366270738025,0.0008625781757981471,0.0008171572168144509,0.0,0.0,0.0,0.0,0.0,0.0,0.0,0.0,0.0,0.0011745192439468006,0.0012945616386651438,0.01249260049403377,0.0,0.0,0.0,0.0,0.0,0.0,0.0,0.0,0.0,0.019683456854302332,0.36419850276463145,9.809960919179954,0.0,0.0,0.0,0.0,0.0,0.0,0.0,0.0,0.0
2025/05/21 12:19:33.877082637,1747822773,135547157,mA1/imu,0.12061130301931437,0.9926991243852761,0.0008641508679397942,0.0007843927375066297,0.0,0.0,0.0,0.0,0.0,0.0,0.0,0.0,0.0,0.0008599087434803534,0.001279885253236564,0.01244383636134614,0.0,0.0,0.0,0.0,0.0,0.0,0.0,0.0,0.0,0.01942129905983584,-0.1604605753077114,9.808976152522996,0.0,0.0,0.0,0.0,0.0,0.0,0.0,0.0,0.0
2025/05/21 12:19:34.532911731,1747822773,578985274,mA1/imu,0.12332573983741676,0.9923657094430066,0.0008026525501233172,0.0006452628268280218,0.0,0.0,0.0,0.0,0.0,0.0,0.0,0.0,0.0,0.0011744234722908975,-0.0003749108423462979,0.011899174314423775,0.0,0.0,0.0,0.0,0.0,0.0,0.0,0.0,0.0,0.016556709882433063,-0.5774555204225599,9.809525251497817,0.0,0.0,0.0,0.0,0.0,0.0,0.0,0.0,0.0
2025/05/21 12:19:34.533362172,1747822773,629998912,mA1/imu,0.1236140938469349,0.9923298208308401,0.0007991787540180566,0.0006661873259864437,0.0,0.0,0.0,0.0,0.0,0.0,0.0,0.0,0.0,-0.00040151933899410474,-0.0015141087674264404,0.011227864044062731,0.0,0.0,0.0,0.0,0.0,0.0,0.0,0.0,0.0,0.06807708183467613,-0.22225125485420702,9.811722575275333,0.0,0.0,0.0,0.0,0.0,0.0,0.0,0.0,0.0
2025/05/21 12:19:34.542136043,1747822773,681087467,mA1/imu,0.12388655480880899,0.9922958232214729,0.0007839677193885985,0.0007114418024577049,0.0,0.0,0.0,0.0,0.0,0.0,0.0,0.0,0.0,-0.00018187754871187338,-0.0018675969279149504,0.01094833229329815,0.0,0.0,0.0,0.0,0.0,0.0,0.0,0.0,0.0,0.015534029246466548,0.596529813324366,9.810151602111388,0.0,0.0,0.0,0.0,0.0,0.0,0.0,0.0,0.0
2025/05/21 12:19:34.553378802,1747822773,732106421,mA1/imu,0.124151405666049,0.9922626775101279,0.0007877933742560377,0.000765945935081017,0.0,0.0,0.0,0.0,0.0,0.0,0.0,0.0,0.0,-0.0017527759812202837,-0.0026508990334423795,0.010268961049740908,0.0,0.0,0.0,0.0,0.0,0.0,0.0,0.0,0.0,0.06326885064325663,0.48136511804857307,9.810605000852235,0.0,0.0,0.0,0.0,0.0,0.0,0.0,0.0,0.0
2025/05/21 12:19:34.563083275,1747822773,781947428,mA1/imu,0.12440062807716852,0.9922314113136473,0.0007840198065546315,0.0008339361345506634,0.0,0.0,0.0,0.0,0.0,0.0,0.0,0.0,0.0,-9.093209837164289e-05,-0.002520034452206868,0.010046531748905036,0.0,0.0,0.0,0.0,0.0,0.0,0.0,0.0,0.0,0.007229041665076005,-0.6383811407029462,9.809672361738413,0.0,0.0,0.0,0.0,0.0,0.0,0.0,0.0,0.0
2025/05/21 12:19:34.574018664,1747822773,832943843,mA1/imu,0.1246503495266617,0.9922000315891736,0.0007759639680309559,0.000886316672704001,0.0,0.0,0.0,0.0,0.0,0.0,0.0,0.0,0.0,0.0013272530933836314,-0.001837244009767099,0.010090557974861945,0.0,0.0,0.0,0.0,0.0,0.0,0.0,0.0,0.0,0.0040331080207843765,-0.5400292345707429,9.809236198637247,0.0,0.0,0.0,0.0,0.0,0.0,0.0,0.0,0.0
2025/05/21 12:19:35.530590112,1747822774,578982860,mA1/imu,0.12823659607277327,0.9917431435250761,0.0008892554000857581,0.00034917546044874214,0.0,0.0,0.0,0.0,0.0,0.0,0.0,0.0,0.0,7.04196454670866e-05,0.0013497191620973133,0.009503291223809685,0.0,0.0,0.0,0.0,0.0,0.0,0.0,0.0,0.0,0.009145940904026423,-0.04767255790400244,9.809943899273728,0.0,0.0,0.0,0.0,0.0,0.0,0.0,0.0,0.0
2025/05/21 12:19:35.532757933,1747822774,630171181,mA1/imu,0.12847895704740778,0.9917117999546862,0.0008749263631867482,0.00031293850156056616,0.0,0.0,0.0,0.0,0.0,0.0,0.0,0.0,0.0,0.001590898041989644,0.0016433500533002605,0.010165639334710423,0.0,0.0,0.0,0.0,0.0,0.0,0.0,0.0,0.0,-0.037726958667330834,-0.4356311330159968,9.808518147221267,0.0,0.0,0.0,0.0,0.0,0.0,0.0,0.0,0.0
2025/05/21 12:19:35.543720999,1747822774,680053552,mA1/imu,0.1287376146667909,0.9916782709066367,0.0008707369200554129,0.00027458831772447795,0.0,0.0,0.0,0.0,0.0,0.0,0.0,0.0,0.0,-0.0004624039184643534,0.0011797501672669239,0.010490721498265833,0.0,0.0,0.0,0.0,0.0,0.0,0.0,0.0,0.0,0.012349271534195223,0.5403608832577014,9.81105982905208,0.0,0.0,0.0,0.0,0.0,0.0,0.0,0.0,0.0
2025/05/21 12:19:35.554555858,1747822774,731651758,mA1/imu,0.12899945412254507,0.9916442603563042,0.000857976853614369,0.00025615269366957853,0.0,0.0,0.0,0.0,0.0,0.0,0.0,0.0,0.0,-0.0009122695556087788,0.0003215339424602601,0.010586015635773102,0.0,0.0,0.0,0.0,0.0,0.0,0.0,0.0,0.0,0.013154530833998562,0.507385693694486,9.81051959627731,0.0,0.0,0.0,0.0,0.0,0.0,0.0,0.0,0.0
2025/05/21 12:19:35.565342040,1747822774,781063658,mA1/imu,0.12926234636631892,0.9916100374480658,0.0008439491506620962,0.00025921795951744977,0.0,0.0,0.0,0.0,0.0,0.0,0.0,0.0,0.0,0.0007474682449199339,-0.0005417873946020317,0.01061680717420316,0.0,0.0,0.0,0.0,0.0,0.0,0.0,0.0,0.0,0.012225889789645237,-0.0017415275445808297,9.810865056488128,0.0,0.0,0.0,0.0,0.0,0.0,0.0,0.0,0.0
2025/05/21 12:19:35.574653263,1747822774,832382646,mA1/imu,0.12952515873998555,0.9915757530844221,0.0008242991256503786,0.00028227538721964715,0.0,0.0,0.0,0.0,0.0,0.0,0.0,0.0,0.0,0.001302948588365197,-0.0013336100600981767,0.010560018818011116,0.0,0.0,0.0,0.0,0.0,0.0,0.0,0.0,0.0,0.011172620961149828,0.0399883651939772,9.81115642919134,0.0,0.0,0.0,0.0,0.0,0.0,0.0,0.0,0.0
2025/05/21 12:19:36.537963732,1747822775,581014365,mA1/imu,0.1334980846935581,0.9910484070176726,0.0008492378287531789,0.0007714440971845087,0.0,0.0,0.0,0.0,0.0,0.0,0.0,0.0,0.0,0.0005633821960586174,0.002068263347779301,0.010886717164134032,0.0,0.0,0.0,0.0,0.0,0.0,0.0,0.0,0.0,0.008740499228403793,-0.5894230687391002,9.808390434034761,0.0,0.0,0.0,0.0,0.0,0.0,0.0,0.0,0.0
2025/05/21 12:19:36.538029654,1747822775,632592420,mA1/imu,0.1337658561421936,0.9910123300977411,0.000859113516750548,0.0007205891735766851,0.0,0.0,0.0,0.0,0.0,0.0,0.0,0.0,0.0,0.000499209464150495,0.0019097166659567037,0.010675926816409923,0.0,0.0,0.0,0.0,0.0,0.0,0.0,0.0,0.0,0.02807388026679704,0.0308490448032611,9.811216458999208,0.0,0.0,0.0,0.0,0.0,0.0,0.0,0.0,0.0
2025/05/21 12:19:36.549539996,1747822775,682496518,mA1/imu,0.13402462202929552,0.990977383436703,0.0008734928494255658,0.0006806005376885517,0.0,0.0,0.0,0.0,0.0,0.0,0.0,0.0,0.0,-0.0009964000489823524,0.0014992832422135271,0.010296413719934798,0.0,0.0,0.0,0.0,0.0,0.0,0.0,0.0,0.0,0.02585450448193119,0.5499453839808878,9.811944407293383,0.0,0.0,0.0,0.0,0.0,0.0,0.0,0.0,0.0
2025/05/21 12:19:36.559599573,1747822775,725951909,mA1/imu,0.13428019670016716,0.9909428011991839,0.0008844565530985102,0.0006412973450597542,0.0,0.0,0.0,0.0,0.0,0.0,0.0,0.0,0.0,-0.0007605742107232962,0.0016705340636486616,0.010331892238296803,0.0,0.0,0.0,0.0,0.0,0.0,0.0,0.0,0.0,0.006656422722998,-0.07100821919147272,9.809607984075448,0.0,0.0,0.0,0.0,0.0,0.0,0.0,0.0,0.0
2025/05/21 12:19:36.571465259,1747822775,776914710,mA1/imu,0.13453665862692288,0.9909080414034932,0.0008852827624713352,0.0005976971023139703,0.0,0.0,0.0,0.0,0.0,0.0,0.0,0.0,0.0,0.0009396065893433689,0.0017385442429360537,0.010368336738173748,0.0,0.0,0.0,0.0,0.0,0.0,0.0,0.0,0.0,0.006401451736743793,-0.5895269439795754,9.808769010476071,0.0,0.0,0.0,0.0,0.0,0.0,0.0,0.0,0.0
2025/05/21 12:19:36.582242251,1747822775,828136074,mA1/imu,0.13479403067333962,0.990873090274411,0.0008842518021609573,0.0005535012413634679,0.0,0.0,0.0,0.0,0.0,0.0,0.0,0.0,0.0,0.0009067446764131054,0.001716327550038368,0.010407251907138322,0.0,0.0,0.0,0.0,0.0,0.0,0.0,0.0,0.0,0.006927961693084506,0.031237836851876942,9.810347976136278,0.0,0.0,0.0,0.0,0.0,0.0,0.0,0.0,0.0
2025/05/21 12:19:37.534673200,1747822776,584930152,mA1/imu,0.13857145933553336,0.9903519543448122,0.0007615174736074462,0.000614226480356605,0.0,0.0,0.0,0.0,0.0,0.0,0.0,0.0,0.0,-0.0007103952027699296,-0.0006020573415475887,0.010184239054449389,0.0,0.0,0.0,0.0,0.0,0.0,0.0,0.0,0.0,0.0023372942789237853,-0.06613067079075596,9.80999007060064,0.0,0.0,0.0,0.0,0.0,0.0,0.0,0.0,0.0
