time,header_stamp_secs,header_stamp_nsecs,header_frame_id,orientation_x,orientation_y,orientation_z,orientation_w,orientation_covariance_0,orientation_covariance_1,orientation_covariance_2,orientation_covariance_3,orientation_covariance_4,orientation_covariance_5,orientation_covariance_6,orientation_covariance_7,orientation_covariance_8,angular_velocity_x,angular_velocity_y,angular_velocity_z,angular_velocity_covariance_0,angular_velocity_covariance_1,angular_velocity_covariance_2,angular_velocity_covariance_3,angular_velocity_covariance_4,angular_velocity_covariance_5,angular_velocity_covariance_6,angular_velocity_covariance_7,angular_velocity_covariance_8,linear_acceleration_x,linear_acceleration_y,linear_acceleration_z,linear_acceleration_covariance_0,linear_acceleration_covariance_1,linear_acceleration_covariance_2,linear_acceleration_covariance_3,linear_acceleration_covariance_4,linear_acceleration_covariance_5,linear_acceleration_covariance_6,linear_acceleration_covariance_7,linear_acceleration_covariance_8
2025/05/19 02:08:51.735156551,1747613331,676692336,mA1/imu,0.7642641504457286,-0.6449027195751381,-0.0008184742808468397,0.00034745922222175076,0.0,0.0,0.0,0.0,0.0,0.0,0.0,0.0,0.0,-4.651433289498441e-07,9.237320528999096e-06,-4.693369248512122e-06,0.0,0.0,0.0,0.0,0.0,0.0,0.0,0.0,0.0,0.007896687710382959,-0.01533079143428756,9.808751469632776,0.0,0.0,0.0,0.0,0.0,0.0,0.0,0.0,0.0
2025/05/19 02:08:51.735207108,1747613331,734877395,mA1/imu,0.7642642264687625,-0.6449026294421997,-0.0008184082202519333,0.0003476875407622298,0.0,0.0,0.0,0.0,0.0,0.0,0.0,0.0,0.0,-7.580297425684389e-06,6.984293821625161e-06,-4.718329128184049e-06,0.0,0.0,0.0,0.0,0.0,0.0,0.0,0.0,0.0,0.00790393758215836,-0.01593599685408603,9.81125580160779,0.0,0.0,0.0,0.0,0.0,0.0,0.0,0.0,0.0
2025/05/19 02:08:51.783133993,1747613331,782588165,mA1/imu,0.7642643027932574,-0.6449025387372161,-0.0008184818023824595,0.00034798529943425765,0.0,0.0,0.0,0.0,0.0,0.0,0.0,0.0,0.0,-1.4192147129985284e-05,4.335978714946514e-06,-4.743099001266538e-06,0.0,0.0,0.0,0.0,0.0,0.0,0.0,0.0,0.0,0.00790494239300867,-0.015930154440123183,9.810905442399008,0.0,0.0,0.0,0.0,0.0,0.0,0.0,0.0,0.0
2025/05/19 02:08:51.825787961,1747613331,825531220,mA1/imu,0.7642643794088684,-0.6449024474994899,-0.0008186844536482439,0.0003483270167740803,0.0,0.0,0.0,0.0,0.0,0.0,0.0,0.0,0.0,-1.7451268214199578e-05,1.4412378769791034e-06,-4.766327107483805e-06,0.0,0.0,0.0,0.0,0.0,0.0,0.0,0.0,0.0,0.007903845356747352,-0.015327848164716095,9.809091620914712,0.0,0.0,0.0,0.0,0.0,0.0,0.0,0.0,0.0
2025/05/19 02:08:51.884291435,1747613331,878943791,mA1/imu,0.764264456228904,-0.6449023558510403,-0.0008190075094562932,0.0003486970252405725,0.0,0.0,0.0,0.0,0.0,0.0,0.0,0.0,0.0,-2.0014449432378085e-05,-1.496316972576372e-06,-4.7816591336480964e-06,0.0,0.0,0.0,0.0,0.0,0.0,0.0,0.0,0.0,0.007904060292509821,-0.015337627679052465,9.808736571297608,0.0,0.0,0.0,0.0,0.0,0.0,0.0,0.0,0.0
2025/05/19 02:08:51.925591900,1747613331,924295229,mA1/imu,0.7642645331139389,-0.6449022639741656,-0.0008194383901376662,0.00034909290070780344,0.0,0.0,0.0,0.0,0.0,0.0,0.0,0.0,0.0,-2.4314342657046737e-05,-3.93324381575158e-06,-4.7862238007746954e-06,0.0,0.0,0.0,0.0,0.0,0.0,0.0,0.0,0.0,0.007895380063270568,-0.015939684199806993,9.811236262723781,0.0,0.0,0.0,0.0,0.0,0.0,0.0,0.0,0.0
2025/05/19 02:08:51.980587041,1747613331,979275936,mA1/imu,0.7642646099215076,-0.6449021720727864,-0.0008199584541617976,0.00034949314968956774,0.0,0.0,0.0,0.0,0.0,0.0,0.0,0.0,0.0,-2.7382030570993355e-05,-6.678688817999995e-06,-4.782116695521989e-06,0.0,0.0,0.0,0.0,0.0,0.0,0.0,0.0,0.0,0.007902827255019382,-0.015929560759438008,9.81088891064855,0.0,0.0,0.0,0.0,0.0,0.0,0.0,0.0,0.0
2025/05/19 02:08:52.31985570,1747613332,26864755,mA1/imu,0.7642646865233499,-0.6449020803587489,-0.0008205331816420445,0.0003498680056800524,0.0,0.0,0.0,0.0,0.0,0.0,0.0,0.0,0.0,-2.631004144008155e-05,-8.640449798166992e-06,-4.769716213020122e-06,0.0,0.0,0.0,0.0,0.0,0.0,0.0,0.0,0.0,0.007899602478040035,-0.015316530445875205,9.809068912802488,0.0,0.0,0.0,0.0,0.0,0.0,0.0,0.0,0.0
2025/05/19 02:08:52.90129444,1747613332,86304974,mA1/imu,0.7642647628600188,-0.6449019889462119,-0.0008211336475406257,0.0003502046149700649,0.0,0.0,0.0,0.0,0.0,0.0,0.0,0.0,0.0,-2.4230612900691198e-05,-1.0330172586465333e-05,-4.755860891089162e-06,0.0,0.0,0.0,0.0,0.0,0.0,0.0,0.0,0.0,0.007900609050016567,-0.015325836384738098,9.808722410041684,0.0,0.0,0.0,0.0,0.0,0.0,0.0,0.0,0.0
2025/05/19 02:08:52.133983260,1747613332,132065322,mA1/imu,0.7642648388585072,-0.6449018980234007,-0.0008217012887349801,0.0003504531174963283,0.0,0.0,0.0,0.0,0.0,0.0,0.0,0.0,0.0,-1.8326757973152668e-05,-1.1144631304906116e-05,-4.712548782325624e-06,0.0,0.0,0.0,0.0,0.0,0.0,0.0,0.0,0.0,0.007882516093476,-0.015547566273419326,9.811216381631965,0.0,0.0,0.0,0.0,0.0,0.0,0.0,0.0,0.0
2025/05/19 02:08:52.182079616,1747613332,180657027,mA1/imu,0.7642649132402914,-0.6449018091174327,-0.0008222171441602624,0.0003506363359100537,0.0,0.0,0.0,0.0,0.0,0.0,0.0,0.0,0.0,-1.9860904967367258e-05,-1.0936677467026801e-05,-4.611750692283766e-06,0.0,0.0,0.0,0.0,0.0,0.0,0.0,0.0,0.0,0.007886845689511372,-0.015764953010886915,9.810877299543655,0.0,0.0,0.0,0.0,0.0,0.0,0.0,0.0,0.0
2025/05/19 02:08:52.230103059,1747613332,228462558,mA1/imu,0.7642649871118499,-0.6449017208709469,-0.0008227028718732773,0.00035078854027131146,0.0,0.0,0.0,0.0,0.0,0.0,0.0,0.0,0.0,-1.6052722507181272e-05,-1.0822221127899729e-05,-4.604124319362779e-06,0.0,0.0,0.0,0.0,0.0,0.0,0.0,0.0,0.0,0.007892655342890333,-0.015253016867152653,9.809049338642286,0.0,0.0,0.0,0.0,0.0,0.0,0.0,0.0,0.0
2025/05/19 02:08:52.282267478,1747613332,278040775,mA1/imu,0.7642650610868593,-0.6449016326199403,-0.0008231188574628684,0.00035088656482374714,0.0,0.0,0.0,0.0,0.0,0.0,0.0,0.0,0.0,-1.1098126674152541e-05,-9.607206180807656e-06,-4.6151291083287456e-06,0.0,0.0,0.0,0.0,0.0,0.0,0.0,0.0,0.0,0.007885281737697246,-0.015303316892959672,9.80870497021572,0.0,0.0,0.0,0.0,0.0,0.0,0.0,0.0,0.0
2025/05/19 02:08:52.331399786,1747613332,330700153,mA1/imu,0.7642651353324429,-0.6449015441902649,-0.0008234461794184491,0.0003509311674779945,0.0,0.0,0.0,0.0,0.0,0.0,0.0,0.0,0.0,-7.982412242098563e-06,-8.276750403746183e-06,-4.62961715922648e-06,0.0,0.0,0.0,0.0,0.0,0.0,0.0,0.0,0.0,0.007887385390249163,-0.015917412593935212,9.811235450364649,0.0,0.0,0.0,0.0,0.0,0.0,0.0,0.0,0.0
2025/05/19 02:08:52.381854766,1747613332,379534659,mA1/imu,0.7642652099786191,-0.6449014554560994,-0.0008236645111073599,0.00035091838814296523,0.0,0.0,0.0,0.0,0.0,0.0,0.0,0.0,0.0,-4.352163548500131e-06,-6.015554951044616e-06,-4.6504664708397556e-06,0.0,0.0,0.0,0.0,0.0,0.0,0.0,0.0,0.0,0.007880462357299556,-0.01591394869522097,9.810889242506088,0.0,0.0,0.0,0.0,0.0,0.0,0.0,0.0,0.0
2025/05/19 02:08:52.427204226,1747613332,425203526,mA1/imu,0.7642652851246796,-0.6449013663850947,-0.0008237256437127501,0.00035080478014868727,0.0,0.0,0.0,0.0,0.0,0.0,0.0,0.0,0.0,6.274270032969407e-06,-3.924538010744663e-06,-4.674669009386684e-06,0.0,0.0,0.0,0.0,0.0,0.0,0.0,0.0,0.0,0.007885774033644979,-0.015045184965709866,9.809063458620104,0.0,0.0,0.0,0.0,0.0,0.0,0.0,0.0,0.0
2025/05/19 02:08:52.479572038,1747613332,476925588,mA1/imu,0.7642653607335563,-0.6449012769950127,-0.0008236399710403115,0.0003506140430578719,0.0,0.0,0.0,0.0,0.0,0.0,0.0,0.0,0.0,1.0356708886821453e-05,-1.1604734930352156e-06,-4.6984554815582826e-06,0.0,0.0,0.0,0.0,0.0,0.0,0.0,0.0,0.0,0.007881307339219592,-0.015213456888447038,9.8087188798543,0.0,0.0,0.0,0.0,0.0,0.0,0.0,0.0,0.0
2025/05/19 02:08:52.532996736,1747613332,532593018,mA1/imu,0.7642654368305181,-0.6449011871680748,-0.0008234498720715565,0.00035040800969957315,0.0,0.0,0.0,0.0,0.0,0.0,0.0,0.0,0.0,1.2636646647111138e-05,1.6511529842172581e-06,-4.722746136851884e-06,0.0,0.0,0.0,0.0,0.0,0.0,0.0,0.0,0.0,0.007875580862862042,-0.01587697530970343,9.811245277689757,0.0,0.0,0.0,0.0,0.0,0.0,0.0,0.0,0.0
2025/05/19 02:08:52.577801755,1747613332,575394315,mA1/imu,0.7642655133757978,-0.644901096959328,-0.0008231517037116621,0.00035018046196263607,0.0,0.0,0.0,0.0,0.0,0.0,0.0,0.0,0.0,1.504514908408018e-05,4.201245543028373e-06,-4.742890093969773e-06,0.0,0.0,0.0,0.0,0.0,0.0,0.0,0.0,0.0,0.007884484094276903,-0.015892565278316655,9.810901829825042,0.0,0.0,0.0,0.0,0.0,0.0,0.0,0.0,0.0
2025/05/19 02:08:52.635323737,1747613332,632759864,mA1/imu,0.7642655902726935,-0.6449010064804844,-0.0008227530478572803,0.00034991857918344454,0.0,0.0,0.0,0.0,0.0,0.0,0.0,0.0,0.0,1.9522767804778494e-05,6.206997785616819e-06,-4.757268379672035e-06,0.0,0.0,0.0,0.0,0.0,0.0,0.0,0.0,0.0,0.007888787156526588,-0.01531155266901914,9.809076983936434,0.0,0.0,0.0,0.0,0.0,0.0,0.0,0.0,0.0
2025/05/19 02:08:52.680305219,1747613332,678805484,mA1/imu,0.7642656673421003,-0.6449009159136555,-0.0008222737869482976,0.0003496307789288938,0.0,0.0,0.0,0.0,0.0,0.0,0.0,0.0,0.0,2.304298588359116e-05,7.967242375963533e-06,-4.761130715753722e-06,0.0,0.0,0.0,0.0,0.0,0.0,0.0,0.0,0.0,0.007882876907755966,-0.015324973719105274,9.80873595544402,0.0,0.0,0.0,0.0,0.0,0.0,0.0,0.0,0.0
2025/05/19 02:08:52.752939705,1747613332,747595033,mA1/imu,0.764265744402782,-0.6449008254270318,-0.0008217386275504324,0.00034934456120867265,0.0,0.0,0.0,0.0,0.0,0.0,0.0,0.0,0.0,2.293825615277535e-05,9.574370855241829e-06,-4.75271607729719e-06,0.0,0.0,0.0,0.0,0.0,0.0,0.0,0.0,0.0,0.007886812608616109,-0.01593028239351147,9.811256150360615,0.0,0.0,0.0,0.0,0.0,0.0,0.0,0.0,0.0
2025/05/19 02:08:52.779608150,1747613332,778159730,mA1/imu,0.7642658213163894,-0.6449007351465663,-0.0008211729250148939,0.0003490702366491305,0.0,0.0,0.0,0.0,0.0,0.0,0.0,0.0,0.0,2.1924612807548194e-05,1.0568912339754826e-05,-4.738528457322075e-06,0.0,0.0,0.0,0.0,0.0,0.0,0.0,0.0,0.0,0.007888255552596046,-0.015920889499924748,9.810908857655424,0.0,0.0,0.0,0.0,0.0,0.0,0.0,0.0,0.0
2025/05/19 02:08:52.838707694,1747613332,838463807,mA1/imu,0.7642658980534034,-0.6449006450810297,-0.0008205973338486622,0.0003488075575332536,0.0,0.0,0.0,0.0,0.0,0.0,0.0,0.0,0.0,2.2501498952193798e-05,1.0900223332475637e-05,-4.72877038359855e-06,0.0,0.0,0.0,0.0,0.0,0.0,0.0,0.0,0.0,0.007892369736583306,-0.015324351165888365,9.809089032713304,0.0,0.0,0.0,0.0,0.0,0.0,0.0,0.0,0.0
2025/05/19 02:08:52.880691958,1747613332,877242065,mA1/imu,0.7642659746295968,-0.6449005551649973,-0.0008200461299703715,0.00034856232648275393,0.0,0.0,0.0,0.0,0.0,0.0,0.0,0.0,0.0,2.2009965640956948e-05,1.0113390657709892e-05,-4.7242173820060395e-06,0.0,0.0,0.0,0.0,0.0,0.0,0.0,0.0,0.0,0.007900397259243505,-0.01533142100706213,9.808742636224245,0.0,0.0,0.0,0.0,0.0,0.0,0.0,0.0,0.0
2025/05/19 02:08:52.929577948,1747613332,928725098,mA1/imu,0.764266051127806,-0.644900465240269,-0.0008195610712274302,0.0003483475924934941,0.0,0.0,0.0,0.0,0.0,0.0,0.0,0.0,0.0,1.7859333885375602e-05,8.67434705116382e-06,-4.724836626528341e-06,0.0,0.0,0.0,0.0,0.0,0.0,0.0,0.0,0.0,0.007902856798670772,-0.015935767438947687,9.811252793605806,0.0,0.0,0.0,0.0,0.0,0.0,0.0,0.0,0.0
2025/05/19 02:08:52.980534958,1747613332,979979216,mA1/imu,0.7642661276786348,-0.644900375119434,-0.0008191644273783682,0.0003481717377646612,0.0,0.0,0.0,0.0,0.0,0.0,0.0,0.0,0.0,1.3038826315262508e-05,6.820420694741467e-06,-4.735116752515953e-06,0.0,0.0,0.0,0.0,0.0,0.0,0.0,0.0,0.0,0.007902753712417871,-0.0159247184095216,9.810908064223728,0.0,0.0,0.0,0.0,0.0,0.0,0.0,0.0,0.0
2025/05/19 02:08:53.25676827,1747613333,24919086,mA1/imu,0.764266204436722,-0.6449002846100778,-0.0008188647973200996,0.00034803185378475183,0.0,0.0,0.0,0.0,0.0,0.0,0.0,0.0,0.0,1.037097689852112e-05,4.6863406595022445e-06,-4.756076287002162e-06,0.0,0.0,0.0,0.0,0.0,0.0,0.0,0.0,0.0,0.007902458317168203,-0.01532325995580149,9.809084495369632,0.0,0.0,0.0,0.0,0.0,0.0,0.0,0.0,0.0
2025/05/19 02:08:53.78182595,1747613333,76885093,mA1/imu,0.764266281504842,-0.6449001935722757,-0.0008186737689569094,0.0003479345672554582,0.0,0.0,0.0,0.0,0.0,0.0,0.0,0.0,0.0,7.15275203579403e-06,2.3952641539812013e-06,-4.782063704499893e-06,0.0,0.0,0.0,0.0,0.0,0.0,0.0,0.0,0.0,0.007903179661793186,-0.015333889623516866,9.80872953126991,0.0,0.0,0.0,0.0,0.0,0.0,0.0,0.0,0.0
2025/05/19 02:08:53.130043648,1747613333,128860406,mA1/imu,0.76426635889233,-0.6449001019650047,-0.0008186082219987629,0.00034789591195535387,0.0,0.0,0.0,0.0,0.0,0.0,0.0,0.0,0.0,8.785285808776167e-07,1.3188591662728238e-10,-4.807578075819014e-06,0.0,0.0,0.0,0.0,0.0,0.0,0.0,0.0,0.0,0.007908047451280886,-0.01593871369111907,9.811233682201397,0.0,0.0,0.0,0.0,0.0,0.0,0.0,0.0,0.0
2025/05/19 02:08:53.180466893,1747613333,179223677,mA1/imu,0.7642664365953444,-0.644900009783206,-0.0008186774977394825,0.0003479118131969171,0.0,0.0,0.0,0.0,0.0,0.0,0.0,0.0,0.0,-5.376891852388199e-06,-2.8076726477465077e-06,-4.833093640392438e-06,0.0,0.0,0.0,0.0,0.0,0.0,0.0,0.0,0.0,0.007906984488182304,-0.015930736785083856,9.810885588053015,0.0,0.0,0.0,0.0,0.0,0.0,0.0,0.0,0.0
2025/05/19 02:08:53.231999523,1747613333,230786332,mA1/imu,0.76426651461761,-0.6448999170454488,-0.0008188667518011742,0.0003479745198879402,0.0,0.0,0.0,0.0,0.0,0.0,0.0,0.0,0.0,-8.608757856595945e-06,-4.8630244853757655e-06,-4.857830949931832e-06,0.0,0.0,0.0,0.0,0.0,0.0,0.0,0.0,0.0,0.007895630765871024,-0.015325966987462638,9.809065591785583,0.0,0.0,0.0,0.0,0.0,0.0,0.0,0.0,0.0
2025/05/19 02:08:53.275043965,1747613333,274671368,mA1/imu,0.7642665929372475,-0.6448998237937958,-0.0008191628212919404,0.0003480848958876369,0.0,0.0,0.0,0.0,0.0,0.0,0.0,0.0,0.0,-1.1525304048688576e-05,-7.1927905907318466e-06,-4.881465873916876e-06,0.0,0.0,0.0,0.0,0.0,0.0,0.0,0.0,0.0,0.007908853354134911,-0.015335255858849348,9.808712789704062,0.0,0.0,0.0,0.0,0.0,0.0,0.0,0.0,0.0
2025/05/19 02:08:53.334914713,1747613333,331991588,mA1/imu,0.7642666714419929,-0.644899730160818,-0.0008195654344035957,0.0003482441384928551,0.0,0.0,0.0,0.0,0.0,0.0,0.0,0.0,0.0,-1.6739777162311146e-05,-8.639029334957984e-06,-4.89238244575371e-06,0.0,0.0,0.0,0.0,0.0,0.0,0.0,0.0,0.0,0.007891410245521733,-0.015943214234249888,9.811229704858677,0.0,0.0,0.0,0.0,0.0,0.0,0.0,0.0,0.0
2025/05/19 02:08:53.377648976,1747613333,377338532,mA1/imu,0.7642667491957217,-0.6448996374159763,-0.0008199766003182697,0.00034838616680596776,0.0,0.0,0.0,0.0,0.0,0.0,0.0,0.0,0.0,-1.8364053710014767e-05,-9.105835171924623e-06,-4.814355280357404e-06,0.0,0.0,0.0,0.0,0.0,0.0,0.0,0.0,0.0,0.007893964510792956,-0.01575373074130334,9.810878022079764,0.0,0.0,0.0,0.0,0.0,0.0,0.0,0.0,0.0
2025/05/19 02:08:53.428758812,1747613333,426698032,mA1/imu,0.7642668262329049,-0.6448995453804426,-0.0008204652058987157,0.00034860411251747046,0.0,0.0,0.0,0.0,0.0,0.0,0.0,0.0,0.0,-2.0502503370814203e-05,-9.343515103123148e-06,-4.792918450997373e-06,0.0,0.0,0.0,0.0,0.0,0.0,0.0,0.0,0.0,0.00788948300256659,-0.015248357765763377,9.809067273508916,0.0,0.0,0.0,0.0,0.0,0.0,0.0,0.0,0.0
2025/05/19 02:08:53.481397236,1747613333,481152504,mA1/imu,0.7642669029685988,-0.6448994536356375,-0.0008209855600098883,0.00034886953543422584,0.0,0.0,0.0,0.0,0.0,0.0,0.0,0.0,0.0,-2.1041544779523688e-05,-8.750159305356092e-06,-4.77737627520605e-06,0.0,0.0,0.0,0.0,0.0,0.0,0.0,0.0,0.0,0.007885161913959288,-0.015301866932582427,9.80872028808198,0.0,0.0,0.0,0.0,0.0,0.0,0.0,0.0,0.0
2025/05/19 02:08:53.530952582,1747613333,529373715,mA1/imu,0.7642669794096948,-0.6448993623174658,-0.000821458480828911,0.000349102379537155,0.0,0.0,0.0,0.0,0.0,0.0,0.0,0.0,0.0,-1.4863784625902e-05,-8.183301149993461e-06,-4.746298129519451e-06,0.0,0.0,0.0,0.0,0.0,0.0,0.0,0.0,0.0,0.007882608972999734,-0.015345929292050623,9.811215853124395,0.0,0.0,0.0,0.0,0.0,0.0,0.0,0.0,0.0
2025/05/19 02:08:53.580245958,1747613333,578108410,mA1/imu,0.7642670547834052,-0.6448992723278063,-0.0008218860785608522,0.0003493236883398458,0.0,0.0,0.0,0.0,0.0,0.0,0.0,0.0,0.0,-2.0088925618766355e-05,-6.661688939598366e-06,-4.6693189442849195e-06,0.0,0.0,0.0,0.0,0.0,0.0,0.0,0.0,0.0,0.007878602415988882,-0.015682111852447386,9.81088860841698,0.0,0.0,0.0,0.0,0.0,0.0,0.0,0.0,0.0
2025/05/19 02:08:53.632329855,1747613333,630936444,mA1/imu,0.7642671294452117,-0.6448991831626678,-0.0008223048309872738,0.00034960043609114273,0.0,0.0,0.0,0.0,0.0,0.0,0.0,0.0,0.0,-1.9238063935798175e-05,-4.908242927455665e-06,-4.641726622072657e-06,0.0,0.0,0.0,0.0,0.0,0.0,0.0,0.0,0.0,0.007882641014792741,-0.015227679009508915,9.809065951435691,0.0,0.0,0.0,0.0,0.0,0.0,0.0,0.0,0.0
2025/05/19 02:08:53.674224541,1747613333,673249367,mA1/imu,0.7642672040134657,-0.6448990941656282,-0.0008226730334650695,0.0003498897994972821,0.0,0.0,0.0,0.0,0.0,0.0,0.0,0.0,0.0,-1.6683000244174065e-05,-3.0494401148492077e-06,-4.641584746518267e-06,0.0,0.0,0.0,0.0,0.0,0.0,0.0,0.0,0.0,0.00788634820505811,-0.015296718919692089,9.808717355818274,0.0,0.0,0.0,0.0,0.0,0.0,0.0,0.0,0.0
2025/05/19 02:08:53.725689523,1747613333,725324508,mA1/imu,0.7642672787478574,-0.6448990050571165,-0.0008229770574401325,0.00035017202783813327,0.0,0.0,0.0,0.0,0.0,0.0,0.0,0.0,0.0,-1.5409349131220998e-05,-1.2396178215792385e-06,-4.652171065902098e-06,0.0,0.0,0.0,0.0,0.0,0.0,0.0,0.0,0.0,0.007883174374511514,-0.01591015738079083,9.811257336509268,0.0,0.0,0.0,0.0,0.0,0.0,0.0,0.0,0.0
2025/05/19 02:08:53.784822351,1747613333,783302485,mA1/imu,0.7642673537912198,-0.6448989157013519,-0.0008231978537419536,0.0003504304216649267,0.0,0.0,0.0,0.0,0.0,0.0,0.0,0.0,0.0,-1.315793684959317e-05,7.050853818574824e-07,-4.66985179274123e-06,0.0,0.0,0.0,0.0,0.0,0.0,0.0,0.0,0.0,0.00788492510994875,-0.015909591814645237,9.810906577256107,0.0,0.0,0.0,0.0,0.0,0.0,0.0,0.0,0.0
2025/05/19 02:08:53.826795071,1747613333,826322809,mA1/imu,0.7642674292854174,-0.6448988259729806,-0.0008233106741126358,0.0003506446418151874,0.0,0.0,0.0,0.0,0.0,0.0,0.0,0.0,0.0,-7.74712742143443e-06,2.9753207078205627e-06,-4.694922053655554e-06,0.0,0.0,0.0,0.0,0.0,0.0,0.0,0.0,0.0,0.007886397673336005,-0.01532239703602318,9.809076098083256,0.0,0.0,0.0,0.0,0.0,0.0,0.0,0.0,0.0
2025/05/19 02:08:53.877966343,1747613333,877722972,mA1/imu,0.764267505280592,-0.6448987358207586,-0.0008233144529613326,0.0003508023366941263,0.0,0.0,0.0,0.0,0.0,0.0,0.0,0.0,0.0,-2.1020677001670958e-06,4.5690313818616155e-06,-4.722222759906415e-06,0.0,0.0,0.0,0.0,0.0,0.0,0.0,0.0,0.0,0.007888827481009929,-0.015331655087226406,9.808727908417788,0.0,0.0,0.0,0.0,0.0,0.0,0.0,0.0,0.0
2025/05/19 02:08:53.929906264,1747613333,929376647,mA1/imu,0.7642675817827533,-0.6448986452250454,-0.0008232195505895065,0.0003509022873476956,0.0,0.0,0.0,0.0,0.0,0.0,0.0,0.0,0.0,1.2147838637118497e-06,5.987783012728994e-06,-4.7496546926009e-06,0.0,0.0,0.0,0.0,0.0,0.0,0.0,0.0,0.0,0.007889177838868331,-0.015922257421693006,9.811263683032507,0.0,0.0,0.0,0.0,0.0,0.0,0.0,0.0,0.0
2025/05/19 02:08:53.983269400,1747613333,980972514,mA1/imu,0.7642676587948534,-0.644898554181695,-0.0008230290180433388,0.00035093849646583976,0.0,0.0,0.0,0.0,0.0,0.0,0.0,0.0,0.0,4.614844892204542e-06,7.2938857495419415e-06,-4.7768671933179735e-06,0.0,0.0,0.0,0.0,0.0,0.0,0.0,0.0,0.0,0.007885052093372962,-0.015911588666571115,9.810916611164785,0.0,0.0,0.0,0.0,0.0,0.0,0.0,0.0,0.0
2025/05/19 02:08:54.28579039,1747613334,25357922,mA1/imu,0.7642677363183474,-0.6448984626937979,-0.0008227444827316362,0.00035089816397749406,0.0,0.0,0.0,0.0,0.0,0.0,0.0,0.0,0.0,1.0331508182552855e-05,7.89320206624076e-06,-4.804971138030841e-06,0.0,0.0,0.0,0.0,0.0,0.0,0.0,0.0,0.0,0.007891758425915,-0.015319900335066838,9.809076614367854,0.0,0.0,0.0,0.0,0.0,0.0,0.0,0.0,0.0
2025/05/19 02:08:54.83511764,1747613334,80841729,mA1/imu,0.7642678143124629,-0.644898370789817,-0.000822380629185423,0.0003507831111594787,0.0,0.0,0.0,0.0,0.0,0.0,0.0,0.0,0.0,1.5453078121447448e-05,8.307042424916889e-06,-4.830081772216076e-06,0.0,0.0,0.0,0.0,0.0,0.0,0.0,0.0,0.0,0.007889772504301236,-0.015327346759299294,9.808730868176712,0.0,0.0,0.0,0.0,0.0,0.0,0.0,0.0,0.0
2025/05/19 02:08:54.134487719,1747613334,133980016,mA1/imu,0.764267892667449,-0.6448982785601601,-0.0008219609644029191,0.0003506108555070715,0.0,0.0,0.0,0.0,0.0,0.0,0.0,0.0,0.0,1.7244211963752854e-05,8.395644388900709e-06,-4.846032866751874e-06,0.0,0.0,0.0,0.0,0.0,0.0,0.0,0.0,0.0,0.007891026209614899,-0.015926537608318067,9.811260897679007,0.0,0.0,0.0,0.0,0.0,0.0,0.0,0.0,0.0
2025/05/19 02:08:54.188342738,1747613334,182104202,mA1/imu,0.7642679712052891,-0.6448981861876939,-0.0008215039699062039,0.0003503894995283045,0.0,0.0,0.0,0.0,0.0,0.0,0.0,0.0,0.0,1.8388927869615113e-05,8.1196286635456e-06,-4.851656422089857e-06,0.0,0.0,0.0,0.0,0.0,0.0,0.0,0.0,0.0,0.00789094390508745,-0.01591689152826219,9.810905259254051,0.0,0.0,0.0,0.0,0.0,0.0,0.0,0.0,0.0
2025/05/19 02:08:54.225997568,1747613334,224037449,mA1/imu,0.76426804979111,-0.6448980938128734,-0.0008210261763496901,0.00035011574319634633,0.0,0.0,0.0,0.0,0.0,0.0,0.0,0.0,0.0,2.1272660391525067e-05,6.974422023026758e-06,-4.852635850695608e-06,0.0,0.0,0.0,0.0,0.0,0.0,0.0,0.0,0.0,0.00790161596321978,-0.015322352908790832,9.809067275771707,0.0,0.0,0.0,0.0,0.0,0.0,0.0,0.0,0.0
2025/05/19 02:08:54.276465794,1747613334,276245318,mA1/imu,0.7642681283070438,-0.6448980015317387,-0.0008205608282476605,0.00034979185921267487,0.0,0.0,0.0,0.0,0.0,0.0,0.0,0.0,0.0,2.3121531668715358e-05,5.069414092326774e-06,-4.849942650061956e-06,0.0,0.0,0.0,0.0,0.0,0.0,0.0,0.0,0.0,0.007903619115050529,-0.015330104132002661,9.808716032680733,0.0,0.0,0.0,0.0,0.0,0.0,0.0,0.0,0.0
2025/05/19 02:08:54.328144804,1747613334,327626278,mA1/imu,0.7642682066769726,-0.6448979093840856,-0.0008201359011641247,0.00034944513672103655,0.0,0.0,0.0,0.0,0.0,0.0,0.0,0.0,0.0,2.1235360096263283e-05,3.300104031972621e-06,-4.841794357960775e-06,0.0,0.0,0.0,0.0,0.0,0.0,0.0,0.0,0.0,0.007900799889909821,-0.01593329785074252,9.811245487459589,0.0,0.0,0.0,0.0,0.0,0.0,0.0,0.0,0.0
2025/05/19 02:08:54.374454415,1747613334,373931475,mA1/imu,0.7642682849041766,-0.6448978173326779,-0.0008197708064796376,0.00034909168018150644,0.0,0.0,0.0,0.0,0.0,0.0,0.0,0.0,0.0,1.8474013487765012e-05,1.285206489027178e-06,-4.836717744913586e-06,0.0,0.0,0.0,0.0,0.0,0.0,0.0,0.0,0.0,0.007896566349842355,-0.015923309048295538,9.810900021927123,0.0,0.0,0.0,0.0,0.0,0.0,0.0,0.0,0.0
2025/05/19 02:08:54.423963519,1747613334,423268305,mA1/imu,0.7642683630513409,-0.6448977252890113,-0.0008194750801864155,0.0003487355379292863,0.0,0.0,0.0,0.0,0.0,0.0,0.0,0.0,0.0,1.7573681926507544e-05,-1.0058652883045912e-06,-4.837244329242237e-06,0.0,0.0,0.0,0.0,0.0,0.0,0.0,0.0,0.0,0.0079020326817514,-0.015324094819592396,9.80905390053642,0.0,0.0,0.0,0.0,0.0,0.0,0.0,0.0,0.0
2025/05/19 02:08:54.476879551,1747613334,476640714,mA1/imu,0.7642684412075605,-0.6448976331675026,-0.0008192379949692747,0.00034836507607124165,0.0,0.0,0.0,0.0,0.0,0.0,0.0,0.0,0.0,1.780294332809357e-05,-3.0647104183488755e-06,-4.843376912314594e-06,0.0,0.0,0.0,0.0,0.0,0.0,0.0,0.0,0.0,0.007897432213085386,-0.015198255509686127,9.808704339693145,0.0,0.0,0.0,0.0,0.0,0.0,0.0,0.0,0.0
2025/05/19 02:08:54.530025880,1747613334,528246251,mA1/imu,0.7642685195061721,-0.6448975407269418,-0.0008190979921690512,0.00034804405701901694,0.0,0.0,0.0,0.0,0.0,0.0,0.0,0.0,0.0,1.1414268535196461e-05,-4.709532757571397e-06,-4.861389381969541e-06,0.0,0.0,0.0,0.0,0.0,0.0,0.0,0.0,0.0,0.00789735227681425,-0.015879126139194573,9.811240049432913,0.0,0.0,0.0,0.0,0.0,0.0,0.0,0.0,0.0
2025/05/19 02:08:54.580798728,1747613334,579404368,mA1/imu,0.7642685980403078,-0.6448974478250293,-0.0008190713980514327,0.0003477934890720067,0.0,0.0,0.0,0.0,0.0,0.0,0.0,0.0,0.0,5.374955970546107e-06,-6.27358199712154e-06,-4.88248311108389e-06,0.0,0.0,0.0,0.0,0.0,0.0,0.0,0.0,0.0,0.007900513823141971,-0.01590012273688491,9.810887099889463,0.0,0.0,0.0,0.0,0.0,0.0,0.0,0.0,0.0
2025/05/19 02:08:54.631188469,1747613334,625753458,mA1/imu,0.7642686768724505,-0.6448973544106815,-0.0008191427841616795,0.00034760730288324506,0.0,0.0,0.0,0.0,0.0,0.0,0.0,0.0,0.0,1.9540980632367016e-06,-7.498527615510843e-06,-4.905473204029464e-06,0.0,0.0,0.0,0.0,0.0,0.0,0.0,0.0,0.0,0.007897053660367085,-0.015319150393162569,9.809057258216589,0.0,0.0,0.0,0.0,0.0,0.0,0.0,0.0,0.0
2025/05/19 02:08:54.675381234,1747613334,675202660,mA1/imu,0.7642687560138202,-0.6448972604739087,-0.0008193067941334045,0.00034749203224027536,0.0,0.0,0.0,0.0,0.0,0.0,0.0,0.0,0.0,-1.5169150288157818e-06,-8.274447732647768e-06,-4.928442627944301e-06,0.0,0.0,0.0,0.0,0.0,0.0,0.0,0.0,0.0,0.007898174278840726,-0.01533372578135986,9.808710610027438,0.0,0.0,0.0,0.0,0.0,0.0,0.0,0.0,0.0
2025/05/19 02:08:54.726980320,1747613334,726691330,mA1/imu,0.7642688354170007,-0.644897166065983,-0.0008195610197772581,0.00034746243021447926,0.0,0.0,0.0,0.0,0.0,0.0,0.0,0.0,0.0,-7.513339368749262e-06,-8.646241979048422e-06,-4.945252640833344e-06,0.0,0.0,0.0,0.0,0.0,0.0,0.0,0.0,0.0,0.007893685494579014,-0.015936433889149178,9.811238007691731,0.0,0.0,0.0,0.0,0.0,0.0,0.0,0.0,0.0
2025/05/19 02:08:54.779545396,1747613334,779164507,mA1/imu,0.7642689150022061,-0.6448970712988344,-0.0008198904553093148,0.0003475214784294382,0.0,0.0,0.0,0.0,0.0,0.0,0.0,0.0,0.0,-1.3102608640597451e-05,-8.271347058268044e-06,-4.955803400812757e-06,0.0,0.0,0.0,0.0,0.0,0.0,0.0,0.0,0.0,0.007885217438484879,-0.015930493480026377,9.810894647303932,0.0,0.0,0.0,0.0,0.0,0.0,0.0,0.0,0.0
2025/05/19 02:08:54.833518070,1747613334,831495633,mA1/imu,0.7642689947289177,-0.644896976260654,-0.0008202667401332106,0.00034766131517894417,0.0,0.0,0.0,0.0,0.0,0.0,0.0,0.0,0.0,-1.534240679250186e-05,-7.518018520045944e-06,-4.964685603062574e-06,0.0,0.0,0.0,0.0,0.0,0.0,0.0,0.0,0.0,0.007888165152297682,-0.015326819200665956,9.809068091263965,0.0,0.0,0.0,0.0,0.0,0.0,0.0,0.0,0.0
2025/05/19 02:08:54.873937831,1747613334,873774026,mA1/imu,0.7642690745166942,-0.6448968810762304,-0.0008206682229446531,0.00034787815911418546,0.0,0.0,0.0,0.0,0.0,0.0,0.0,0.0,0.0,-1.7004635685572474e-05,-6.021327730021995e-06,-4.968209755780153e-06,0.0,0.0,0.0,0.0,0.0,0.0,0.0,0.0,0.0,0.007883879871776767,-0.015336629271296129,9.808726340438065,0.0,0.0,0.0,0.0,0.0,0.0,0.0,0.0,0.0
2025/05/19 02:08:54.927958025,1747613334,927683730,mA1/imu,0.764269153767019,-0.6448967865763546,-0.000821027747339266,0.00034810511978974917,0.0,0.0,0.0,0.0,0.0,0.0,0.0,0.0,0.0,-1.717126303747513e-05,-4.54195812554801e-06,-4.8930516616414145e-06,0.0,0.0,0.0,0.0,0.0,0.0,0.0,0.0,0.0,0.007886729842036245,-0.015712426640031557,9.811254156455826,0.0,0.0,0.0,0.0,0.0,0.0,0.0,0.0,0.0
2025/05/19 02:08:54.981866705,1747613334,978943927,mA1/imu,0.7642692321656432,-0.6448966930101814,-0.000821408799445355,0.0003484208005499556,0.0,0.0,0.0,0.0,0.0,0.0,0.0,0.0,0.0,-2.1638607613581396e-05,-2.7045598560809933e-06,-4.870476453772001e-06,0.0,0.0,0.0,0.0,0.0,0.0,0.0,0.0,0.0,0.007882006132885299,-0.015832210768750268,9.810901045836186,0.0,0.0,0.0,0.0,0.0,0.0,0.0,0.0,0.0
2025/05/19 02:08:55.23329968,1747613335,23000189,mA1/imu,0.7642693104057938,-0.6448965996130728,-0.0008217763992863511,0.00034880209009445924,0.0,0.0,0.0,0.0,0.0,0.0,0.0,0.0,0.0,-2.1471577806442207e-05,-5.557373973996227e-07,-4.863670526407415e-06,0.0,0.0,0.0,0.0,0.0,0.0,0.0,0.0,0.0,0.007882322926601761,-0.015286271127655973,9.8090910408322,0.0,0.0,0.0,0.0,0.0,0.0,0.0,0.0,0.0
2025/05/19 02:08:55.86770091,1747613335,83139250,mA1/imu,0.7642693886401223,-0.6448965062543428,-0.0008221018311812892,0.00034922367515054833,0.0,0.0,0.0,0.0,0.0,0.0,0.0,0.0,0.0,-2.003319470913292e-05,1.9070525155687694e-06,-4.863354497033922e-06,0.0,0.0,0.0,0.0,0.0,0.0,0.0,0.0,0.0,0.00788122018940324,-0.015318470704447936,9.80874182313572,0.0,0.0,0.0,0.0,0.0,0.0,0.0,0.0,0.0
2025/05/19 02:08:55.130374533,1747613335,129518552,mA1/imu,0.7642694669725268,-0.6448964128303104,-0.000822377412786672,0.00034966772613200577,0.0,0.0,0.0,0.0,0.0,0.0,0.0,0.0,0.0,-2.0105494459476796e-05,3.680685598668789e-06,-4.869144428725176e-06,0.0,0.0,0.0,0.0,0.0,0.0,0.0,0.0,0.0,0.007889181889580647,-0.015925263941277763,9.811253476257285,0.0,0.0,0.0,0.0,0.0,0.0,0.0,0.0,0.0
2025/05/19 02:08:55.180888390,1747613335,178757851,mA1/imu,0.7642695455118431,-0.6448963192375813,-0.0008225955973308747,0.0003501048753912271,0.0,0.0,0.0,0.0,0.0,0.0,0.0,0.0,0.0,-1.910146941060961e-05,5.202897478744794e-06,-4.880974746622029e-06,0.0,0.0,0.0,0.0,0.0,0.0,0.0,0.0,0.0,0.00788804248640502,-0.01592048845603714,9.810903046326372,0.0,0.0,0.0,0.0,0.0,0.0,0.0,0.0,0.0
2025/05/19 02:08:55.231458099,1747613335,230579823,mA1/imu,0.7642696243709768,-0.6448962253812331,-0.000822739889424789,0.00035050243719670824,0.0,0.0,0.0,0.0,0.0,0.0,0.0,0.0,0.0,-1.450945806606105e-05,6.284309904095309e-06,-4.900222865932187e-06,0.0,0.0,0.0,0.0,0.0,0.0,0.0,0.0,0.0,0.007893293300271123,-0.015319687727297339,9.809090845336609,0.0,0.0,0.0,0.0,0.0,0.0,0.0,0.0,0.0
2025/05/19 02:08:55.283793996,1747613335,281157356,mA1/imu,0.7642697036424879,-0.6448961311668123,-0.000822806840564,0.0003508407106540526,0.0,0.0,0.0,0.0,0.0,0.0,0.0,0.0,0.0,-9.388845187647175e-06,6.946232309908061e-06,-4.924961367157206e-06,0.0,0.0,0.0,0.0,0.0,0.0,0.0,0.0,0.0,0.007891247653229605,-0.01532888207629616,9.808741535504794,0.0,0.0,0.0,0.0,0.0,0.0,0.0,0.0,0.0
2025/05/19 02:08:55.322833492,1747613335,322602943,mA1/imu,0.7642702822454709,-0.6448954445603592,-0.000823579122514319,0.00035068383778405845,0.0,0.0,0.0,0.0,0.0,0.0,0.0,0.0,0.0,-2.0545289240939953e-05,-9.327758444858308e-05,-8.229613150518027e-05,0.0,0.0,0.0,0.0,0.0,0.0,0.0,0.0,0.0,0.0138662264713123,-0.018302720321150472,9.811784644405732,0.0,0.0,0.0,0.0,0.0,0.0,0.0,0.0,0.0
2025/05/19 02:08:55.377054044,1747613335,375943959,mA1/imu,0.764272836766545,-0.6448924131755254,-0.0008278221097336189,0.0003480230167272078,0.0,0.0,0.0,0.0,0.0,0.0,0.0,0.0,0.0,-3.1695415403860724e-05,-0.0002655557687689353,-0.0002095205017469164,0.0,0.0,0.0,0.0,0.0,0.0,0.0,0.0,0.0,0.013669292292574131,-0.018097758130448966,9.811443715705918,0.0,0.0,0.0,0.0,0.0,0.0,0.0,0.0,0.0
2025/05/19 02:08:55.429123902,1747613335,428274681,mA1/imu,0.7642774023950021,-0.6448869954171499,-0.0008352271068041742,0.0003431120355621052,0.0,0.0,0.0,0.0,0.0,0.0,0.0,0.0,0.0,-4.540053108999325e-05,-0.00040705632515678424,-0.0003329057296002266,0.0,0.0,0.0,0.0,0.0,0.0,0.0,0.0,0.0,0.01309330694411593,-0.017222565748702675,9.808553422542193,0.0,0.0,0.0,0.0,0.0,0.0,0.0,0.0,0.0
2025/05/19 02:08:55.478620000,1747613335,478089368,mA1/imu,0.7642839293566648,-0.6448792506269715,-0.0008451332272349464,0.0003364338873947577,0.0,0.0,0.0,0.0,0.0,0.0,0.0,0.0,0.0,-5.677515447446902e-05,-0.0005142784312775063,-0.0004530950780888081,0.0,0.0,0.0,0.0,0.0,0.0,0.0,0.0,0.0,0.012843030014441537,-0.01720881893186104,9.80820128224483,0.0,0.0,0.0,0.0,0.0,0.0,0.0,0.0,0.0
2025/05/19 02:08:55.533632900,1747613335,530667738,mA1/imu,0.7642923561955074,-0.6448692521387281,-0.0008567080830336974,0.0003285702624109396,0.0,0.0,0.0,0.0,0.0,0.0,0.0,0.0,0.0,-6.060266950688458e-05,-0.0005783050225882337,-0.0005697367145525841,0.0,0.0,0.0,0.0,0.0,0.0,0.0,0.0,0.0,0.012532191824034153,-0.017887337010271398,9.811802862383022,0.0,0.0,0.0,0.0,0.0,0.0,0.0,0.0,0.0
2025/05/19 02:08:55.573248032,1747613335,572973475,mA1/imu,0.7643026278634285,-0.6448570657408285,-0.0008690868924114221,0.0003201455292279599,0.0,0.0,0.0,0.0,0.0,0.0,0.0,0.0,0.0,-6.085534774340659e-05,-0.0006012612773130975,-0.0006832975685821766,0.0,0.0,0.0,0.0,0.0,0.0,0.0,0.0,0.0,0.012332558196131754,-0.017819599454368198,9.811461380572737,0.0,0.0,0.0,0.0,0.0,0.0,0.0,0.0,0.0
2025/05/19 02:08:55.624445449,1747613335,623946233,mA1/imu,0.7643146915739397,-0.6448427546033428,-0.0008813925194998258,0.00031181249635070724,0.0,0.0,0.0,0.0,0.0,0.0,0.0,0.0,0.0,-6.229341860764949e-05,-0.0005786453007793931,-0.0007928457843377381,0.0,0.0,0.0,0.0,0.0,0.0,0.0,0.0,0.0,0.011740940736764184,-0.017042082313039855,9.808528961209955,0.0,0.0,0.0,0.0,0.0,0.0,0.0,0.0,0.0
2025/05/19 02:08:55.685375245,1747613335,680822968,mA1/imu,0.7643284986854574,-0.6448263770166602,-0.0008927997784956053,0.0003041535110838646,0.0,0.0,0.0,0.0,0.0,0.0,0.0,0.0,0.0,-6.059793938084445e-05,-0.0005178309563560103,-0.0008994945117791847,0.0,0.0,0.0,0.0,0.0,0.0,0.0,0.0,0.0,0.011575431721856612,-0.01703221631754775,9.808178646032822,0.0,0.0,0.0,0.0,0.0,0.0,0.0,0.0,0.0
2025/05/19 02:08:55.730371754,1747613335,728628021,mA1/imu,0.7643440047558552,-0.6448079863113706,-0.0009025369156584781,0.00029767427230110966,0.0,0.0,0.0,0.0,0.0,0.0,0.0,0.0,0.0,-5.0201461772008885e-05,-0.0004234654839610085,-0.001003995066824536,0.0,0.0,0.0,0.0,0.0,0.0,0.0,0.0,0.0,0.011521397576681186,-0.017671476305143236,9.811796900318942,0.0,0.0,0.0,0.0,0.0,0.0,0.0,0.0,0.0
2025/05/19 02:08:55.779533418,1747613335,778849127,mA1/imu,0.764361165243411,-0.6447876357893747,-0.0009099833602662808,0.0002927988514722322,0.0,0.0,0.0,0.0,0.0,0.0,0.0,0.0,0.0,-3.6830732279070285e-05,-0.00030289277299163595,-0.001105782569401599,0.0,0.0,0.0,0.0,0.0,0.0,0.0,0.0,0.0,0.011433528320546595,-0.0176122680022735,9.811449516514825,0.0,0.0,0.0,0.0,0.0,0.0,0.0,0.0,0.0
2025/05/19 02:08:55.830565011,1747613335,829949018,mA1/imu,0.7643799327799425,-0.6447653819087101,-0.000914675384977245,0.00028986960141411426,0.0,0.0,0.0,0.0,0.0,0.0,0.0,0.0,0.0,-2.6713611034144912e-05,-0.00016022263694278943,-0.00120374260332411,0.0,0.0,0.0,0.0,0.0,0.0,0.0,0.0,0.0,0.011002571970548915,-0.016857424880513037,9.808514419503664,0.0,0.0,0.0,0.0,0.0,0.0,0.0,0.0,0.0
2025/05/19 02:08:55.872901415,1747613335,872158945,mA1/imu,0.7644002652276628,-0.6447412747107049,-0.0009163190616006608,0.0002890738165882759,0.0,0.0,0.0,0.0,0.0,0.0,0.0,0.0,0.0,-1.5204993355127537e-05,-7.846277243019272e-06,-0.0012992929495681095,0.0,0.0,0.0,0.0,0.0,0.0,0.0,0.0,0.0,0.010942877475518023,-0.016850250134533694,9.808155589137206,0.0,0.0,0.0,0.0,0.0,0.0,0.0,0.0,0.0
2025/05/19 02:08:55.925204267,1747613335,923940878,mA1/imu,0.7644221256094963,-0.6447153578739776,-0.0009147940436853863,0.0002904340650230038,0.0,0.0,0.0,0.0,0.0,0.0,0.0,0.0,0.0,3.2905125834644253e-06,0.00014341900274647938,-0.001393391787862668,0.0,0.0,0.0,0.0,0.0,0.0,0.0,0.0,0.0,0.011195914310806493,-0.01748744233498137,9.811782522794514,0.0,0.0,0.0,0.0,0.0,0.0,0.0,0.0,0.0
2025/05/19 02:08:55.974469286,1747613335,974169135,mA1/imu,0.7644454743995286,-0.6446876777828394,-0.000910180702872042,0.0002938641479993328,0.0,0.0,0.0,0.0,0.0,0.0,0.0,0.0,0.0,2.21743100742053e-05,0.00028635782439506566,-0.0014850541190013825,0.0,0.0,0.0,0.0,0.0,0.0,0.0,0.0,0.0,0.011172463617220447,-0.017429525475979462,9.811437669294664,0.0,0.0,0.0,0.0,0.0,0.0,0.0,0.0,0.0
2025/05/19 02:08:56.30019031,1747613336,26610245,mA1/imu,0.764470268208953,-0.6446582851077812,-0.0009027482056168743,0.00029918573359164353,0.0,0.0,0.0,0.0,0.0,0.0,0.0,0.0,0.0,3.4134121001494484e-05,0.000415031359973615,-0.0015730602041003799,0.0,0.0,0.0,0.0,0.0,0.0,0.0,0.0,0.0,0.010930090524320013,-0.01671241777279601,9.808484235256309,0.0,0.0,0.0,0.0,0.0,0.0,0.0,0.0,0.0
2025/05/19 02:08:56.81400940,1747613336,79330037,mA1/imu,0.764496468467657,-0.6446272246323524,-0.0008929011668446342,0.00030608949272690626,0.0,0.0,0.0,0.0,0.0,0.0,0.0,0.0,0.0,4.480543867436916e-05,0.0005215090473228343,-0.0016589088316259302,0.0,0.0,0.0,0.0,0.0,0.0,0.0,0.0,0.0,0.010899816148609694,-0.016702795842942795,9.808142652169995,0.0,0.0,0.0,0.0,0.0,0.0,0.0,0.0,0.0
2025/05/19 02:08:56.131721959,1747613336,131437420,mA1/imu,0.764525597428774,-0.6445926893068974,-0.000881287507163777,0.0003148024897745185,0.0,0.0,0.0,0.0,0.0,0.0,0.0,0.0,0.0,5.3337251569310074e-06,0.0005307926924543521,-0.0019857599362586,0.0,0.0,0.0,0.0,0.0,0.0,0.0,0.0,0.0,0.019240212650235254,-0.028729815431235935,9.813127442314823,0.0,0.0,0.0,0.0,0.0,0.0,0.0,0.0,0.0
2025/05/19 02:08:56.173899259,1747613336,173766979,mA1/imu,0.7645622584162372,-0.6445492111390824,-0.0008737891073060822,0.00032236322017524,0.0,0.0,0.0,0.0,0.0,0.0,0.0,0.0,0.0,-6.307740086116095e-05,0.0003555155390571125,-0.00246671594964707,0.0,0.0,0.0,0.0,0.0,0.0,0.0,0.0,0.0,0.018897980562902324,-0.027824089596460613,9.812793333874959,0.0,0.0,0.0,0.0,0.0,0.0,0.0,0.0,0.0
2025/05/19 02:08:56.224882334,1747613336,223763124,mA1/imu,0.7646064819625394,-0.6444967510088745,-0.0008703147178134285,0.00032898657419889527,0.0,0.0,0.0,0.0,0.0,0.0,0.0,0.0,0.0,-0.00014216782177345626,0.00023797995817856495,-0.00292893702763406,0.0,0.0,0.0,0.0,0.0,0.0,0.0,0.0,0.0,0.01603231184968633,-0.025411762722070103,9.807182373626222,0.0,0.0,0.0,0.0,0.0,0.0,0.0,0.0,0.0
2025/05/19 02:08:56.277962742,1747613336,275996608,mA1/imu,0.7646575161175384,-0.6444361990194215,-0.0008692580058842841,0.0003359000986041231,0.0,0.0,0.0,0.0,0.0,0.0,0.0,0.0,0.0,-0.0002463537998186382,0.0002566128970430255,-0.0032669670833698644,0.0,0.0,0.0,0.0,0.0,0.0,0.0,0.0,0.0,0.006502660129101822,0.004306310465867352,9.807744627561954,0.0,0.0,0.0,0.0,0.0,0.0,0.0,0.0,0.0
2025/05/19 02:08:56.331725488,1747613336,331438080,mA1/imu,0.7647120716305303,-0.6443714584214321,-0.0008668238725377106,0.0003459635143404963,0.0,0.0,0.0,0.0,0.0,0.0,0.0,0.0,0.0,-0.0002505546675824027,0.0002980657626462531,-0.0035475594121979026,0.0,0.0,0.0,0.0,0.0,0.0,0.0,0.0,0.0,0.016340722170699942,-0.03077161228950313,9.813227797067224,0.0,0.0,0.0,0.0,0.0,0.0,0.0,0.0,0.0
2025/05/19 02:08:56.372259851,1747613336,371123595,mA1/imu,0.764770834071844,-0.6443017150317042,-0.0008627678617289633,0.00035635919694910996,0.0,0.0,0.0,0.0,0.0,0.0,0.0,0.0,0.0,-0.0001806362319077102,0.0005147746155109428,-0.003658082608586596,0.0,0.0,0.0,0.0,0.0,0.0,0.0,0.0,0.0,0.002334638415305218,-0.016660233936930863,9.811511617912256,0.0,0.0,0.0,0.0,0.0,0.0,0.0,0.0,0.0
2025/05/19 02:08:56.425051535,1747613336,423934038,mA1/imu,0.7648299954814928,-0.6442314920096393,-0.0008520251725208826,0.00036982146947649934,0.0,0.0,0.0,0.0,0.0,0.0,0.0,0.0,0.0,-0.0001048300968641319,0.0007800761111427306,-0.003682117540984963,0.0,0.0,0.0,0.0,0.0,0.0,0.0,0.0,0.0,0.002534067333982995,-0.015545932211021293,9.808508756563851,0.0,0.0,0.0,0.0,0.0,0.0,0.0,0.0,0.0
2025/05/19 02:08:56.476104253,1747613336,475791317,mA1/imu,0.7648895570000823,-0.6441607864349436,-0.0008355746655583275,0.0003855213498265527,0.0,0.0,0.0,0.0,0.0,0.0,0.0,0.0,0.0,-2.8886867112040656e-05,0.000990760581676055,-0.0037065856975405137,0.0,0.0,0.0,0.0,0.0,0.0,0.0,0.0,0.0,0.0027385605799920155,-0.01539130565091667,9.808164866076542,0.0,0.0,0.0,0.0,0.0,0.0,0.0,0.0,0.0
2025/05/19 02:08:56.528415600,1747613336,527563846,mA1/imu,0.7649495238993556,-0.6440895902834116,-0.0008146455382162684,0.00040240196774288435,0.0,0.0,0.0,0.0,0.0,0.0,0.0,0.0,0.0,5.223183081400079e-05,0.0011281234975979236,-0.0037327536660414526,0.0,0.0,0.0,0.0,0.0,0.0,0.0,0.0,0.0,0.003686796029081425,-0.016018522235607957,9.811871598647269,0.0,0.0,0.0,0.0,0.0,0.0,0.0,0.0,0.0
2025/05/19 02:08:56.572656074,1747613336,572252028,mA1/imu,0.7650098930203987,-0.6440179054815418,-0.000790648596240858,0.00041937439494273317,0.0,0.0,0.0,0.0,0.0,0.0,0.0,0.0,0.0,0.0001293349670968212,0.0011947223648803103,-0.0037585099818919876,0.0,0.0,0.0,0.0,0.0,0.0,0.0,0.0,0.0,0.0038699124167614345,-0.015974452029664594,9.811520055935627,0.0,0.0,0.0,0.0,0.0,0.0,0.0,0.0,0.0
2025/05/19 02:08:56.624728478,1747613336,624409956,mA1/imu,0.7650705478509348,-0.6439458687976777,-0.0007650791576506949,0.00043534280390623696,0.0,0.0,0.0,0.0,0.0,0.0,0.0,0.0,0.0,0.00020377408365804495,0.001190658744241082,-0.0037495439971230384,0.0,0.0,0.0,0.0,0.0,0.0,0.0,0.0,0.0,0.004083676898198621,-0.010166462253668542,9.808460590428984,0.0,0.0,0.0,0.0,0.0,0.0,0.0,0.0,0.0
2025/05/19 02:08:56.675680854,1747613336,675294090,mA1/imu,0.765130264894961,-0.6438749336742908,-0.0007386855342950217,0.0004493009856677433,0.0,0.0,0.0,0.0,0.0,0.0,0.0,0.0,0.0,0.000271489777038644,0.0011404968082930043,-0.003707674776876362,0.0,0.0,0.0,0.0,0.0,0.0,0.0,0.0,0.0,0.004202015126904763,-0.015606242153239691,9.808174601282778,0.0,0.0,0.0,0.0,0.0,0.0,0.0,0.0,0.0
2025/05/19 02:08:56.731982885,1747613336,729267587,mA1/imu,0.765189439539759,-0.6438046297665678,-0.000712236362136116,0.0004615488340503493,0.0,0.0,0.0,0.0,0.0,0.0,0.0,0.0,0.0,0.00032483690405011624,0.001179046781565009,-0.003610194148333228,0.0,0.0,0.0,0.0,0.0,0.0,0.0,0.0,0.0,-0.005709984749491719,-0.01491390354520305,9.81155950379109,0.0,0.0,0.0,0.0,0.0,0.0,0.0,0.0,0.0
2025/05/19 02:08:56.775003436,1747613336,774115931,mA1/imu,0.7652459171541633,-0.6437375198048343,-0.0006830369609236108,0.00047469454797787,0.0,0.0,0.0,0.0,0.0,0.0,0.0,0.0,0.0,0.00036370913311675556,0.0012470829650317037,-0.003449791285170145,0.0,0.0,0.0,0.0,0.0,0.0,0.0,0.0,0.0,-0.002943893111173819,-0.014185914622873988,9.811037866982725,0.0,0.0,0.0,0.0,0.0,0.0,0.0,0.0,0.0
2025/05/19 02:08:56.823333548,1747613336,823035529,mA1/imu,0.7653005176888695,-0.6436726287849659,-0.0006541508602730756,0.00048648211882379395,0.0,0.0,0.0,0.0,0.0,0.0,0.0,0.0,0.0,0.0003921224435637228,0.001142289034873337,-0.003352866158008108,0.0,0.0,0.0,0.0,0.0,0.0,0.0,0.0,0.0,-0.0007231102037107513,-0.013484403349890654,9.80902551865338,0.0,0.0,0.0,0.0,0.0,0.0,0.0,0.0,0.0
2025/05/19 02:08:56.875426148,1747613336,875097866,mA1/imu,0.7653442261159465,-0.6436206823223866,-0.0006192591982867177,0.000499355478284275,0.0,0.0,0.0,0.0,0.0,0.0,0.0,0.0,0.0,0.0008938728340502939,0.0024879914774425292,-0.0006759461037054832,0.0,0.0,0.0,0.0,0.0,0.0,0.0,0.0,0.0,-0.291041514024538,0.17543861022201968,9.832838472623493,0.0,0.0,0.0,0.0,0.0,0.0,0.0,0.0,0.0
2025/05/19 02:08:56.928964493,1747613336,926656470,mA1/imu,0.7653549647530152,-0.6436079500320732,-0.0005619625138839978,0.0005184414684010569,0.0,0.0,0.0,0.0,0.0,0.0,0.0,0.0,0.0,0.0008805225073197926,0.002067925944148982,-0.0006571313116311366,0.0,0.0,0.0,0.0,0.0,0.0,0.0,0.0,0.0,0.002970102507065787,-0.01682473534064084,9.81089666160267,0.0,0.0,0.0,0.0,0.0,0.0,0.0,0.0,0.0
2025/05/19 02:08:56.979151887,1747613336,977915819,mA1/imu,0.7653653954659215,-0.643595576570713,-0.0005142172052623463,0.0005299269486178619,0.0,0.0,0.0,0.0,0.0,0.0,0.0,0.0,0.0,0.0009695876227868956,0.0015375483275274205,-0.0006388371239466157,0.0,0.0,0.0,0.0,0.0,0.0,0.0,0.0,0.0,0.0030450203943270847,-0.07128776061110359,9.810235179563083,0.0,0.0,0.0,0.0,0.0,0.0,0.0,0.0,0.0
2025/05/19 02:08:57.29268478,1747613337,28977257,mA1/imu,0.7653755270566683,-0.6435835513435831,-0.0004793301072844774,0.0005341023842338343,0.0,0.0,0.0,0.0,0.0,0.0,0.0,0.0,0.0,0.000387087902471977,0.0009265328587762704,-0.0006210676285459584,0.0,0.0,0.0,0.0,0.0,0.0,0.0,0.0,0.0,0.00355802827739773,0.12470038392986872,9.808493746175406,0.0,0.0,0.0,0.0,0.0,0.0,0.0,0.0,0.0
2025/05/19 02:08:57.77420586,1747613337,76535890,mA1/imu,0.7653853599110393,-0.6435718708703863,-0.00046149160413594837,0.0005337450133888531,0.0,0.0,0.0,0.0,0.0,0.0,0.0,0.0,0.0,-0.0005139541170884894,0.0002864807536214915,-0.0006033204668804077,0.0,0.0,0.0,0.0,0.0,0.0,0.0,0.0,0.0,0.002822674030205612,0.22109269133594286,9.808652714868904,0.0,0.0,0.0,0.0,0.0,0.0,0.0,0.0,0.0
2025/05/19 02:08:57.129566907,1747613337,126273831,mA1/imu,0.7653943772357931,-0.6435611617484416,-0.0004550090441975897,0.0005209141947890813,0.0,0.0,0.0,0.0,0.0,0.0,0.0,0.0,0.0,0.0008676614852879994,-0.0004076344657489891,-0.0005155560657795484,0.0,0.0,0.0,0.0,0.0,0.0,0.0,0.0,0.0,0.0038443726292549593,-0.6122368602546446,9.808822642037208,0.0,0.0,0.0,0.0,0.0,0.0,0.0,0.0,0.0
2025/05/19 02:08:57.179424168,1747613337,176765737,mA1/imu,0.7654023799109666,-0.6435516585582827,-0.00046101006259561617,0.0004970545585868913,0.0,0.0,0.0,0.0,0.0,0.0,0.0,0.0,0.0,0.0010589886030135712,-0.001046711524589061,-0.000491407604304518,0.0,0.0,0.0,0.0,0.0,0.0,0.0,0.0,0.0,0.003308945898349346,0.041217730334791314,9.809776903153201,0.0,0.0,0.0,0.0,0.0,0.0,0.0,0.0,0.0
2025/05/19 02:08:57.233203973,1747613337,232548536,mA1/imu,0.7654081395715454,-0.6435448084346228,-0.0004846156142328226,0.0004738799181101926,0.0,0.0,0.0,0.0,0.0,0.0,0.0,0.0,0.0,0.0012447409196256877,-0.001425535464812802,-0.00019309232588100373,0.0,0.0,0.0,0.0,0.0,0.0,0.0,0.0,0.0,-0.004145175287792156,0.08059273323278651,9.80814017512761,0.0,0.0,0.0,0.0,0.0,0.0,0.0,0.0,0.0
2025/05/19 02:08:57.274833495,1747613337,274282265,mA1/imu,0.7654092528818909,-0.6435434698545548,-0.0005224377773820772,0.000452845574281299,0.0,0.0,0.0,0.0,0.0,0.0,0.0,0.0,0.0,-0.00012042757132784688,-0.0019166624242989824,-9.325089013981268e-06,0.0,0.0,0.0,0.0,0.0,0.0,0.0,0.0,0.0,0.003999611970546775,-0.08726210651289625,9.806708829435312,0.0,0.0,0.0,0.0,0.0,0.0,0.0,0.0,0.0
2025/05/19 02:08:57.323498460,1747613337,322583982,mA1/imu,0.7654080515554279,-0.6435448786246151,-0.0005692476219767378,0.00042398973811727677,0.0,0.0,0.0,0.0,0.0,0.0,0.0,0.0,0.0,0.0003317498439257273,-0.0023499197611087474,0.0001299097096142603,0.0,0.0,0.0,0.0,0.0,0.0,0.0,0.0,0.0,0.005654174174640151,-0.5986403432975946,9.809713484502007,0.0,0.0,0.0,0.0,0.0,0.0,0.0,0.0,0.0
2025/05/19 02:08:57.373765724,1747613337,373300847,mA1/imu,0.7654043540699893,-0.643549254119881,-0.0006191724433248015,0.0003858988631962089,0.0,0.0,0.0,0.0,0.0,0.0,0.0,0.0,0.0,0.0003700827784387396,-0.002611405333503862,0.00028847575696121073,0.0,0.0,0.0,0.0,0.0,0.0,0.0,0.0,0.0,0.004550553713604392,-0.5872664673738556,9.809635020832848,0.0,0.0,0.0,0.0,0.0,0.0,0.0,0.0,0.0
2025/05/19 02:08:57.424943715,1747613337,424688083,mA1/imu,0.7653982383378456,-0.643556481381247,-0.0006821533191555013,0.00035593308442621185,0.0,0.0,0.0,0.0,0.0,0.0,0.0,0.0,0.0,0.0002874208996082198,-0.0027658954149449443,0.0004306497284132674,0.0,0.0,0.0,0.0,0.0,0.0,0.0,0.0,0.0,0.0032320877622154685,-0.5823924508668634,9.808968032727446,0.0,0.0,0.0,0.0,0.0,0.0,0.0,0.0,0.0
2025/05/19 02:08:57.477851460,1747613337,477479991,mA1/imu,0.7653899623278404,-0.6435662742663223,-0.0007433941091721342,0.00032180731898980865,0.0,0.0,0.0,0.0,0.0,0.0,0.0,0.0,0.0,-0.0005654783305997831,-0.0027177106326425953,0.0005562226990168662,0.0,0.0,0.0,0.0,0.0,0.0,0.0,0.0,0.0,0.0020884558740719723,-0.2560233456515956,9.810631166945255,0.0,0.0,0.0,0.0,0.0,0.0,0.0,0.0,0.0
2025/05/19 02:08:57.522915071,1747613337,522036927,mA1/imu,0.7653815430296845,-0.6435762304257479,-0.0008025829238255476,0.0002916867056038305,0.0,0.0,0.0,0.0,0.0,0.0,0.0,0.0,0.0,-0.0002644984044979678,-0.002473463718076567,0.00048267468098398133,0.0,0.0,0.0,0.0,0.0,0.0,0.0,0.0,0.0,0.0008392107554429425,0.01965157067515804,9.810193254093612,0.0,0.0,0.0,0.0,0.0,0.0,0.0,0.0,0.0
2025/05/19 02:08:57.573597316,1747613337,573262973,mA1/imu,0.7653739620505591,-0.6435851776667586,-0.0008616156640123846,0.0002737172329154094,0.0,0.0,0.0,0.0,0.0,0.0,0.0,0.0,0.0,-0.0017226494055405056,-0.002122314842606788,0.0004626897061641985,0.0,0.0,0.0,0.0,0.0,0.0,0.0,0.0,0.0,0.0018732567597152978,0.5518777382705587,9.81130011278712,0.0,0.0,0.0,0.0,0.0,0.0,0.0,0.0,0.0
2025/05/19 02:08:57.630328105,1747613337,627497180,mA1/imu,0.7653665856079849,-0.6435938863263043,-0.0009116705250593576,0.00026072021959443203,0.0,0.0,0.0,0.0,0.0,0.0,0.0,0.0,0.0,-0.001680361425395578,-0.0016764387658362427,0.00045106293017357186,0.0,0.0,0.0,0.0,0.0,0.0,0.0,0.0,0.0,0.0016416660611710508,0.006682919507856544,9.812096084843658,0.0,0.0,0.0,0.0,0.0,0.0,0.0,0.0,0.0
2025/05/19 02:08:57.679247329,1747613337,679025443,mA1/imu,0.7653593984730317,-0.6436023809370105,-0.0009499310946923085,0.00025308521468672863,0.0,0.0,0.0,0.0,0.0,0.0,0.0,0.0,0.0,-4.474239079655392e-05,-0.001160233517078458,0.0004399796375628409,0.0,0.0,0.0,0.0,0.0,0.0,0.0,0.0,0.0,0.0014394093587738813,-0.5885151986073651,9.811339006365202,0.0,0.0,0.0,0.0,0.0,0.0,0.0,0.0,0.0
2025/05/19 02:08:57.731232620,1747613337,731014230,mA1/imu,0.7653523928834717,-0.643610668365827,-0.000978288731169043,0.00025539067266281795,0.0,0.0,0.0,0.0,0.0,0.0,0.0,0.0,0.0,-0.00014265407518461806,-0.0005773944873654432,0.00042990761702480494,0.0,0.0,0.0,0.0,0.0,0.0,0.0,0.0,0.0,0.001129974777783791,0.03352970192432006,9.810763033336961,0.0,0.0,0.0,0.0,0.0,0.0,0.0,0.0,0.0
2025/05/19 02:08:57.780065635,1747613337,779791780,mA1/imu,0.7653455584619898,-0.643618763810265,-0.0009956548456008236,0.0002677410681530048,0.0,0.0,0.0,0.0,0.0,0.0,0.0,0.0,0.0,-0.0007766981480092488,2.323978077040114e-05,0.00042018270219927926,0.0,0.0,0.0,0.0,0.0,0.0,0.0,0.0,0.0,0.0013076968507303999,-0.01745136220536435,9.810225540611537,0.0,0.0,0.0,0.0,0.0,0.0,0.0,0.0,0.0
2025/05/19 02:08:57.833222925,1747613337,832334055,mA1/imu,0.7653388890649578,-0.6436266797575736,-0.0009997696909732835,0.00028714042396606534,0.0,0.0,0.0,0.0,0.0,0.0,0.0,0.0,0.0,-0.0006462573623484387,0.0006021223291742202,0.00041127010852196673,0.0,0.0,0.0,0.0,0.0,0.0,0.0,0.0,0.0,0.0017062710860382396,-0.01650421299094012,9.812784532262125,0.0,0.0,0.0,0.0,0.0,0.0,0.0,0.0,0.0
2025/05/19 02:08:57.874494954,1747613337,873249644,mA1/imu,0.7653323709584814,-0.6436344329608047,-0.0009905436361994046,0.0003122396478148624,0.0,0.0,0.0,0.0,0.0,0.0,0.0,0.0,0.0,-0.00047995069567133687,0.001138163610622555,0.00040306720060246434,0.0,0.0,0.0,0.0,0.0,0.0,0.0,0.0,0.0,0.0019638776373016274,-0.01461211088237267,9.812212906442433,0.0,0.0,0.0,0.0,0.0,0.0,0.0,0.0,0.0
2025/05/19 02:08:57.924347782,1747613337,924111595,mA1/imu,0.7653261024270726,-0.6436419025926119,-0.0009698852977444528,0.00034277289573922317,0.0,0.0,0.0,0.0,0.0,0.0,0.0,0.0,0.0,0.0007323503038459803,0.0015898079984945342,0.00036078981305062116,0.0,0.0,0.0,0.0,0.0,0.0,0.0,0.0,0.0,0.002157628436290143,-0.4281869245119145,9.813665316601877,0.0,0.0,0.0,0.0,0.0,0.0,0.0,0.0,0.0
2025/05/19 02:08:57.982153223,1747613337,980061111,mA1/imu,0.7653216091882729,-0.6436472530828956,-0.000947604979379623,0.0003874959595364364,0.0,0.0,0.0,0.0,0.0,0.0,0.0,0.0,0.0,-0.0015634086142371736,0.0019689028076995195,0.0002620189686175544,0.0,0.0,0.0,0.0,0.0,0.0,0.0,0.0,0.0,0.0037805596727858576,-0.3074646140427604,9.810373145601693,0.0,0.0,0.0,0.0,0.0,0.0,0.0,0.0,0.0
2025/05/19 02:08:58.26197941,1747613338,23476543,mA1/imu,0.7653174915823747,-0.6436522039740226,-0.0008989606409701544,0.00041142096557842257,0.0,0.0,0.0,0.0,0.0,0.0,0.0,0.0,0.0,-0.0003531510408985402,0.002199313231226741,0.0002573820100067134,0.0,0.0,0.0,0.0,0.0,0.0,0.0,0.0,0.0,0.00398897612795731,0.02841660211526443,9.811140986801556,0.0,0.0,0.0,0.0,0.0,0.0,0.0,0.0,0.0
2025/05/19 02:08:58.73950631,1747613338,73422772,mA1/imu,0.7653134329543227,-0.6436570643518054,-0.0008555595287535006,0.00044818252726330614,0.0,0.0,0.0,0.0,0.0,0.0,0.0,0.0,0.0,0.0005381366910324394,0.0023068084369093195,0.00025396663494699353,0.0,0.0,0.0,0.0,0.0,0.0,0.0,0.0,0.0,0.00407830774656131,-0.2076789282387502,9.810436881004481,0.0,0.0,0.0,0.0,0.0,0.0,0.0,0.0,0.0
2025/05/19 02:08:58.130060477,1747613338,128840595,mA1/imu,0.765309434633032,-0.6436618629618139,-0.0008048994017184066,0.0004770399870886509,0.0,0.0,0.0,0.0,0.0,0.0,0.0,0.0,0.0,0.0005630737333747437,0.002260924368060866,0.00025022841654560315,0.0,0.0,0.0,0.0,0.0,0.0,0.0,0.0,0.0,0.00516114440318324,0.08887945198522545,9.808582911618789,0.0,0.0,0.0,0.0,0.0,0.0,0.0,0.0,0.0
2025/05/19 02:08:58.177847052,1747613338,176893119,mA1/imu,0.7653054896161001,-0.643666586065487,-0.0007593470196816943,0.0005068908817797009,0.0,0.0,0.0,0.0,0.0,0.0,0.0,0.0,0.0,-0.0002641858721782432,0.002087512079321977,0.00024655812879644185,0.0,0.0,0.0,0.0,0.0,0.0,0.0,0.0,0.0,0.005415543360908215,0.23273363931951663,9.808426731015485,0.0,0.0,0.0,0.0,0.0,0.0,0.0,0.0,0.0
2025/05/19 02:08:58.222329478,1747613338,221785452,mA1/imu,0.7653012789839055,-0.6436716293481068,-0.0007132500589833381,0.0005265285415317854,0.0,0.0,0.0,0.0,0.0,0.0,0.0,0.0,0.0,0.0011285976782098052,0.0018330670734378915,0.0003442350037845515,0.0,0.0,0.0,0.0,0.0,0.0,0.0,0.0,0.0,-0.0068769452260071095,-0.6004956739087384,9.809161772441268,0.0,0.0,0.0,0.0,0.0,0.0,0.0,0.0,0.0
2025/05/19 02:08:58.274502039,1747613338,274376443,mA1/imu,0.7652915646480913,-0.6436832189901576,-0.0006659905041791328,0.000539560555880421,0.0,0.0,0.0,0.0,0.0,0.0,0.0,0.0,0.0,0.0011686641508419644,0.0015952571460646986,0.0007067539021681734,0.0,0.0,0.0,0.0,0.0,0.0,0.0,0.0,0.0,0.012778120516425469,0.010697845015198014,9.809861917931144,0.0,0.0,0.0,0.0,0.0,0.0,0.0,0.0,0.0
2025/05/19 02:08:58.329775120,1747613338,327457125,mA1/imu,0.7652783603722386,-0.6436989505328076,-0.0006286635580738644,0.0005449872211856205,0.0,0.0,0.0,0.0,0.0,0.0,0.0,0.0,0.0,0.0004010794910956053,0.0012850441484697505,0.0010295209605705403,0.0,0.0,0.0,0.0,0.0,0.0,0.0,0.0,0.0,-0.04113685008141452,0.5979591203230964,9.808820158487867,0.0,0.0,0.0,0.0,0.0,0.0,0.0,0.0,0.0
2025/05/19 02:08:58.380863832,1747613338,380630862,mA1/imu,0.7652532275421399,-0.6437288653818759,-0.0005827525432999829,0.0005531816827357712,0.0,0.0,0.0,0.0,0.0,0.0,0.0,0.0,0.0,0.0006672757043705062,0.0014811058223766474,0.0017244261075896328,0.0,0.0,0.0,0.0,0.0,0.0,0.0,0.0,0.0,0.013193553424605597,-0.03479114350586488,9.806854030660917,0.0,0.0,0.0,0.0,0.0,0.0,0.0,0.0,0.0
2025/05/19 02:08:58.436675248,1747613338,431468546,mA1/imu,0.7652243583074722,-0.6437632165327681,-0.0005487189244096837,0.000548998947127598,0.0,0.0,0.0,0.0,0.0,0.0,0.0,0.0,0.0,0.0007559033074033148,0.0006442630022028247,0.0018906229537425528,0.0,0.0,0.0,0.0,0.0,0.0,0.0,0.0,0.0,-0.002139229560918527,-0.02875617309778422,9.81077033064268,0.0,0.0,0.0,0.0,0.0,0.0,0.0,0.0,0.0
2025/05/19 02:08:58.472838040,1747613338,472573390,mA1/imu,0.765190325897111,-0.6438037103830979,-0.0005190318579194518,0.0005275001041395573,0.0,0.0,0.0,0.0,0.0,0.0,0.0,0.0,0.0,0.002397037050676621,2.6237186583153506e-05,0.0021905993674734173,0.0,0.0,0.0,0.0,0.0,0.0,0.0,0.0,0.0,0.015521033862093535,-0.554723597996978,9.808908877599759,0.0,0.0,0.0,0.0,0.0,0.0,0.0,0.0,0.0
2025/05/19 02:08:58.525429816,1747613338,524897140,mA1/imu,0.7651542143545399,-0.643846654789978,-0.0005132711706925902,0.0004999239414758916,0.0,0.0,0.0,0.0,0.0,0.0,0.0,0.0,0.0,0.0005048809693113412,-0.0009164291608543615,0.0022753244018579753,0.0,0.0,0.0,0.0,0.0,0.0,0.0,0.0,0.0,0.01400203910289082,0.5811829157534789,9.808527607062963,0.0,0.0,0.0,0.0,0.0,0.0,0.0,0.0,0.0
2025/05/19 02:08:58.578147750,1747613338,577615134,mA1/imu,0.7651168115783161,-0.6438911197370488,-0.0005276934844706265,0.0004605470522427165,0.0,0.0,0.0,0.0,0.0,0.0,0.0,0.0,0.0,0.00030358198280186656,-0.001788074371361141,0.0023569995088397024,0.0,0.0,0.0,0.0,0.0,0.0,0.0,0.0,0.0,0.012936084136120504,0.04175509692641406,9.807859920491452,0.0,0.0,0.0,0.0,0.0,0.0,0.0,0.0,0.0
2025/05/19 02:08:58.635105717,1747613338,633952950,mA1/imu,0.7650781975628349,-0.6439370130140196,-0.0005565966606482675,0.0004063062187653703,0.0,0.0,0.0,0.0,0.0,0.0,0.0,0.0,0.0,0.0015519672493185701,-0.0025782985702746727,0.0024250208168634497,0.0,0.0,0.0,0.0,0.0,0.0,0.0,0.0,0.0,0.013614248560789728,-0.48166783499031635,9.81047183156227,0.0,0.0,0.0,0.0,0.0,0.0,0.0,0.0,0.0
2025/05/19 02:08:58.672806224,1747613338,672510182,mA1/imu,0.7650385176818577,-0.6439841514935818,-0.0006006493931320395,0.00034396009084607397,0.0,0.0,0.0,0.0,0.0,0.0,0.0,0.0,0.0,0.0012003052753074908,-0.0031893899260162415,0.002484367186539605,0.0,0.0,0.0,0.0,0.0,0.0,0.0,0.0,0.0,0.013510007300915394,0.06280305770571294,9.811047944329728,0.0,0.0,0.0,0.0,0.0,0.0,0.0,0.0,0.0
2025/05/19 02:08:58.731974180,1747613338,728890088,mA1/imu,0.764997800204924,-0.644032485408302,-0.0006642789582884677,0.00028662501284143873,0.0,0.0,0.0,0.0,0.0,0.0,0.0,0.0,0.0,0.00017699609491495985,-0.0035713655588642448,0.002547473063336461,0.0,0.0,0.0,0.0,0.0,0.0,0.0,0.0,0.0,0.0103934174780855,0.09655572852369212,9.810031929083179,0.0,0.0,0.0,0.0,0.0,0.0,0.0,0.0,0.0
2025/05/19 02:08:58.784321551,1747613338,783017997,mA1/imu,0.7649563076291199,-0.6440817187333593,-0.0007324307689635472,0.00022484900253870254,0.0,0.0,0.0,0.0,0.0,0.0,0.0,0.0,0.0,-5.550539543934199e-05,-0.0037184919022262494,0.0025896211831704513,0.0,0.0,0.0,0.0,0.0,0.0,0.0,0.0,0.0,0.009851737181559522,-0.014349430554166168,9.81043512774185,0.0,0.0,0.0,0.0,0.0,0.0,0.0,0.0,0.0
2025/05/19 02:08:58.828949940,1747613338,826398787,mA1/imu,0.7649142726676489,-0.6441315646280081,-0.0008083296696191986,0.0001718206654674685,0.0,0.0,0.0,0.0,0.0,0.0,0.0,0.0,0.0,-0.00043186576884967975,-0.0036455610325295436,0.0026178469450198524,0.0,0.0,0.0,0.0,0.0,0.0,0.0,0.0,0.0,0.00888208945893669,-0.022729653572899897,9.811215645598285,0.0,0.0,0.0,0.0,0.0,0.0,0.0,0.0,0.0
2025/05/19 02:08:58.880517488,1747613338,878696413,mA1/imu,0.7648716659688365,-0.6441820724556593,-0.0008814189251911614,0.00012339151721888728,0.0,0.0,0.0,0.0,0.0,0.0,0.0,0.0,0.0,-0.0014824022578669635,-0.0033357181306253587,0.002665813584413934,0.0,0.0,0.0,0.0,0.0,0.0,0.0,0.0,0.0,0.008137341739574842,0.5526041373401354,9.81080368143672,0.0,0.0,0.0,0.0,0.0,0.0,0.0,0.0,0.0
2025/05/19 02:08:58.931521485,1747613338,930694013,mA1/imu,0.7648282762589094,-0.6442334904026701,-0.0009537698190389319,8.945138785756572e-05,0.0,0.0,0.0,0.0,0.0,0.0,0.0,0.0,0.0,-0.0014965646129291691,-0.0028490776507817447,0.0026746917347556026,0.0,0.0,0.0,0.0,0.0,0.0,0.0,0.0,0.0,0.0002655432298494433,-0.07099790734258582,9.813285495370815,0.0,0.0,0.0,0.0,0.0,0.0,0.0,0.0,0.0
2025/05/19 02:08:58.974129089,1747613338,973009787,mA1/imu,0.7647867034171969,-0.6442827586855842,-0.0010103505861332582,6.579090349659696e-05,0.0,0.0,0.0,0.0,0.0,0.0,0.0,0.0,0.0,-0.00013316563278208685,-0.0020014643145088618,0.002512664650512284,0.0,0.0,0.0,0.0,0.0,0.0,0.0,0.0,0.0,0.00020581490507725828,-0.5895539598056833,9.812250776932279,0.0,0.0,0.0,0.0,0.0,0.0,0.0,0.0,0.0
2025/05/19 02:08:59.24849985,1747613339,24316015,mA1/imu,0.7647477730399153,-0.644328900317176,-0.0010526699075871638,6.109512854861018e-05,0.0,0.0,0.0,0.0,0.0,0.0,0.0,0.0,0.0,-0.00041929665498041685,-0.0010318018124498216,0.0023438200594265127,0.0,0.0,0.0,0.0,0.0,0.0,0.0,0.0,0.0,-0.0011708574567609441,0.0364304544870183,9.81014128096991,0.0,0.0,0.0,0.0,0.0,0.0,0.0,0.0,0.0
2025/05/19 02:08:59.80618326,1747613339,79527915,mA1/imu,0.764711749242554,-0.6443716032505576,-0.0010822236119101135,7.928904840771302e-05,0.0,0.0,0.0,0.0,0.0,0.0,0.0,0.0,0.0,-0.002054819808427455,-2.7154087628473994e-05,0.00216326850923218,0.0,0.0,0.0,0.0,0.0,0.0,0.0,0.0,0.0,-0.000430451654638498,0.5582672728814358,9.810374446863234,0.0,0.0,0.0,0.0,0.0,0.0,0.0,0.0,0.0
2025/05/19 02:08:59.130996245,1747613339,130687125,mA1/imu,0.7646784546499161,-0.6444110912204535,-0.0010922492659376248,0.00011618012573562971,0.0,0.0,0.0,0.0,0.0,0.0,0.0,0.0,0.0,-0.0019879955193218795,0.0012352586472429564,0.002051273645242305,0.0,0.0,0.0,0.0,0.0,0.0,0.0,0.0,0.0,-0.025030348352050164,-0.07165333804079137,9.812319995005431,0.0,0.0,0.0,0.0,0.0,0.0,0.0,0.0,0.0
2025/05/19 02:08:59.171995864,1747613339,171559525,mA1/imu,0.7646439878194979,-0.6444520180693691,-0.0010668612752004903,0.00017350744196830716,0.0,0.0,0.0,0.0,0.0,0.0,0.0,0.0,0.0,-0.0004115797856882181,0.0028960042263283386,0.0022085067790855064,0.0,0.0,0.0,0.0,0.0,0.0,0.0,0.0,0.0,-0.024058902173679182,-0.5901934068241178,9.811308103321362,0.0,0.0,0.0,0.0,0.0,0.0,0.0,0.0,0.0
2025/05/19 02:08:59.224813774,1747613339,224174884,mA1/imu,0.7646072806124455,-0.6444956302984542,-0.0010118164042542737,0.0002553198057117847,0.0,0.0,0.0,0.0,0.0,0.0,0.0,0.0,0.0,-0.00046030921885741987,0.004349343224113938,0.002328528190614611,0.0,0.0,0.0,0.0,0.0,0.0,0.0,0.0,0.0,-0.022200838844649153,0.039299279718373326,9.809074254776805,0.0,0.0,0.0,0.0,0.0,0.0,0.0,0.0,0.0
2025/05/19 02:08:59.279653862,1747613339,278887251,mA1/imu,0.7645689614543997,-0.6445411510164609,-0.0009361532293684029,0.00036255213107274053,0.0,0.0,0.0,0.0,0.0,0.0,0.0,0.0,0.0,-0.0019686937710424028,0.005521073492730102,0.0024191577320218528,0.0,0.0,0.0,0.0,0.0,0.0,0.0,0.0,0.0,-0.020402862349942964,0.5533879209496702,9.809654689442624,0.0,0.0,0.0,0.0,0.0,0.0,0.0,0.0,0.0
2025/05/19 02:08:59.323517763,1747613339,323241809,mA1/imu,0.7645313754285639,-0.6445857871103169,-0.0008439940882952544,0.00047614562968966123,0.0,0.0,0.0,0.0,0.0,0.0,0.0,0.0,0.0,-0.0015643042434659348,0.005792192922759884,0.002271721045616775,0.0,0.0,0.0,0.0,0.0,0.0,0.0,0.0,0.0,0.004027696866259425,-0.06169659026592256,9.811324821792445,0.0,0.0,0.0,0.0,0.0,0.0,0.0,0.0,0.0
2025/05/19 02:08:59.376686182,1747613339,376249338,mA1/imu,0.7644966402667042,-0.6446270255584319,-0.0007427539405906633,0.0005772843269054586,0.0,0.0,0.0,0.0,0.0,0.0,0.0,0.0,0.0,0.0003248640838711771,0.0056005932267455,0.002103579552557867,0.0,0.0,0.0,0.0,0.0,0.0,0.0,0.0,0.0,0.0010744514626136298,-0.5808833084219335,9.810006618905776,0.0,0.0,0.0,0.0,0.0,0.0,0.0,0.0,0.0
2025/05/19 02:08:59.433057603,1747613339,428359882,mA1/imu,0.7644640730133204,-0.6446656686445893,-0.0006423892372864807,0.0006663925098660302,0.0,0.0,0.0,0.0,0.0,0.0,0.0,0.0,0.0,0.0005710703802317941,0.005139712957483076,0.0019867099936535073,0.0,0.0,0.0,0.0,0.0,0.0,0.0,0.0,0.0,0.0035181538462068715,0.04764139096807835,9.807538675613722,0.0,0.0,0.0,0.0,0.0,0.0,0.0,0.0,0.0
2025/05/19 02:08:59.483352390,1747613339,481172214,mA1/imu,0.7644304091624958,-0.6447055803395659,-0.0005524468820367693,0.0007476825030317478,0.0,0.0,0.0,0.0,0.0,0.0,0.0,0.0,0.0,-0.0007414807055523595,0.004678334728673934,0.0021997084532544018,0.0,0.0,0.0,0.0,0.0,0.0,0.0,0.0,0.0,-0.009656159325512483,0.5612528707223651,9.808078599659526,0.0,0.0,0.0,0.0,0.0,0.0,0.0,0.0,0.0
2025/05/19 02:08:59.526339172,1747613339,526059950,mA1/imu,0.764393475421763,-0.6447493572540295,-0.00047085260601245583,0.0008120042968272888,0.0,0.0,0.0,0.0,0.0,0.0,0.0,0.0,0.0,-0.00032400874151090333,0.003684557938481259,0.002283925463079005,0.0,0.0,0.0,0.0,0.0,0.0,0.0,0.0,0.0,0.008967518662972905,-0.05911032514945962,9.810137776577701,0.0,0.0,0.0,0.0,0.0,0.0,0.0,0.0,0.0
2025/05/19 02:08:59.578397799,1747613339,578101830,mA1/imu,0.7643573373218884,-0.6447922035305693,-0.00040371200184232086,0.0008438986936124915,0.0,0.0,0.0,0.0,0.0,0.0,0.0,0.0,0.0,0.0015576248270384725,0.002298284442288326,0.002219608750523417,0.0,0.0,0.0,0.0,0.0,0.0,0.0,0.0,0.0,0.008479737667294509,-0.5782444733375599,9.809261166929877,0.0,0.0,0.0,0.0,0.0,0.0,0.0,0.0,0.0
2025/05/19 02:08:59.626135158,1747613339,623925893,mA1/imu,0.7643222499008541,-0.6448338159252378,-0.00036001101733888026,0.0008476661254412313,0.0,0.0,0.0,0.0,0.0,0.0,0.0,0.0,0.0,0.0016992377109512815,0.000831534868129303,0.002152213916352979,0.0,0.0,0.0,0.0,0.0,0.0,0.0,0.0,0.0,0.006657174757400337,0.04619844497353619,9.807134136873735,0.0,0.0,0.0,0.0,0.0,0.0,0.0,0.0,0.0
2025/05/19 02:08:59.676430434,1747613339,675874300,mA1/imu,0.7642882180586991,-0.644874183967489,-0.00034619177481574193,0.0008286978814488536,0.0,0.0,0.0,0.0,0.0,0.0,0.0,0.0,0.0,0.0003356895332078301,-0.0006551207683974924,0.002084368278279665,0.0,0.0,0.0,0.0,0.0,0.0,0.0,0.0,0.0,0.006922469923645174,0.5649909509700591,9.807883297910344,0.0,0.0,0.0,0.0,0.0,0.0,0.0,0.0,0.0
2025/05/19 02:08:59.726606756,1747613339,726235655,mA1/imu,0.764255238279105,-0.6449133212901487,-0.0003569815989506429,0.00078188848058351,0.0,0.0,0.0,0.0,0.0,0.0,0.0,0.0,0.0,0.000631574218481181,-0.002100346620886437,0.00201962630845795,0.0,0.0,0.0,0.0,0.0,0.0,0.0,0.0,0.0,0.007357545253896086,-0.05939375836477189,9.810580074456869,0.0,0.0,0.0,0.0,0.0,0.0,0.0,0.0,0.0
2025/05/19 02:08:59.779555515,1747613339,778645514,mA1/imu,0.7642233153068448,-0.644951221742738,-0.00038626223744549546,0.0007047804254064903,0.0,0.0,0.0,0.0,0.0,0.0,0.0,0.0,0.0,0.0023238419048969847,-0.0033932428931858845,0.0019553198076879084,0.0,0.0,0.0,0.0,0.0,0.0,0.0,0.0,0.0,0.006252274181162583,-0.5780104876154275,9.809864799942783,0.0,0.0,0.0,0.0,0.0,0.0,0.0,0.0,0.0
2025/05/19 02:08:59.835568886,1747613339,831641313,mA1/imu,0.7641924156412535,-0.6449878998652394,-0.0004365303206987578,0.0006085598513462374,0.0,0.0,0.0,0.0,0.0,0.0,0.0,0.0,0.0,0.002239843326202523,-0.004413557880066479,0.0018905892280274574,0.0,0.0,0.0,0.0,0.0,0.0,0.0,0.0,0.0,0.003426351232573634,0.04680908859078636,9.808191002903538,0.0,0.0,0.0,0.0,0.0,0.0,0.0,0.0,0.0
2025/05/19 02:08:59.874380863,1747613339,872070944,mA1/imu,0.7641624789887168,-0.6450234048320267,-0.000508489756152719,0.0005043440156265864,0.0,0.0,0.0,0.0,0.0,0.0,0.0,0.0,0.0,0.0006285933275962871,-0.005157275640159589,0.0018287416467644062,0.0,0.0,0.0,0.0,0.0,0.0,0.0,0.0,0.0,0.003295717648629231,0.565574079748669,9.80923378607624,0.0,0.0,0.0,0.0,0.0,0.0,0.0,0.0,0.0
2025/05/19 02:08:59.924652450,1747613339,924175603,mA1/imu,0.764133454537589,-0.6450577957968211,-0.0005918142126865446,0.0003917832755985407,0.0,0.0,0.0,0.0,0.0,0.0,0.0,0.0,0.0,0.000666532550959625,-0.005594477797387492,0.001773366477717837,0.0,0.0,0.0,0.0,0.0,0.0,0.0,0.0,0.0,0.0017410381379729138,-0.058736643266267784,9.81194767562854,0.0,0.0,0.0,0.0,0.0,0.0,0.0,0.0,0.0
2025/05/19 02:08:59.976495431,1747613339,975804438,mA1/imu,0.7641053120439718,-0.6450911129781972,-0.0006747504143858841,0.00026976770244401,0.0,0.0,0.0,0.0,0.0,0.0,0.0,0.0,0.0,0.002347754853793839,-0.005707915107329421,0.0017200355598003263,0.0,0.0,0.0,0.0,0.0,0.0,0.0,0.0,0.0,0.0008520483411447724,-0.5607904069708347,9.811100361665932,0.0,0.0,0.0,0.0,0.0,0.0,0.0,0.0,0.0
2025/05/19 02:09:00.32488808,1747613340,31516535,mA1/imu,0.7640780103446352,-0.6451233908094501,-0.0007616058102304362,0.00015714608118930418,0.0,0.0,0.0,0.0,0.0,0.0,0.0,0.0,0.0,0.0017861592087726674,-0.00543768353616969,0.001666512773757607,0.0,0.0,0.0,0.0,0.0,0.0,0.0,0.0,0.0,-0.0013674331956811114,0.048221730583823876,9.809536274844634,0.0,0.0,0.0,0.0,0.0,0.0,0.0,0.0,0.0
2025/05/19 02:09:00.80502707,1747613340,80180453,mA1/imu,0.7640515395310989,-0.6451546507272259,-0.0008473426563620694,5.9963416105885434e-05,0.0,0.0,0.0,0.0,0.0,0.0,0.0,0.0,0.0,0.0003476037481074531,-0.00487060420962239,0.0016129213293197117,0.0,0.0,0.0,0.0,0.0,0.0,0.0,0.0,0.0,-0.0022126539848541307,-0.03278200378538926,9.809584189515757,0.0,0.0,0.0,0.0,0.0,0.0,0.0,0.0,0.0
2025/05/19 02:09:00.124274070,1747613340,124027712,mA1/imu,0.7640259268320476,-0.6451848864299445,-0.0009191018260614071,-2.6507419060637966e-05,0.0,0.0,0.0,0.0,0.0,0.0,0.0,0.0,0.0,0.0015944694337579252,-0.004099150978174066,0.0015581718987211482,0.0,0.0,0.0,0.0,0.0,0.0,0.0,0.0,0.0,-0.0001763947941268492,-0.5619046770143602,9.810764847754818,0.0,0.0,0.0,0.0,0.0,0.0,0.0,0.0,0.0
2025/05/19 02:09:00.187335791,1747613340,184456699,mA1/imu,0.7640011028857713,-0.6452141864448514,-0.000979901048632123,-9.051833184592925e-05,0.0,0.0,0.0,0.0,0.0,0.0,0.0,0.0,0.0,-0.00030077698701709983,-0.0031050516567977782,0.0015211252031221009,0.0,0.0,0.0,0.0,0.0,0.0,0.0,0.0,0.0,0.0010984842668209146,0.12853834541551856,9.811536796568843,0.0,0.0,0.0,0.0,0.0,0.0,0.0,0.0,0.0
2025/05/19 02:09:00.236025682,1747613340,233522366,mA1/imu,0.7639772206045191,-0.6452423841451479,-0.0010271588042040434,-0.00013055600444880524,0.0,0.0,0.0,0.0,0.0,0.0,0.0,0.0,0.0,-0.000799625196501983,-0.0020613169026602106,0.0014264497574784458,0.0,0.0,0.0,0.0,0.0,0.0,0.0,0.0,0.0,0.004114156674111441,-0.05703620675385013,9.811534136249113,0.0,0.0,0.0,0.0,0.0,0.0,0.0,0.0,0.0
2025/05/19 02:09:00.275083448,1747613340,274393300,mA1/imu,0.7639548494480377,-0.6452688229995613,-0.0010541127866674307,-0.0001513797202893794,0.0,0.0,0.0,0.0,0.0,0.0,0.0,0.0,0.0,-0.00017569998861011106,-0.0008732066385024385,0.0013718873492813356,0.0,0.0,0.0,0.0,0.0,0.0,0.0,0.0,0.0,0.0005170395901856611,-0.28869244091747204,9.809496466294192,0.0,0.0,0.0,0.0,0.0,0.0,0.0,0.0,0.0
2025/05/19 02:09:00.332133025,1747613340,330673755,mA1/imu,0.7639330852426495,-0.6452945775803745,-0.0010618717369577989,-0.00014780198611399957,0.0,0.0,0.0,0.0,0.0,0.0,0.0,0.0,0.0,-0.0006204136570420366,0.00034041489772450176,0.001335573525561971,0.0,0.0,0.0,0.0,0.0,0.0,0.0,0.0,0.0,0.0007504874166365874,0.208026890354743,9.812531963001106,0.0,0.0,0.0,0.0,0.0,0.0,0.0,0.0,0.0
2025/05/19 02:09:00.374744501,1747613340,374110378,mA1/imu,0.7639118814213608,-0.6453196973375294,-0.001054684993920015,-0.00011528677229588445,0.0,0.0,0.0,0.0,0.0,0.0,0.0,0.0,0.0,-0.0012265481059667706,0.0015132282581732342,0.0012987964471959624,0.0,0.0,0.0,0.0,0.0,0.0,0.0,0.0,0.0,0.0034464242631110954,0.5994794889336824,9.812046871215303,0.0,0.0,0.0,0.0,0.0,0.0,0.0,0.0,0.0
2025/05/19 02:09:00.429961161,1747613340,429629019,mA1/imu,0.7638914999120598,-0.6453438711489213,-0.0010298371012509595,-6.138544649983782e-05,0.0,0.0,0.0,0.0,0.0,0.0,0.0,0.0,0.0,-0.002452023337315187,0.002559975033926171,0.0012461455800666411,0.0,0.0,0.0,0.0,0.0,0.0,0.0,0.0,0.0,0.004766778026377108,0.5307348209218677,9.810734227817004,0.0,0.0,0.0,0.0,0.0,0.0,0.0,0.0,0.0
2025/05/19 02:09:00.481879940,1747613340,479745502,mA1/imu,0.7638717549461745,-0.6453673127102003,-0.0009867247316534904,7.414181491916623e-06,0.0,0.0,0.0,0.0,0.0,0.0,0.0,0.0,0.0,-0.00038538457970314693,0.003432071936222994,0.0012155806604328915,0.0,0.0,0.0,0.0,0.0,0.0,0.0,0.0,0.0,0.0037393657472706825,-0.17971717022910852,9.810570710392872,0.0,0.0,0.0,0.0,0.0,0.0,0.0,0.0,0.0
2025/05/19 02:09:00.530577660,1747613340,529183393,mA1/imu,0.7638511167732496,-0.6453918083485324,-0.0009353771287856273,0.00010094799503079115,0.0,0.0,0.0,0.0,0.0,0.0,0.0,0.0,0.0,-0.0012720497396005472,0.004381064512958093,0.001397788191691915,0.0,0.0,0.0,0.0,0.0,0.0,0.0,0.0,0.0,-0.007150226417199611,0.001691907834766141,9.80916292584655,0.0,0.0,0.0,0.0,0.0,0.0,0.0,0.0,0.0
2025/05/19 02:09:00.587906474,1747613340,586979155,mA1/imu,0.7638281729437669,-0.6454190324782199,-0.0008675253201550471,0.0002052610151294187,0.0,0.0,0.0,0.0,0.0,0.0,0.0,0.0,0.0,-0.001985126688002875,0.0049037026818160795,0.0014076497720625712,0.0,0.0,0.0,0.0,0.0,0.0,0.0,0.0,0.0,0.006589659222987007,-0.2702185262000862,9.80983904885981,0.0,0.0,0.0,0.0,0.0,0.0,0.0,0.0,0.0
2025/05/19 02:09:00.633113645,1747613340,631699190,mA1/imu,0.7638058076707325,-0.6454455588519638,-0.0007904658198235422,0.00030641560640498405,0.0,0.0,0.0,0.0,0.0,0.0,0.0,0.0,0.0,-0.0020853401763926967,0.004984883626811421,0.001371240069924452,0.0,0.0,0.0,0.0,0.0,0.0,0.0,0.0,0.0,0.0075951544674100775,0.5802892356629556,9.808882955180213,0.0,0.0,0.0,0.0,0.0,0.0,0.0,0.0,0.0
2025/05/19 02:09:00.674196053,1747613340,673917656,mA1/imu,0.7637843008767488,-0.6454710407902202,-0.0007153770688263724,0.0004067813361117659,0.0,0.0,0.0,0.0,0.0,0.0,0.0,0.0,0.0,-0.0011018136073606484,0.004803208250926061,0.0013127441025728916,0.0,0.0,0.0,0.0,0.0,0.0,0.0,0.0,0.0,0.006989655258245239,0.6427979503316463,9.809383467731191,0.0,0.0,0.0,0.0,0.0,0.0,0.0,0.0,0.0
2025/05/19 02:09:00.723709502,1747613340,723307559,mA1/imu,0.7637635574186239,-0.645495581485525,-0.000652511109737535,0.0005068245891676805,0.0,0.0,0.0,0.0,0.0,0.0,0.0,0.0,0.0,-0.00048312350617752434,0.004274332818910718,0.0012720844918759331,0.0,0.0,0.0,0.0,0.0,0.0,0.0,0.0,0.0,0.00976402150248296,0.048304618626294,9.808666312351024,0.0,0.0,0.0,0.0,0.0,0.0,0.0,0.0,0.0
2025/05/19 02:09:00.778457276,1747613340,778107255,mA1/imu,0.7637435114378109,-0.6455192783728259,-0.0005989497771598455,0.0005926591203315606,0.0,0.0,0.0,0.0,0.0,0.0,0.0,0.0,0.0,-0.0007698147185580242,0.0035195227427569646,0.001232371785392477,0.0,0.0,0.0,0.0,0.0,0.0,0.0,0.0,0.0,0.010105301464359284,0.008520171022547728,9.808193674545425,0.0,0.0,0.0,0.0,0.0,0.0,0.0,0.0,0.0
2025/05/19 02:09:00.832935467,1747613340,828695964,mA1/imu,0.7637240295284803,-0.6455423039309756,-0.0005557305844487808,0.0006570538686743277,0.0,0.0,0.0,0.0,0.0,0.0,0.0,0.0,0.0,-0.0006345889158179328,0.002599763992310856,0.0011948365095715862,0.0,0.0,0.0,0.0,0.0,0.0,0.0,0.0,0.0,0.010905890411477314,-0.31352067661864574,9.807091720914354,0.0,0.0,0.0,0.0,0.0,0.0,0.0,0.0,0.0
2025/05/19 02:09:00.873996891,1747613340,872032775,mA1/imu,0.7637050187461929,-0.6455647714795704,-0.0005282202493343438,0.000700820786832791,0.0,0.0,0.0,0.0,0.0,0.0,0.0,0.0,0.0,-0.0013065724880949102,0.0015394179478115952,0.0011607781758068382,0.0,0.0,0.0,0.0,0.0,0.0,0.0,0.0,0.0,0.011634695169332396,-0.0569788067023195,9.809019998179796,0.0,0.0,0.0,0.0,0.0,0.0,0.0,0.0,0.0
2025/05/19 02:09:00.929874293,1747613340,929298945,mA1/imu,0.7636865073994398,-0.6455866580254693,-0.000516437727687913,0.0007201997116349518,0.0,0.0,0.0,0.0,0.0,0.0,0.0,0.0,0.0,-0.0010520112785970908,0.00040824343181772955,0.001127262531063136,0.0,0.0,0.0,0.0,0.0,0.0,0.0,0.0,0.0,0.009053659548117612,-0.06488870194264773,9.812442546147972,0.0,0.0,0.0,0.0,0.0,0.0,0.0,0.0,0.0
2025/05/19 02:09:00.976133839,1747613340,975461528,mA1/imu,0.7636670420238966,-0.6456096906012493,-0.0005158009399632672,0.0007143371903541444,0.0,0.0,0.0,0.0,0.0,0.0,0.0,0.0,0.0,0.00016400264820746953,-0.0004919816401331915,0.0012594938095811987,0.0,0.0,0.0,0.0,0.0,0.0,0.0,0.0,0.0,0.006475505485116301,-0.21583539644571287,9.808915225069335,0.0,0.0,0.0,0.0,0.0,0.0,0.0,0.0,0.0
2025/05/19 02:09:01.25579901,1747613341,24910088,mA1/imu,0.7636471021782205,-0.6456332857849374,-0.0005342903672979564,0.0006914876394038172,0.0,0.0,0.0,0.0,0.0,0.0,0.0,0.0,0.0,0.0007481492222572496,-0.0015847602147327196,0.0012183176989254787,0.0,0.0,0.0,0.0,0.0,0.0,0.0,0.0,0.0,0.009966741105900125,-0.27108248624230746,9.80913390470941,0.0,0.0,0.0,0.0,0.0,0.0,0.0,0.0,0.0
2025/05/19 02:09:01.76843232,1747613341,76547607,mA1/imu,0.763627949959793,-0.6456559598379991,-0.0005653149012475491,0.0006449689438113847,0.0,0.0,0.0,0.0,0.0,0.0,0.0,0.0,0.0,0.0017328203687482714,-0.002508385702325712,0.001163028375271821,0.0,0.0,0.0,0.0,0.0,0.0,0.0,0.0,0.0,0.007017647822744589,-0.5580736770393321,9.81110250534313,0.0,0.0,0.0,0.0,0.0,0.0,0.0,0.0,0.0
2025/05/19 02:09:01.131852786,1747613341,129765567,mA1/imu,0.763608790993232,-0.6456786379812858,-0.0006084714815590538,0.0005835537186215848,0.0,0.0,0.0,0.0,0.0,0.0,0.0,0.0,0.0,0.00041284847297855525,-0.003122327377652588,0.0012590937255848725,0.0,0.0,0.0,0.0,0.0,0.0,0.0,0.0,0.0,-0.0004829961331539903,-0.0343827738665935,9.812752664546815,0.0,0.0,0.0,0.0,0.0,0.0,0.0,0.0,0.0
2025/05/19 02:09:01.178907711,1747613341,177697162,mA1/imu,0.763586224633235,-0.6457053445541495,-0.000654199887760594,0.0005075303704370584,0.0,0.0,0.0,0.0,0.0,0.0,0.0,0.0,0.0,0.0017705830777815313,-0.003498526761508985,0.0014795185293701003,0.0,0.0,0.0,0.0,0.0,0.0,0.0,0.0,0.0,0.0009671800584567783,-0.5817463694833165,9.809713469681792,0.0,0.0,0.0,0.0,0.0,0.0,0.0,0.0,0.0
2025/05/19 02:09:01.228332380,1747613341,227990964,mA1/imu,0.7635601307907077,-0.6457362172790105,-0.0006987105405203008,0.0004197197308782074,0.0,0.0,0.0,0.0,0.0,0.0,0.0,0.0,0.0,0.0022025496034978366,-0.0036639343874357503,0.0017312917051158158,0.0,0.0,0.0,0.0,0.0,0.0,0.0,0.0,0.0,-0.005794434969892652,0.07455589914245468,9.812923429134807,0.0,0.0,0.0,0.0,0.0,0.0,0.0,0.0,0.0
2025/05/19 02:09:01.278856738,1747613341,278476789,mA1/imu,0.763526766617704,-0.6457756615357853,-0.000745714759681111,0.00033990561908892796,0.0,0.0,0.0,0.0,0.0,0.0,0.0,0.0,0.0,0.001962908571082272,-0.0032806416293053916,0.0023530251946695425,0.0,0.0,0.0,0.0,0.0,0.0,0.0,0.0,0.0,-0.020901501438647847,-0.09572001960353516,9.80881360433463,0.0,0.0,0.0,0.0,0.0,0.0,0.0,0.0,0.0
2025/05/19 02:09:01.328768996,1747613341,328483128,mA1/imu,0.7634864363476281,-0.6458233409866635,-0.0007798980139123268,0.00025594747710070917,0.0,0.0,0.0,0.0,0.0,0.0,0.0,0.0,0.0,0.002034247386243735,-0.003189371286168147,0.0025797011303332305,0.0,0.0,0.0,0.0,0.0,0.0,0.0,0.0,0.0,0.0044652457176396175,-0.4583238673457248,9.811107265983285,0.0,0.0,0.0,0.0,0.0,0.0,0.0,0.0,0.0
2025/05/19 02:09:01.379554474,1747613341,378779479,mA1/imu,0.763441710251511,-0.6458762003939041,-0.0008114764199553912,0.00017412352268911339,0.0,0.0,0.0,0.0,0.0,0.0,0.0,0.0,0.0,0.0020339900467713115,-0.0030188518068056777,0.0028825730879864456,0.0,0.0,0.0,0.0,0.0,0.0,0.0,0.0,0.0,0.0071606297697267346,0.03399996832798077,9.81188562623989,0.0,0.0,0.0,0.0,0.0,0.0,0.0,0.0,0.0
2025/05/19 02:09:01.428860545,1747613341,427301294,mA1/imu,0.7633931893239048,-0.6459335265444989,-0.0008413706674842755,9.937335579451845e-05,0.0,0.0,0.0,0.0,0.0,0.0,0.0,0.0,0.0,0.0016585078476382955,-0.0027126948081577437,0.0030813346867833635,0.0,0.0,0.0,0.0,0.0,0.0,0.0,0.0,0.0,0.006547019893389072,0.15821244575951665,9.810228349357226,0.0,0.0,0.0,0.0,0.0,0.0,0.0,0.0,0.0
2025/05/19 02:09:01.479135234,1747613341,474945167,mA1/imu,0.7633413319573046,-0.645994775265202,-0.0008716237750398042,3.908585387540426e-05,0.0,0.0,0.0,0.0,0.0,0.0,0.0,0.0,0.0,0.0006383981310664556,-0.0023055157942977883,0.003290023851130197,0.0,0.0,0.0,0.0,0.0,0.0,0.0,0.0,0.0,0.006098269376351634,-0.03337953389954356,9.810148041829803,0.0,0.0,0.0,0.0,0.0,0.0,0.0,0.0,0.0
2025/05/19 02:09:01.526641368,1747613341,526301328,mA1/imu,0.7632862111982851,-0.6460598682317569,-0.0008979934340386587,-7.919872605774859e-06,0.0,0.0,0.0,0.0,0.0,0.0,0.0,0.0,0.0,0.0005811894551477051,-0.0018526412401985016,0.003481257331365387,0.0,0.0,0.0,0.0,0.0,0.0,0.0,0.0,0.0,0.010488280191318072,-0.6552246980188831,9.809152065542305,0.0,0.0,0.0,0.0,0.0,0.0,0.0,0.0,0.0
2025/05/19 02:09:01.581751914,1747613341,578827199,mA1/imu,0.7632300380149365,-0.6461262105913669,-0.0009083543195947926,-6.285689488195806e-05,0.0,0.0,0.0,0.0,0.0,0.0,0.0,0.0,0.0,0.0009260719119328228,-0.0016749424223595564,0.0034376919577306614,0.0,0.0,0.0,0.0,0.0,0.0,0.0,0.0,0.0,0.021141447860978328,0.02339010126883777,9.811419916748614,0.0,0.0,0.0,0.0,0.0,0.0,0.0,0.0,0.0
2025/05/19 02:09:01.625589793,1747613341,623894195,mA1/imu,0.763175450379433,-0.6461906424185738,-0.0009368524484560992,-8.886118549598655e-05,0.0,0.0,0.0,0.0,0.0,0.0,0.0,0.0,0.0,-0.0005429121176154645,-0.0014302921940595658,0.003317943451071879,0.0,0.0,0.0,0.0,0.0,0.0,0.0,0.0,0.0,0.01845097488976174,0.5731320961636954,9.810013738399915,0.0,0.0,0.0,0.0,0.0,0.0,0.0,0.0,0.0
2025/05/19 02:09:01.673497165,1747613341,673104482,mA1/imu,0.7631233704182572,-0.6462521072625502,-0.0009611845136401677,-0.00010725914053129847,0.0,0.0,0.0,0.0,0.0,0.0,0.0,0.0,0.0,-0.0008196962839315262,-0.0010764332279682282,0.003179674969640581,0.0,0.0,0.0,0.0,0.0,0.0,0.0,0.0,0.0,0.01936628166101731,-0.04522596727444683,9.809436578087189,0.0,0.0,0.0,0.0,0.0,0.0,0.0,0.0,0.0
2025/05/19 02:09:01.726441804,1747613341,726064477,mA1/imu,0.7630728417637447,-0.6463117393081964,-0.0009797473431307196,-0.00011785652519482286,0.0,0.0,0.0,0.0,0.0,0.0,0.0,0.0,0.0,0.000391931921962381,-0.0006762939658986226,0.00309055365663573,0.0,0.0,0.0,0.0,0.0,0.0,0.0,0.0,0.0,0.01870396220195949,-0.5699732682548388,9.809791395076184,0.0,0.0,0.0,0.0,0.0,0.0,0.0,0.0,0.0
2025/05/19 02:09:01.778857229,1747613341,778671547,mA1/imu,0.7630237410812255,-0.6463696799759064,-0.0009973014431465949,-0.000112889709122348,0.0,0.0,0.0,0.0,0.0,0.0,0.0,0.0,0.0,-0.0011687038779219258,-0.00022703573344765195,0.0030036788470457726,0.0,0.0,0.0,0.0,0.0,0.0,0.0,0.0,0.0,0.019361762481876515,0.5543130114138558,9.81121791865312,0.0,0.0,0.0,0.0,0.0,0.0,0.0,0.0,0.0
2025/05/19 02:09:01.826449842,1747613341,825858269,mA1/imu,0.7629758261881371,-0.6464262158018562,-0.001013870605520813,-9.079106306441421e-05,0.0,0.0,0.0,0.0,0.0,0.0,0.0,0.0,0.0,-0.001592798062190236,0.0003186662752418737,0.002980230053818916,0.0,0.0,0.0,0.0,0.0,0.0,0.0,0.0,0.0,0.004074908230031229,-0.03485413269838837,9.809874146186365,0.0,0.0,0.0,0.0,0.0,0.0,0.0,0.0,0.0
2025/05/19 02:09:01.879298346,1747613341,878194647,mA1/imu,0.7629262390649484,-0.6464847369678961,-0.001017605031362112,-5.5621609668703544e-05,0.0,0.0,0.0,0.0,0.0,0.0,0.0,0.0,0.0,-0.0004650225669859901,0.0010011878902464974,0.003071017893968647,0.0,0.0,0.0,0.0,0.0,0.0,0.0,0.0,0.0,0.019370827205091708,-0.5709179512391241,9.809142779810069,0.0,0.0,0.0,0.0,0.0,0.0,0.0,0.0,0.0
2025/05/19 02:09:01.931227095,1747613341,930629249,mA1/imu,0.7628774103147783,-0.6465423629882929,-0.0010146699621031371,-1.173882035926182e-05,0.0,0.0,0.0,0.0,0.0,0.0,0.0,0.0,0.0,-1.3760303371210301e-05,0.0013543679257399543,0.002991915265209361,0.0,0.0,0.0,0.0,0.0,0.0,0.0,0.0,0.0,0.019309051313676315,-0.5261152043254846,9.808088233262964,0.0,0.0,0.0,0.0,0.0,0.0,0.0,0.0,0.0
2025/05/19 02:09:01.976405932,1747613341,975852747,mA1/imu,0.762829833063977,-0.646598498228024,-0.0010128198329863983,4.552839678400385e-05,0.0,0.0,0.0,0.0,0.0,0.0,0.0,0.0,0.0,-0.0009502333011398134,0.0016337383865806163,0.0029159713075084604,0.0,0.0,0.0,0.0,0.0,0.0,0.0,0.0,0.0,0.019457994356272136,-0.5847992684709468,9.808416007076179,0.0,0.0,0.0,0.0,0.0,0.0,0.0,0.0,0.0
2025/05/19 02:09:02.22900999,1747613342,22616845,mA1/imu,0.7627834520436442,-0.6466532172414763,-0.0010054543318066332,0.00010479129867346635,0.0,0.0,0.0,0.0,0.0,0.0,0.0,0.0,0.0,-0.002336529029714049,0.0018206773698008225,0.00284271022480689,0.0,0.0,0.0,0.0,0.0,0.0,0.0,0.0,0.0,0.02016823056170952,0.43605611694584695,9.810431582982886,0.0,0.0,0.0,0.0,0.0,0.0,0.0,0.0,0.0
2025/05/19 02:09:02.73005762,1747613342,72691490,mA1/imu,0.7627382330212535,-0.6467065538053802,-0.0009965733026705698,0.00016731538244537845,0.0,0.0,0.0,0.0,0.0,0.0,0.0,0.0,0.0,-0.002273485313461803,0.0019218100019264045,0.002770933641264659,0.0,0.0,0.0,0.0,0.0,0.0,0.0,0.0,0.0,0.019547440565046526,-0.04363424747679832,9.809255310275603,0.0,0.0,0.0,0.0,0.0,0.0,0.0,0.0,0.0
2025/05/19 02:09:02.127613989,1747613342,126618794,mA1/imu,0.762694150058733,-0.6467585478003012,-0.0009818416448764335,0.00022427754392199864,0.0,0.0,0.0,0.0,0.0,0.0,0.0,0.0,0.0,-0.0006580120075857767,0.0019079971698040409,0.0027004279886293807,0.0,0.0,0.0,0.0,0.0,0.0,0.0,0.0,0.0,0.020126370506590014,-0.5562347850407691,9.808009384156868,0.0,0.0,0.0,0.0,0.0,0.0,0.0,0.0,0.0
2025/05/19 02:09:02.179165008,1747613342,178923874,mA1/imu,0.7626509086589484,-0.6468095375100316,-0.0009676923197617165,0.00027799157142360727,0.0,0.0,0.0,0.0,0.0,0.0,0.0,0.0,0.0,-0.000608984765634422,0.00174128924166059,0.0026611888274206616,0.0,0.0,0.0,0.0,0.0,0.0,0.0,0.0,0.0,0.021651544166999177,0.04599218722878749,9.809136153441422,0.0,0.0,0.0,0.0,0.0,0.0,0.0,0.0,0.0
2025/05/19 02:09:02.224446868,1747613342,223492578,mA1/imu,0.7626085509338238,-0.6468594664110769,-0.0009589099563933849,0.0003305278897482881,0.0,0.0,0.0,0.0,0.0,0.0,0.0,0.0,0.0,-0.001971750848114593,0.001534759672991134,0.002594775674474536,0.0,0.0,0.0,0.0,0.0,0.0,0.0,0.0,0.0,0.020934942332200064,0.5668574741398188,9.810723656207712,0.0,0.0,0.0,0.0,0.0,0.0,0.0,0.0,0.0
2025/05/19 02:09:02.277066085,1747613342,276881087,mA1/imu,0.7625672377874652,-0.6469081584387496,-0.0009502252665386238,0.0003734575262598732,0.0,0.0,0.0,0.0,0.0,0.0,0.0,0.0,0.0,-0.0015493035133740632,0.0012621619736181186,0.002530468584368736,0.0,0.0,0.0,0.0,0.0,0.0,0.0,0.0,0.0,0.020093368368117488,-0.05033090101414049,9.810031570323607,0.0,0.0,0.0,0.0,0.0,0.0,0.0,0.0,0.0
2025/05/19 02:09:02.335806779,1747613342,329981489,mA1/imu,0.7625269302177166,-0.6469556726209958,-0.0009374131001924698,0.0003995158820399428,0.0,0.0,0.0,0.0,0.0,0.0,0.0,0.0,0.0,0.0003614064953665599,0.000927696914268472,0.0024692629707971417,0.0,0.0,0.0,0.0,0.0,0.0,0.0,0.0,0.0,0.0198582615349824,-0.5717300116665542,9.808643563528431,0.0,0.0,0.0,0.0,0.0,0.0,0.0,0.0,0.0
2025/05/19 02:09:02.371891105,1747613342,371312110,mA1/imu,0.7624875789530358,-0.6470020575008276,-0.0009263006251427633,0.0004141246016540275,0.0,0.0,0.0,0.0,0.0,0.0,0.0,0.0,0.0,0.0005629427914512678,0.0005658019691151948,0.002410622658603141,0.0,0.0,0.0,0.0,0.0,0.0,0.0,0.0,0.0,0.020011373154903988,0.045604346239702595,9.81003640156503,0.0,0.0,0.0,0.0,0.0,0.0,0.0,0.0,0.0
2025/05/19 02:09:02.425564575,1747613342,425328267,mA1/imu,0.7624492357902152,-0.6470472459983785,-0.0009203999848865902,0.00042089511607159544,0.0,0.0,0.0,0.0,0.0,0.0,0.0,0.0,0.0,-0.0006131220491858642,0.00021136928560414387,0.0023257052949468954,0.0,0.0,0.0,0.0,0.0,0.0,0.0,0.0,0.0,0.01948032807458846,0.5690230243345453,9.81203909519386,0.0,0.0,0.0,0.0,0.0,0.0,0.0,0.0,0.0
2025/05/19 02:09:02.479026929,1747613342,477177146,mA1/imu,0.762413281192322,-0.6470896206154134,-0.0009159538436198846,0.00041542979464266226,0.0,0.0,0.0,0.0,0.0,0.0,0.0,0.0,0.0,0.00027788551287627884,-0.00014682991847246853,0.0021824672981208327,0.0,0.0,0.0,0.0,0.0,0.0,0.0,0.0,0.0,0.018044324780103017,-0.2587543620501895,9.810497264648058,0.0,0.0,0.0,0.0,0.0,0.0,0.0,0.0,0.0
2025/05/19 02:09:02.528192296,1747613342,527649640,mA1/imu,0.762378527780075,-0.6471305892149428,-0.0009086717721791663,0.0003939515413524114,0.0,0.0,0.0,0.0,0.0,0.0,0.0,0.0,0.0,0.0005715446069258932,-0.0004514925376545003,0.0021257636090863665,0.0,0.0,0.0,0.0,0.0,0.0,0.0,0.0,0.0,0.017813069712825702,0.32050633178251825,9.811399023518245,0.0,0.0,0.0,0.0,0.0,0.0,0.0,0.0,0.0
2025/05/19 02:09:02.574741437,1747613342,574353823,mA1/imu,0.7623446637317118,-0.647170499969421,-0.0009066812612468515,0.0003682094561881782,0.0,0.0,0.0,0.0,0.0,0.0,0.0,0.0,0.0,0.0007456532708460337,-0.0007069286656866419,0.0020712700936313497,0.0,0.0,0.0,0.0,0.0,0.0,0.0,0.0,0.0,0.01723821871462262,-0.14207642232628037,9.811125939139357,0.0,0.0,0.0,0.0,0.0,0.0,0.0,0.0,0.0
2025/05/19 02:09:02.628571749,1747613342,628066484,mA1/imu,0.7623116498896034,-0.6472094208690142,-0.0008985181581868749,0.0003265671528533117,0.0,0.0,0.0,0.0,0.0,0.0,0.0,0.0,0.0,0.00024603531736318654,-0.0008972477231412027,0.0020200218486029395,0.0,0.0,0.0,0.0,0.0,0.0,0.0,0.0,0.0,0.01689919302255625,0.40847038671483554,9.81196332138215,0.0,0.0,0.0,0.0,0.0,0.0,0.0,0.0,0.0
2025/05/19 02:09:02.673480080,1747613342,673306469,mA1/imu,0.7622794159164038,-0.647247412947911,-0.0008935721394201091,0.0002828978866939065,0.0,0.0,0.0,0.0,0.0,0.0,0.0,0.0,0.0,0.0003657132698804585,-0.0010165603496319097,0.00197227581315497,0.0,0.0,0.0,0.0,0.0,0.0,0.0,0.0,0.0,0.016189975959458654,0.5109771888477079,9.810532123925487,0.0,0.0,0.0,0.0,0.0,0.0,0.0,0.0,0.0
2025/05/19 02:09:02.723553902,1747613342,722875018,mA1/imu,0.7622479238802794,-0.6472845234045673,-0.0008899218582207242,0.00023736093185141742,0.0,0.0,0.0,0.0,0.0,0.0,0.0,0.0,0.0,-0.00027870258881993885,-0.0010831443997801249,0.001927168377346859,0.0,0.0,0.0,0.0,0.0,0.0,0.0,0.0,0.0,0.016232815193168416,0.47191101497408716,9.811355861084524,0.0,0.0,0.0,0.0,0.0,0.0,0.0,0.0,0.0
2025/05/19 02:09:02.773892275,1747613342,773477892,mA1/imu,0.7622171485014099,-0.6473207986920081,-0.0008772257212357668,0.0001805163546508127,0.0,0.0,0.0,0.0,0.0,0.0,0.0,0.0,0.0,0.001389753908293406,-0.001063881968784884,0.0018836084359443986,0.0,0.0,0.0,0.0,0.0,0.0,0.0,0.0,0.0,0.014864260918322443,0.03449672783248229,9.811277825178333,0.0,0.0,0.0,0.0,0.0,0.0,0.0,0.0,0.0
2025/05/19 02:09:02.826137354,1747613342,825884170,mA1/imu,0.762187063161235,-0.6473562497469431,-0.0008661840554130179,0.00012801721430306967,0.0,0.0,0.0,0.0,0.0,0.0,0.0,0.0,0.0,0.002147837686605097,-0.0009834374698888951,0.0018411559883214335,0.0,0.0,0.0,0.0,0.0,0.0,0.0,0.0,0.0,0.014566736745197782,0.029921126180268702,9.810459423239124,0.0,0.0,0.0,0.0,0.0,0.0,0.0,0.0,0.0
2025/05/19 02:09:02.884324509,1747613342,883012753,mA1/imu,0.7621576539778501,-0.647390900977302,-0.0008520504839968264,7.632004792546855e-05,0.0,0.0,0.0,0.0,0.0,0.0,0.0,0.0,0.0,0.0021013459975795807,-0.0008495524083600988,0.0017999758699288276,0.0,0.0,0.0,0.0,0.0,0.0,0.0,0.0,0.0,0.014801187064531467,0.4079782566289339,9.812075799561875,0.0,0.0,0.0,0.0,0.0,0.0,0.0,0.0,0.0
2025/05/19 02:09:02.924639239,1747613342,924385017,mA1/imu,0.7621287050914978,-0.6474249978858508,-0.0008412351861946941,3.62135907211184e-05,0.0,0.0,0.0,0.0,0.0,0.0,0.0,0.0,0.0,0.0013082406967892398,-0.000543659176000483,0.0018202965206933716,0.0,0.0,0.0,0.0,0.0,0.0,0.0,0.0,0.0,-0.0015647112260454218,0.32501768265303455,9.810831458968686,0.0,0.0,0.0,0.0,0.0,0.0,0.0,0.0,0.0
2025/05/19 02:09:02.976777733,1747613342,976597688,mA1/imu,0.7620969245305438,-0.6474624312547292,-0.0008232095318387498,7.801819136884667e-06,0.0,0.0,0.0,0.0,0.0,0.0,0.0,0.0,0.0,0.0010573927220370444,-5.4183107017178986e-05,0.0019937346436935755,0.0,0.0,0.0,0.0,0.0,0.0,0.0,0.0,0.0,0.01556516954702388,0.6165552116988167,9.810582386275955,0.0,0.0,0.0,0.0,0.0,0.0,0.0,0.0,0.0
2025/05/19 02:09:03.36154322,1747613343,30622821,mA1/imu,0.7620649578702775,-0.6475000789938992,-0.0008047075562445011,-1.161101839889842e-05,0.0,0.0,0.0,0.0,0.0,0.0,0.0,0.0,0.0,0.0008756738242050087,0.0001347436270943372,0.0019625047678000222,0.0,0.0,0.0,0.0,0.0,0.0,0.0,0.0,0.0,0.015108921474644797,-0.21216535037970313,9.809615026979113,0.0,0.0,0.0,0.0,0.0,0.0,0.0,0.0,0.0
2025/05/19 02:09:03.73730709,1747613343,73597854,mA1/imu,0.7620334901411864,-0.6475371334012617,-0.0007875723639262414,-2.234928699186323e-05,0.0,0.0,0.0,0.0,0.0,0.0,0.0,0.0,0.0,-0.0002001452315347374,0.0003164610028271562,0.0019319232385018085,0.0,0.0,0.0,0.0,0.0,0.0,0.0,0.0,0.0,0.01519699922863568,0.21888252981008902,9.810270770024383,0.0,0.0,0.0,0.0,0.0,0.0,0.0,0.0,0.0
2025/05/19 02:09:03.129499770,1747613343,124282081,mA1/imu,0.7620060989584401,-0.6475693849891151,-0.0007717045825749284,-3.5312839069190664e-05,0.0,0.0,0.0,0.0,0.0,0.0,0.0,0.0,0.0,0.000665064547656706,-0.00019179843882765016,0.0013417781478640065,0.0,0.0,0.0,0.0,0.0,0.0,0.0,0.0,0.0,0.05482016740859473,0.0681616136256219,9.811094785122618,0.0,0.0,0.0,0.0,0.0,0.0,0.0,0.0,0.0
2025/05/19 02:09:03.180746404,1747613343,175116508,mA1/imu,0.7619877117378405,-0.6475910116951203,-0.0007793397609109352,-3.69019910379057e-05,0.0,0.0,0.0,0.0,0.0,0.0,0.0,0.0,0.0,-0.0005362441330182872,-0.00014185648204022226,0.0011270529336838509,0.0,0.0,0.0,0.0,0.0,0.0,0.0,0.0,0.0,0.011077929182311548,-0.024024048566336248,9.80880291138974,0.0,0.0,0.0,0.0,0.0,0.0,0.0,0.0,0.0
2025/05/19 02:09:03.226734416,1747613343,226419961,mA1/imu,0.761969448376858,-0.6476124981465237,-0.0007816641949270372,-3.1397008573167144e-05,0.0,0.0,0.0,0.0,0.0,0.0,0.0,0.0,0.0,-0.0004928764597405314,0.00028343628684627446,0.0011729754284680294,0.0,0.0,0.0,0.0,0.0,0.0,0.0,0.0,0.0,-0.004115536902994862,0.0015587346786718106,9.807652302454613,0.0,0.0,0.0,0.0,0.0,0.0,0.0,0.0,0.0
2025/05/19 02:09:03.278019274,1747613343,277523948,mA1/imu,0.7619492305897194,-0.6476362849350444,-0.0007825523784025687,-7.144462861446001e-06,0.0,0.0,0.0,0.0,0.0,0.0,0.0,0.0,0.0,-0.0006833701692651269,0.0007251544071180794,0.0012528915814217759,0.0,0.0,0.0,0.0,0.0,0.0,0.0,0.0,0.0,0.01204798718033142,-0.6183954505346424,9.80753382849968,0.0,0.0,0.0,0.0,0.0,0.0,0.0,0.0,0.0
2025/05/19 02:09:03.330571133,1747613343,330227106,mA1/imu,0.7619295979360454,-0.6476593951137878,-0.0007716997312916169,1.3761668830005965e-05,0.0,0.0,0.0,0.0,0.0,0.0,0.0,0.0,0.0,-0.0014640495111133123,0.0009707186848447224,0.001171576053010841,0.0,0.0,0.0,0.0,0.0,0.0,0.0,0.0,0.0,0.012218721127773032,0.33857152923448286,9.809225837325512,0.0,0.0,0.0,0.0,0.0,0.0,0.0,0.0,0.0
2025/05/19 02:09:03.373347753,1747613343,372949810,mA1/imu,0.7619109589151235,-0.6476813149032176,-0.0007754968573687835,6.01240393449367e-05,0.0,0.0,0.0,0.0,0.0,0.0,0.0,0.0,0.0,-0.0006418439406396304,0.0011431976738393264,0.0011443454671724057,0.0,0.0,0.0,0.0,0.0,0.0,0.0,0.0,0.0,0.012609988139517782,0.046302686324048374,9.808814594395075,0.0,0.0,0.0,0.0,0.0,0.0,0.0,0.0,0.0
2025/05/19 02:09:03.427602410,1747613343,425909062,mA1/imu,0.7618926512631793,-0.6477028518450985,-0.0007702724276735214,0.00010170190177616925,0.0,0.0,0.0,0.0,0.0,0.0,0.0,0.0,0.0,-0.0010722797539558949,0.0012822139362369215,0.0011232945719140104,0.0,0.0,0.0,0.0,0.0,0.0,0.0,0.0,0.0,0.012547725044899516,-0.3239817834724847,9.808474584166524,0.0,0.0,0.0,0.0,0.0,0.0,0.0,0.0,0.0
2025/05/19 02:09:03.482956588,1747613343,478375385,mA1/imu,0.7618746925124995,-0.6477239763407328,-0.0007632644776939701,0.00014425557707812756,0.0,0.0,0.0,0.0,0.0,0.0,0.0,0.0,0.0,-0.0005631947327386178,0.0013277431874461365,0.001101799234885925,0.0,0.0,0.0,0.0,0.0,0.0,0.0,0.0,0.0,0.012732124556937468,0.07176043693353995,9.809300416272768,0.0,0.0,0.0,0.0,0.0,0.0,0.0,0.0,0.0
2025/05/19 02:09:03.529775403,1747613343,529529819,mA1/imu,0.7618570614836357,-0.6477446970740283,-0.0007656028328623297,0.0001978188496382869,0.0,0.0,0.0,0.0,0.0,0.0,0.0,0.0,0.0,-0.0007908217032886514,0.0012886920458040209,0.0010820459843032511,0.0,0.0,0.0,0.0,0.0,0.0,0.0,0.0,0.0,0.012561888512218962,0.06227607891729571,9.809574421517382,0.0,0.0,0.0,0.0,0.0,0.0,0.0,0.0,0.0
2025/05/19 02:09:03.572542313,1747613343,571463967,mA1/imu,0.7618397488592961,-0.6477650396952301,-0.000767388275357658,0.0002480360384229823,0.0,0.0,0.0,0.0,0.0,0.0,0.0,0.0,0.0,-0.0004596578469408451,0.001195419561631995,0.0010621273722200434,0.0,0.0,0.0,0.0,0.0,0.0,0.0,0.0,0.0,0.01276913706185278,-0.5491355976623105,9.810438609686255,0.0,0.0,0.0,0.0,0.0,0.0,0.0,0.0,0.0
2025/05/19 02:09:03.631042780,1747613343,629029523,mA1/imu,0.7618227505946978,-0.6477850069339859,-0.0007709272157895887,0.00029519331410264175,0.0,0.0,0.0,0.0,0.0,0.0,0.0,0.0,0.0,-0.0016451049160715336,0.0010391544573247972,0.0010426359780919413,0.0,0.0,0.0,0.0,0.0,0.0,0.0,0.0,0.0,0.013255592026925073,-0.009533269855618667,9.812539376518664,0.0,0.0,0.0,0.0,0.0,0.0,0.0,0.0,0.0
2025/05/19 02:09:03.677995140,1747613343,677633720,mA1/imu,0.7618060617573144,-0.6478046105560002,-0.000774030944793878,0.00033419798925077683,0.0,0.0,0.0,0.0,0.0,0.0,0.0,0.0,0.0,-0.0031084716266269524,0.0008393354459606488,0.0010230747316159513,0.0,0.0,0.0,0.0,0.0,0.0,0.0,0.0,0.0,0.012897681284492563,0.5093805224626374,9.811313385529393,0.0,0.0,0.0,0.0,0.0,0.0,0.0,0.0,0.0
2025/05/19 02:09:03.723174951,1747613343,722783957,mA1/imu,0.7617896891955962,-0.6478238445886578,-0.0007770908056082791,0.0003632458220566761,0.0,0.0,0.0,0.0,0.0,0.0,0.0,0.0,0.0,-0.0014182949010429918,0.0005539638480199226,0.001003127677183723,0.0,0.0,0.0,0.0,0.0,0.0,0.0,0.0,0.0,0.013272788631511987,-0.02048743416822343,9.810159336458641,0.0,0.0,0.0,0.0,0.0,0.0,0.0,0.0,0.0
2025/05/19 02:09:03.773766646,1747613343,772407202,mA1/imu,0.7617736341258324,-0.6478427104103143,-0.0007796287538537779,0.0003809172437855183,0.0,0.0,0.0,0.0,0.0,0.0,0.0,0.0,0.0,-0.0009411304373725797,0.0002659571322760624,0.0009835280906961865,0.0,0.0,0.0,0.0,0.0,0.0,0.0,0.0,0.0,0.013417203205597,0.6218963584929282,9.811509025983886,0.0,0.0,0.0,0.0,0.0,0.0,0.0,0.0,0.0
2025/05/19 02:09:03.827449072,1747613343,824427635,mA1/imu,0.7617578854560806,-0.647861207176158,-0.0007895339598050562,0.00039600234668245,0.0,0.0,0.0,0.0,0.0,0.0,0.0,0.0,0.0,-0.0005663206683101239,-2.939526004146435e-05,0.0009644192580554844,0.0,0.0,0.0,0.0,0.0,0.0,0.0,0.0,0.0,0.01280448012042737,0.0006819481949624263,9.810317056659857,0.0,0.0,0.0,0.0,0.0,0.0,0.0,0.0,0.0
2025/05/19 02:09:03.877063357,1747613343,876314701,mA1/imu,0.7617424454678691,-0.6478793620021362,-0.0007915081793913433,0.0003906137956367817,0.0,0.0,0.0,0.0,0.0,0.0,0.0,0.0,0.0,0.0008457587237796711,-0.00031230808519019037,0.0009458274417444569,0.0,0.0,0.0,0.0,0.0,0.0,0.0,0.0,0.0,0.01269394508351249,0.07483492480907847,9.81287166327578,0.0,0.0,0.0,0.0,0.0,0.0,0.0,0.0,0.0
2025/05/19 02:09:03.928528420,1747613343,927977744,mA1/imu,0.7617272879623311,-0.6478971509834781,-0.0008134045299855713,0.000398615246652976,0.0,0.0,0.0,0.0,0.0,0.0,0.0,0.0,0.0,5.6937829751241356e-05,-0.0005787863686349525,0.000927561109362757,0.0,0.0,0.0,0.0,0.0,0.0,0.0,0.0,0.0,0.012779006110701438,-0.6281618834457794,9.810608492704734,0.0,0.0,0.0,0.0,0.0,0.0,0.0,0.0,0.0
2025/05/19 02:09:03.980464989,1747613343,979248366,mA1/imu,0.7617124296745006,-0.6479146304989082,-0.0008160170300555741,0.00037440758384470847,0.0,0.0,0.0,0.0,0.0,0.0,0.0,0.0,0.0,-0.0017632198103968968,-0.0007710383821161368,0.0009095804050518115,0.0,0.0,0.0,0.0,0.0,0.0,0.0,0.0,0.0,0.012070387663218064,0.48652280881306376,9.811107090000712,0.0,0.0,0.0,0.0,0.0,0.0,0.0,0.0,0.0
2025/05/19 02:09:04.24293782,1747613344,23999963,mA1/imu,0.7616978317758946,-0.6479317994119059,-0.0008222641372020792,0.0003467858696270425,0.0,0.0,0.0,0.0,0.0,0.0,0.0,0.0,0.0,-0.0004986935265171868,-0.0009613860993607529,0.000894107115908555,0.0,0.0,0.0,0.0,0.0,0.0,0.0,0.0,0.0,0.011800337328775749,0.5538752413786768,9.810731515734274,0.0,0.0,0.0,0.0,0.0,0.0,0.0,0.0,0.0
2025/05/19 02:09:04.72970096,1747613344,72261442,mA1/imu,0.7616834837236482,-0.6479486743385826,-0.0008286755653141718,0.0003151861160884425,0.0,0.0,0.0,0.0,0.0,0.0,0.0,0.0,0.0,-1.2781050079352401e-07,-0.0010414864574265707,0.000878733906112817,0.0,0.0,0.0,0.0,0.0,0.0,0.0,0.0,0.0,0.011340185758059665,0.1699313014977203,9.81019042407368,0.0,0.0,0.0,0.0,0.0,0.0,0.0,0.0,0.0
2025/05/19 02:09:04.125851971,1747613344,125159758,mA1/imu,0.7616693802171227,-0.6479652685132707,-0.0008305589028170017,0.0002760653877522632,0.0,0.0,0.0,0.0,0.0,0.0,0.0,0.0,0.0,0.0015702979105701679,-0.0010767212178330434,0.0008637970982162371,0.0,0.0,0.0,0.0,0.0,0.0,0.0,0.0,0.0,0.010845036026732166,-0.40377641912203993,9.808616808446088,0.0,0.0,0.0,0.0,0.0,0.0,0.0,0.0,0.0
2025/05/19 02:09:04.175471406,1747613344,175172379,mA1/imu,0.7616555118609076,-0.6479815898979656,-0.0008284230576412763,0.0002326380042708953,0.0,0.0,0.0,0.0,0.0,0.0,0.0,0.0,0.0,0.00252587981511182,-0.001042147027073599,0.0008496405353843486,0.0,0.0,0.0,0.0,0.0,0.0,0.0,0.0,0.0,0.010371962972917372,-0.5326829859404238,9.809030200972153,0.0,0.0,0.0,0.0,0.0,0.0,0.0,0.0,0.0
2025/05/19 02:09:04.228212880,1747613344,227777667,mA1/imu,0.7616455550704196,-0.647993300120878,-0.0008337019336509706,0.000190738071033783,0.0,0.0,0.0,0.0,0.0,0.0,0.0,0.0,0.0,0.0025945752312435465,-0.0014722384357737479,0.00043215599169181394,0.0,0.0,0.0,0.0,0.0,0.0,0.0,0.0,0.0,0.022855373450129415,-0.528787387969451,9.808428838768002,0.0,0.0,0.0,0.0,0.0,0.0,0.0,0.0,0.0
2025/05/19 02:09:04.278787098,1747613344,278365334,mA1/imu,0.7616407875012101,-0.6479989073818727,-0.0008411179684246724,0.00013916536519615865,0.0,0.0,0.0,0.0,0.0,0.0,0.0,0.0,0.0,0.0012382361177243036,-0.0016009022306939238,0.0002158280651384216,0.0,0.0,0.0,0.0,0.0,0.0,0.0,0.0,0.0,0.019713832749532,-0.0007656101934664563,9.809043377852213,0.0,0.0,0.0,0.0,0.0,0.0,0.0,0.0,0.0
2025/05/19 02:09:04.335273426,1747613344,334256231,mA1/imu,0.7616386330157021,-0.6480014343849868,-0.0008520723736809793,8.778178889403402e-05,0.0,0.0,0.0,0.0,0.0,0.0,0.0,0.0,0.0,0.0012919890676030292,-0.0017060527609057698,8.108615033839442e-05,0.0,0.0,0.0,0.0,0.0,0.0,0.0,0.0,0.0,0.02068796229183214,0.0010902071966921115,9.808193571432344,0.0,0.0,0.0,0.0,0.0,0.0,0.0,0.0,0.0
2025/05/19 02:09:04.376553895,1747613344,376116521,mA1/imu,0.7616384327793577,-0.6480016659523512,-0.0008589230506502008,2.9792185385278636e-05,0.0,0.0,0.0,0.0,0.0,0.0,0.0,0.0,0.0,0.0011644900526407553,-0.0016948916363214803,-3.666973951678273e-05,0.0,0.0,0.0,0.0,0.0,0.0,0.0,0.0,0.0,0.020773226441170405,0.26622682336786413,9.810570195280429,0.0,0.0,0.0,0.0,0.0,0.0,0.0,0.0,0.0
2025/05/19 02:09:04.429278310,1747613344,427178122,mA1/imu,0.761639658480925,-0.6480002143755981,-0.0008673029207433086,-2.4163662366426958e-05,0.0,0.0,0.0,0.0,0.0,0.0,0.0,0.0,0.0,0.001137984807839952,-0.0015959537868341144,-8.99041680093895e-05,0.0,0.0,0.0,0.0,0.0,0.0,0.0,0.0,0.0,0.02099628850848685,0.6333839388221402,9.810207385219423,0.0,0.0,0.0,0.0,0.0,0.0,0.0,0.0,0.0
2025/05/19 02:09:04.482584470,1747613344,482309360,mA1/imu,0.7616412987355067,-0.6479982680189951,-0.0008786433270655057,-6.848924960636696e-05,0.0,0.0,0.0,0.0,0.0,0.0,0.0,0.0,0.0,0.002215389681564592,-0.001435819520028849,-0.00011178048827479595,0.0,0.0,0.0,0.0,0.0,0.0,0.0,0.0,0.0,0.021463250215201183,-0.3658970584965368,9.808222624769156,0.0,0.0,0.0,0.0,0.0,0.0,0.0,0.0,0.0
2025/05/19 02:09:04.523895886,1747613344,523590228,mA1/imu,0.7616429703193935,-0.6479962819196919,-0.0008908274931224208,-0.00010396001155653167,0.0,0.0,0.0,0.0,0.0,0.0,0.0,0.0,0.0,0.0013490696933117288,-0.0011927866965097396,-9.049686013310367e-05,0.0,0.0,0.0,0.0,0.0,0.0,0.0,0.0,0.0,0.021275619568252125,0.048343007001707405,9.80867141019544,0.0,0.0,0.0,0.0,0.0,0.0,0.0,0.0,0.0
2025/05/19 02:09:04.576573494,1747613344,576107726,mA1/imu,0.7616438020498093,-0.6479952825138567,-0.0009033395981547913,-0.00012890488045704413,0.0,0.0,0.0,0.0,0.0,0.0,0.0,0.0,0.0,0.0009506324764567574,-0.0009315853352983262,-2.82767804567054e-05,0.0,0.0,0.0,0.0,0.0,0.0,0.0,0.0,0.0,0.02266852463901675,0.03908895796529389,9.80823855965843,0.0,0.0,0.0,0.0,0.0,0.0,0.0,0.0,0.0
2025/05/19 02:09:04.633424933,1747613344,632684343,mA1/imu,0.7616435050223723,-0.6479956134829676,-0.0009136591428080636,-0.00014625675603478641,0.0,0.0,0.0,0.0,0.0,0.0,0.0,0.0,0.0,0.0012165849136057598,-0.0006652422668599974,5.082712294496014e-05,0.0,0.0,0.0,0.0,0.0,0.0,0.0,0.0,0.0,0.02175289616377761,-0.5454940026722481,9.80794000803887,0.0,0.0,0.0,0.0,0.0,0.0,0.0,0.0,0.0
2025/05/19 02:09:04.681209997,1747613344,680242518,mA1/imu,0.7616425453877438,-0.6479967237531492,-0.0009254983852168305,-0.0001500440006453451,0.0,0.0,0.0,0.0,0.0,0.0,0.0,0.0,0.0,-0.0007948590584762191,-0.0003148169025330391,4.348748634645047e-05,0.0,0.0,0.0,0.0,0.0,0.0,0.0,0.0,0.0,0.022519385219898776,0.33701509548668673,9.810432427691868,0.0,0.0,0.0,0.0,0.0,0.0,0.0,0.0,0.0
2025/05/19 02:09:04.726070412,1747613344,723913423,mA1/imu,0.7616422352362544,-0.6479970743776062,-0.0009365162956953145,-0.00014156133986884944,0.0,0.0,0.0,0.0,0.0,0.0,0.0,0.0,0.0,-0.0005809515001063551,2.5503647303692397e-05,3.8140537413041304e-06,0.0,0.0,0.0,0.0,0.0,0.0,0.0,0.0,0.0,0.021752276380925636,-0.01627442836980509,9.810028620565383,0.0,0.0,0.0,0.0,0.0,0.0,0.0,0.0,0.0
2025/05/19 02:09:04.777706315,1747613344,776862445,mA1/imu,0.7616425636782503,-0.6479966795940809,-0.0009452850884516,-0.00012192116281570768,0.0,0.0,0.0,0.0,0.0,0.0,0.0,0.0,0.0,-0.0009776167331655545,0.0003851573272330056,-3.5355194789399545e-05,0.0,0.0,0.0,0.0,0.0,0.0,0.0,0.0,0.0,0.021637355280218283,0.0008104998012071624,9.810651655898333,0.0,0.0,0.0,0.0,0.0,0.0,0.0,0.0,0.0
2025/05/19 02:09:04.828745124,1747613344,828423897,mA1/imu,0.7616436990961268,-0.6479953396537079,-0.0009524369650843912,-9.09839097398794e-05,0.0,0.0,0.0,0.0,0.0,0.0,0.0,0.0,0.0,-0.001068752857577602,0.0006885757317697077,-0.00012421879421137358,0.0,0.0,0.0,0.0,0.0,0.0,0.0,0.0,0.0,0.02727392765248917,-0.08650360011277314,9.810645429870496,0.0,0.0,0.0,0.0,0.0,0.0,0.0,0.0,0.0
2025/05/19 02:09:04.878027102,1747613344,877188402,mA1/imu,0.761647365732165,-0.64799102015569,-0.0009621897877850753,-4.7556854064706845e-05,0.0,0.0,0.0,0.0,0.0,0.0,0.0,0.0,0.0,-0.002738037050582685,0.0009487924866045625,-0.00025523442370876514,0.0,0.0,0.0,0.0,0.0,0.0,0.0,0.0,0.0,0.021274506425830775,0.4589515763529753,9.811776473716682,0.0,0.0,0.0,0.0,0.0,0.0,0.0,0.0,0.0
2025/05/19 02:09:04.923724563,1747613344,923393086,mA1/imu,0.7616520106187167,-0.6479855559587564,-0.0009664311950144099,-1.8135081776966778e-07,0.0,0.0,0.0,0.0,0.0,0.0,0.0,0.0,0.0,-0.003028471684341384,0.0012047711787305322,-0.00030685959505539676,0.0,0.0,0.0,0.0,0.0,0.0,0.0,0.0,0.0,0.021625759051849644,0.5368776645949874,9.811169612749113,0.0,0.0,0.0,0.0,0.0,0.0,0.0,0.0,0.0
2025/05/19 02:09:04.973806991,1747613344,973562267,mA1/imu,0.7616574900908314,-0.6479791130506884,-0.0009665597420058187,5.099846570012643e-05,0.0,0.0,0.0,0.0,0.0,0.0,0.0,0.0,0.0,-0.001352120989500713,0.00139796353997066,-0.0003582791327015652,0.0,0.0,0.0,0.0,0.0,0.0,0.0,0.0,0.0,0.02125019384558871,0.030967387415614226,9.810985765925757,0.0,0.0,0.0,0.0,0.0,0.0,0.0,0.0,0.0
2025/05/19 02:09:05.28466940,1747613345,28146202,mA1/imu,0.7616636377936193,-0.6479718778005925,-0.0009676782380033521,0.00010973327580535001,0.0,0.0,0.0,0.0,0.0,0.0,0.0,0.0,0.0,-0.0003168890474550985,0.0015457794659056393,-0.00037684848367899664,0.0,0.0,0.0,0.0,0.0,0.0,0.0,0.0,0.0,0.018461797989628055,-0.5257732792860192,9.809235227271111,0.0,0.0,0.0,0.0,0.0,0.0,0.0,0.0,0.0
2025/05/19 02:09:05.81627674,1747613345,81098691,mA1/imu,0.7616696957186005,-0.6479647389023465,-0.0009701113199105292,0.00017506334559566752,0.0,0.0,0.0,0.0,0.0,0.0,0.0,0.0,0.0,-0.0016478542322505268,0.001644688089922233,-0.00036912281210143953,0.0,0.0,0.0,0.0,0.0,0.0,0.0,0.0,0.0,0.01955695044085016,0.0047582180491391474,9.81174434253024,0.0,0.0,0.0,0.0,0.0,0.0,0.0,0.0,0.0
2025/05/19 02:09:05.130383126,1747613345,129758631,mA1/imu,0.7616742041574303,-0.6479594321619083,-0.0009622516055537827,0.00023466020117350887,0.0,0.0,0.0,0.0,0.0,0.0,0.0,0.0,0.0,-0.0018529623535773292,0.0018257610598843938,-0.0002237109910653678,0.0,0.0,0.0,0.0,0.0,0.0,0.0,0.0,0.0,0.017651504162390586,-0.017919294130204235,9.813119703052829,0.0,0.0,0.0,0.0,0.0,0.0,0.0,0.0,0.0
2025/05/19 02:09:05.180700387,1747613345,180402909,mA1/imu,0.7616775433119882,-0.6479555014199864,-0.0009503534842970418,0.0002915853960960666,0.0,0.0,0.0,0.0,0.0,0.0,0.0,0.0,0.0,-0.0013256116774192609,0.0018494125926745823,-0.00019771731596691746,0.0,0.0,0.0,0.0,0.0,0.0,0.0,0.0,0.0,0.01570550198773848,0.004587136054623107,9.810009476787537,0.0,0.0,0.0,0.0,0.0,0.0,0.0,0.0,0.0
2025/05/19 02:09:05.224281387,1747613345,223801662,mA1/imu,0.7616820077419223,-0.6479502358320646,-0.0009423682844799017,0.0003505844012928899,0.0,0.0,0.0,0.0,0.0,0.0,0.0,0.0,0.0,-0.001988432560171745,0.0016594788966698207,-0.0003652341644069778,0.0,0.0,0.0,0.0,0.0,0.0,0.0,0.0,0.0,0.02118501654079786,-0.06151888918505011,9.807820439941361,0.0,0.0,0.0,0.0,0.0,0.0,0.0,0.0,0.0
2025/05/19 02:09:05.275464248,1747613345,274075665,mA1/imu,0.7616885026437915,-0.6479425979042543,-0.0009271058049364973,0.0003940002170903837,0.0,0.0,0.0,0.0,0.0,0.0,0.0,0.0,0.0,-0.0018997813558978022,0.0016026080520154151,-0.00039965082056318384,0.0,0.0,0.0,0.0,0.0,0.0,0.0,0.0,0.0,0.010754901043773985,0.5613000259104007,9.810384255583733,0.0,0.0,0.0,0.0,0.0,0.0,0.0,0.0,0.0
2025/05/19 02:09:05.330176178,1747613345,328873257,mA1/imu,0.7616970633878928,-0.6479325350359817,-0.0009106493388910874,0.00042940177970878863,0.0,0.0,0.0,0.0,0.0,0.0,0.0,0.0,0.0,-8.524181017075686e-05,0.0012441456247044946,-0.0006917609519122643,0.0,0.0,0.0,0.0,0.0,0.0,0.0,0.0,0.0,0.020340157910177886,0.029602511628844693,9.808774323828892,0.0,0.0,0.0,0.0,0.0,0.0,0.0,0.0,0.0
2025/05/19 02:09:05.373131413,1747613345,372893242,mA1/imu,0.7617127360012448,-0.6479140972260466,-0.0009056263835985998,0.00045855218679152825,0.0,0.0,0.0,0.0,0.0,0.0,0.0,0.0,0.0,0.00022765232940610703,0.0006561049914997247,-0.0011684197515595654,0.0,0.0,0.0,0.0,0.0,0.0,0.0,0.0,0.0,0.024288728984677738,0.028247397955613436,9.813116681073259,0.0,0.0,0.0,0.0,0.0,0.0,0.0,0.0,0.0
2025/05/19 02:09:05.424369714,1747613345,423967349,mA1/imu,0.7617325985951208,-0.6478907358795811,-0.0009020789115541229,0.0004783853850539561,0.0,0.0,0.0,0.0,0.0,0.0,0.0,0.0,0.0,0.0006838338717699092,0.0004991964560799529,-0.0013340388912019944,0.0,0.0,0.0,0.0,0.0,0.0,0.0,0.0,0.0,0.023648117851905452,-0.5894171047581734,9.81193788871175,0.0,0.0,0.0,0.0,0.0,0.0,0.0,0.0,0.0
2025/05/19 02:09:05.474390586,1747613345,473837006,mA1/imu,0.7617590750253709,-0.6478595987649121,-0.000902391741207476,0.0004874359484466782,0.0,0.0,0.0,0.0,0.0,0.0,0.0,0.0,0.0,-0.0006851367930395962,4.468719847818354e-06,-0.001836595851386312,0.0,0.0,0.0,0.0,0.0,0.0,0.0,0.0,0.0,0.025236184468611946,-0.06855379767595496,9.805569307267072,0.0,0.0,0.0,0.0,0.0,0.0,0.0,0.0,0.0
2025/05/19 02:09:05.530195829,1747613345,525164226,mA1/imu,0.7617939039342716,-0.6478186475424945,-0.0009038188862853975,0.00048055823390347603,0.0,0.0,0.0,0.0,0.0,0.0,0.0,0.0,0.0,-0.0006909911027233148,-0.00035110768138411127,-0.0023494735715739864,0.0,0.0,0.0,0.0,0.0,0.0,0.0,0.0,0.0,0.021909111620501562,-0.08494608329838128,9.806017339090165,0.0,0.0,0.0,0.0,0.0,0.0,0.0,0.0,0.0
2025/05/19 02:09:05.580157767,1747613345,579224504,mA1/imu,0.7618345271867254,-0.6477708841500525,-0.0009044097980469648,0.000465700069943189,0.0,0.0,0.0,0.0,0.0,0.0,0.0,0.0,0.0,-0.0004948336207100007,-0.00030663755300991576,-0.002553453491771685,0.0,0.0,0.0,0.0,0.0,0.0,0.0,0.0,0.0,0.00019036745207500014,0.554924219505641,9.809309197271828,0.0,0.0,0.0,0.0,0.0,0.0,0.0,0.0,0.0
2025/05/19 02:09:05.632143773,1747613345,630611359,mA1/imu,0.7618766759213281,-0.6477213345958623,-0.0008947494607723885,0.00045035522077120383,0.0,0.0,0.0,0.0,0.0,0.0,0.0,0.0,0.0,0.0005145821910283626,-1.2406150880383328e-05,-0.0027014545841016918,0.0,0.0,0.0,0.0,0.0,0.0,0.0,0.0,0.0,-0.0061420376010674314,-0.024574561928723655,9.809238763302329,0.0,0.0,0.0,0.0,0.0,0.0,0.0,0.0,0.0
2025/05/19 02:09:05.682478183,1747613345,681827031,mA1/imu,0.7619199598386054,-0.6476704503148992,-0.0008763616501312882,0.00044111074750376785,0.0,0.0,0.0,0.0,0.0,0.0,0.0,0.0,0.0,0.0009066065443124367,0.0005696806252301698,-0.002633150288455823,0.0,0.0,0.0,0.0,0.0,0.0,0.0,0.0,0.0,-0.011183866883515492,-0.013807639538969184,9.810334554511188,0.0,0.0,0.0,0.0,0.0,0.0,0.0,0.0,0.0
2025/05/19 02:09:05.724055990,1747613345,723845312,mA1/imu,0.7619617617775,-0.6476213287882738,-0.0008379222312997518,0.00043124676599976723,0.0,0.0,0.0,0.0,0.0,0.0,0.0,0.0,0.0,0.001295077673952787,0.001147824158664741,-0.002558935726037062,0.0,0.0,0.0,0.0,0.0,0.0,0.0,0.0,0.0,-0.010590851520964877,0.10562113128498314,9.809651480849498,0.0,0.0,0.0,0.0,0.0,0.0,0.0,0.0,0.0
2025/05/19 02:09:05.778365506,1747613345,776201300,mA1/imu,0.7620029688582001,-0.6475728956451847,-0.0007940439068604228,0.0004356274481276738,0.0,0.0,0.0,0.0,0.0,0.0,0.0,0.0,0.0,0.0019822531320140445,0.0016355450879587882,-0.0025021537050055652,0.0,0.0,0.0,0.0,0.0,0.0,0.0,0.0,0.0,-0.011776677385450856,-0.5972614385594048,9.807188030015725,0.0,0.0,0.0,0.0,0.0,0.0,0.0,0.0,0.0
2025/05/19 02:09:05.831238428,1747613345,830510725,mA1/imu,0.7620425444046828,-0.6475263989739397,-0.0007305954262412179,0.00043517743785957816,0.0,0.0,0.0,0.0,0.0,0.0,0.0,0.0,0.0,0.002329358750882222,0.0020860360975953124,-0.0023974836675315454,0.0,0.0,0.0,0.0,0.0,0.0,0.0,0.0,0.0,-0.011170802052832902,-0.5822603523282028,9.807997111040937,0.0,0.0,0.0,0.0,0.0,0.0,0.0,0.0,0.0
2025/05/19 02:09:05.873079963,1747613345,872361426,mA1/imu,0.7620803219247076,-0.6474820122991771,-0.0006587974079357629,0.00043894204344689793,0.0,0.0,0.0,0.0,0.0,0.0,0.0,0.0,0.0,0.0025210481142538435,0.002394575769150928,-0.002286937842744562,0.0,0.0,0.0,0.0,0.0,0.0,0.0,0.0,0.0,-0.010225746407219932,-0.5749058944719503,9.809895965072473,0.0,0.0,0.0,0.0,0.0,0.0,0.0,0.0,0.0
2025/05/19 02:09:05.930408861,1747613345,928907444,mA1/imu,0.7621168395785387,-0.6474390983874676,-0.0005824974000190022,0.0004443048749874127,0.0,0.0,0.0,0.0,0.0,0.0,0.0,0.0,0.0,0.001327494453614534,0.0024742726572153837,-0.002242206158786685,0.0,0.0,0.0,0.0,0.0,0.0,0.0,0.0,0.0,-0.005717103029363865,0.6025789343026293,9.811068540667671,0.0,0.0,0.0,0.0,0.0,0.0,0.0,0.0,0.0
2025/05/19 02:09:05.980184130,1747613345,979256438,mA1/imu,0.7621529995969608,-0.6473965870588504,-0.0005097561891578538,0.00045212668007972264,0.0,0.0,0.0,0.0,0.0,0.0,0.0,0.0,0.0,0.0013112244590983224,0.002363320901731356,-0.002223366124854504,0.0,0.0,0.0,0.0,0.0,0.0,0.0,0.0,0.0,-0.00509839276155323,0.2022261534651949,9.81020621240584,0.0,0.0,0.0,0.0,0.0,0.0,0.0,0.0,0.0
2025/05/19 02:09:06.35019652,1747613346,30690570,mA1/imu,0.7621877587757816,-0.6473557091149966,-0.0004407879433073172,0.0004603852296565169,0.0,0.0,0.0,0.0,0.0,0.0,0.0,0.0,0.0,0.0019106773575355213,0.0023095069703362977,-0.0020588829910711715,0.0,0.0,0.0,0.0,0.0,0.0,0.0,0.0,0.0,-0.0068566939133271766,-0.6065149347667537,9.810937588265976,0.0,0.0,0.0,0.0,0.0,0.0,0.0,0.0,0.0
2025/05/19 02:09:06.73051195,1747613346,72774720,mA1/imu,0.7622205747126406,-0.6473171034066588,-0.0003791440759980191,0.00046837134255542405,0.0,0.0,0.0,0.0,0.0,0.0,0.0,0.0,0.0,0.0017988104780731434,0.0018956985734699652,-0.0020140673534848543,0.0,0.0,0.0,0.0,0.0,0.0,0.0,0.0,0.0,-0.002637990994282886,-0.601767743790433,9.81115834160718,0.0,0.0,0.0,0.0,0.0,0.0,0.0,0.0,0.0
2025/05/19 02:09:06.126049928,1747613346,123926085,mA1/imu,0.7622540471244578,-0.6472777221531039,-0.00032635465657165447,0.0004599340303820962,0.0,0.0,0.0,0.0,0.0,0.0,0.0,0.0,0.0,0.00043011017973396397,0.0009523369105607143,-0.0021290899609143553,0.0,0.0,0.0,0.0,0.0,0.0,0.0,0.0,0.0,0.015662174405125674,0.5805835091668136,9.810787115738222,0.0,0.0,0.0,0.0,0.0,0.0,0.0,0.0,0.0
2025/05/19 02:09:06.175988299,1747613346,175670146,mA1/imu,0.7622885079629065,-0.6472371550584705,-0.0003069704138723327,0.00044889716916273235,0.0,0.0,0.0,0.0,0.0,0.0,0.0,0.0,0.0,0.0002648404631664149,-6.77365925457033e-05,-0.0021027374933155507,0.0,0.0,0.0,0.0,0.0,0.0,0.0,0.0,0.0,0.0071855524057209685,0.5900207617521297,9.81146685538711,0.0,0.0,0.0,0.0,0.0,0.0,0.0,0.0,0.0
2025/05/19 02:09:06.232076300,1747613346,230669244,mA1/imu,0.7623219507881998,-0.6471977810130637,-0.00030811916514443375,0.00042504213933204513,0.0,0.0,0.0,0.0,0.0,0.0,0.0,0.0,0.0,0.0005281602661156368,-0.0009561937469893404,-0.0019991984153615245,0.0,0.0,0.0,0.0,0.0,0.0,0.0,0.0,0.0,-0.006799596804447447,-0.04684179451970001,9.813047163260878,0.0,0.0,0.0,0.0,0.0,0.0,0.0,0.0,0.0
2025/05/19 02:09:06.275016779,1747613346,271869325,mA1/imu,0.762348584187191,-0.647166422797851,-0.00031679630734257136,0.0003962712685904997,0.0,0.0,0.0,0.0,0.0,0.0,0.0,0.0,0.0,0.0003598714896873216,-0.0009648473131040177,-0.0013349333039093868,0.0,0.0,0.0,0.0,0.0,0.0,0.0,0.0,0.0,-0.02515610844680874,0.28095961257502056,9.81272601677483,0.0,0.0,0.0,0.0,0.0,0.0,0.0,0.0,0.0
2025/05/19 02:09:06.323709519,1747613346,323506691,mA1/imu,0.7623695859104521,-0.6471416826733606,-0.0003456860929185709,0.00037084571213129937,0.0,0.0,0.0,0.0,0.0,0.0,0.0,0.0,0.0,-0.0008164874318362272,-0.001838913684435644,-0.0012291647503522424,0.0,0.0,0.0,0.0,0.0,0.0,0.0,0.0,0.0,-0.004334503443609647,0.22065712247575378,9.810855793429655,0.0,0.0,0.0,0.0,0.0,0.0,0.0,0.0,0.0
2025/05/19 02:09:06.376505943,1747613346,376320281,mA1/imu,0.762383693485268,-0.6471250560142956,-0.00038431844243577836,0.0003436358399698043,0.0,0.0,0.0,0.0,0.0,0.0,0.0,0.0,0.0,0.0004684995018968132,-0.0018057750961130103,-0.0005380871494770022,0.0,0.0,0.0,0.0,0.0,0.0,0.0,0.0,0.0,-0.027037796229472853,-0.5719911542078306,9.806984797761436,0.0,0.0,0.0,0.0,0.0,0.0,0.0,0.0,0.0
2025/05/19 02:09:06.427096659,1747613346,426628320,mA1/imu,0.7623889387766642,-0.6471188619659939,-0.0004290216370324317,0.0003169530942959745,0.0,0.0,0.0,0.0,0.0,0.0,0.0,0.0,0.0,-0.00017930385388348019,-0.002104153695732823,-9.901220641561764e-05,0.0,0.0,0.0,0.0,0.0,0.0,0.0,0.0,0.0,0.004817580962894046,-0.5066447083083565,9.807998399610147,0.0,0.0,0.0,0.0,0.0,0.0,0.0,0.0,0.0
2025/05/19 02:09:06.480732313,1747613346,480051634,mA1/imu,0.7623886737385513,-0.6471191484258979,-0.00048601374860407514,0.00028580823906503136,0.0,0.0,0.0,0.0,0.0,0.0,0.0,0.0,0.0,-0.0007025100641004259,-0.0028588888192930973,5.7931187902008675e-05,0.0,0.0,0.0,0.0,0.0,0.0,0.0,0.0,0.0,0.016891798247183034,0.009285158691026888,9.809642700620172,0.0,0.0,0.0,0.0,0.0,0.0,0.0,0.0,0.0
2025/05/19 02:09:06.529562025,1747613346,529275716,mA1/imu,0.7623854767894936,-0.6471228668910062,-0.0005623762877295865,0.0002523095971299202,0.0,0.0,0.0,0.0,0.0,0.0,0.0,0.0,0.0,-0.0013229691869521942,-0.003340233051058457,0.00031628220909188175,0.0,0.0,0.0,0.0,0.0,0.0,0.0,0.0,0.0,0.010545237720483287,0.6121975208594183,9.809708870753205,0.0,0.0,0.0,0.0,0.0,0.0,0.0,0.0,0.0
2025/05/19 02:09:06.580196773,1747613346,579313630,mA1/imu,0.7623796448117599,-0.6471296602194666,-0.0006561623739621638,0.00022246768608312294,0.0,0.0,0.0,0.0,0.0,0.0,0.0,0.0,0.0,-0.0021989521781322777,-0.003833044291357668,0.0003658844338107012,0.0,0.0,0.0,0.0,0.0,0.0,0.0,0.0,0.0,0.017509177172043904,-0.064212910733285,9.808317242552604,0.0,0.0,0.0,0.0,0.0,0.0,0.0,0.0,0.0
2025/05/19 02:09:06.632583728,1747613346,631595906,mA1/imu,0.7623730544349925,-0.6471373374048514,-0.0007489749932381089,0.00017732591220780873,0.0,0.0,0.0,0.0,0.0,0.0,0.0,0.0,0.0,-0.0020301503987659917,-0.004043727489230768,0.00044226947222374965,0.0,0.0,0.0,0.0,0.0,0.0,0.0,0.0,0.0,0.0170251034023014,-0.04623103566873899,9.808754483157907,0.0,0.0,0.0,0.0,0.0,0.0,0.0,0.0,0.0
2025/05/19 02:09:06.681086945,1747613346,680425772,mA1/imu,0.7623655107793974,-0.647146114253438,-0.0008468658287963239,0.00013266126912981854,0.0,0.0,0.0,0.0,0.0,0.0,0.0,0.0,0.0,-0.0007329675628752756,-0.004174488247423012,0.0004699207379886815,0.0,0.0,0.0,0.0,0.0,0.0,0.0,0.0,0.0,0.017580089658534533,0.04915438244994767,9.809959016590772,0.0,0.0,0.0,0.0,0.0,0.0,0.0,0.0,0.0
2025/05/19 02:09:06.724241578,1747613346,723730451,mA1/imu,0.7623579334875455,-0.6471549018463002,-0.0009514508667143723,9.490075067011475e-05,0.0,0.0,0.0,0.0,0.0,0.0,0.0,0.0,0.0,0.00015454694778704962,-0.004148331417948931,0.00044908237315266665,0.0,0.0,0.0,0.0,0.0,0.0,0.0,0.0,0.0,0.016753891162110707,-0.14102927459508838,9.807893771382052,0.0,0.0,0.0,0.0,0.0,0.0,0.0,0.0,0.0
2025/05/19 02:09:06.775383813,1747613346,774526413,mA1/imu,0.7623505140238914,-0.6471634926693504,-0.0010507252470645671,5.9160555137868776e-05,0.0,0.0,0.0,0.0,0.0,0.0,0.0,0.0,0.0,-0.000536233045356443,-0.00379317129121903,0.0004576019434563132,0.0,0.0,0.0,0.0,0.0,0.0,0.0,0.0,0.0,0.01592713320738243,-0.12374407353542255,9.80867021181257,0.0,0.0,0.0,0.0,0.0,0.0,0.0,0.0,0.0
2025/05/19 02:09:06.827262412,1747613346,826514810,mA1/imu,0.7623428547314625,-0.6471723668487116,-0.001139522686158247,3.0255061550089435e-05,0.0,0.0,0.0,0.0,0.0,0.0,0.0,0.0,0.0,-0.00026044015675259633,-0.0032173341068705706,0.00047419330582930023,0.0,0.0,0.0,0.0,0.0,0.0,0.0,0.0,0.0,0.014599864393647029,-0.5445312409054539,9.807879347802569,0.0,0.0,0.0,0.0,0.0,0.0,0.0,0.0,0.0
2025/05/19 02:09:06.875316040,1747613346,875140924,mA1/imu,0.7623349401254784,-0.64718155667722,-0.0012131249985988628,9.405914459426675e-06,0.0,0.0,0.0,0.0,0.0,0.0,0.0,0.0,0.0,-0.0008484146776863193,-0.0024722018335573033,0.0004905275330132046,0.0,0.0,0.0,0.0,0.0,0.0,0.0,0.0,0.0,0.014782410043484837,0.11890241815639256,9.809638862334065,0.0,0.0,0.0,0.0,0.0,0.0,0.0,0.0,0.0
2025/05/19 02:09:06.922608721,1747613346,922332694,mA1/imu,0.7623257072711628,-0.6471923295830607,-0.0012667119770824044,1.7718900399160296e-06,0.0,0.0,0.0,0.0,0.0,0.0,0.0,0.0,0.0,-0.001822065294085317,-0.0013518554212475396,0.000647294537544714,0.0,0.0,0.0,0.0,0.0,0.0,0.0,0.0,0.0,0.012679437468836145,0.39651436273779794,9.809579974064992,0.0,0.0,0.0,0.0,0.0,0.0,0.0,0.0,0.0
2025/05/19 02:09:06.978364655,1747613346,976952119,mA1/imu,0.7623147488154786,-0.6472051864644468,-0.0012924190315234292,2.2274394572294404e-06,0.0,0.0,0.0,0.0,0.0,0.0,0.0,0.0,0.0,-0.0002686464499784496,-0.000402578333846842,0.0006874614833063315,0.0,0.0,0.0,0.0,0.0,0.0,0.0,0.0,0.0,0.015590142698737947,0.024975863938076794,9.810464560382128,0.0,0.0,0.0,0.0,0.0,0.0,0.0,0.0,0.0
2025/05/19 02:09:07.24503680,1747613347,24220313,mA1/imu,0.762303806830157,-0.6472180638068025,-0.0012975857803727846,1.5670588313263954e-05,0.0,0.0,0.0,0.0,0.0,0.0,0.0,0.0,0.0,-0.0010006540140855176,0.0005801455435998904,0.0006507913879334257,0.0,0.0,0.0,0.0,0.0,0.0,0.0,0.0,0.0,0.014769598130068406,-0.0457848030439618,9.812301427874782,0.0,0.0,0.0,0.0,0.0,0.0,0.0,0.0,0.0
2025/05/19 02:09:07.81607962,1747613347,78570806,mA1/imu,0.7622933067280634,-0.6472304747728268,-0.0012751097045486028,3.373688295411762e-05,0.0,0.0,0.0,0.0,0.0,0.0,0.0,0.0,0.0,0.0007340618896632243,0.001535741411975073,0.0006588666844954387,0.0,0.0,0.0,0.0,0.0,0.0,0.0,0.0,0.0,0.013715846619916431,-0.5733784315168903,9.809200956292448,0.0,0.0,0.0,0.0,0.0,0.0,0.0,0.0,0.0
2025/05/19 02:09:07.124972101,1747613347,123953550,mA1/imu,0.7622825241118988,-0.6472432542914581,-0.001232560078889196,6.327279947182258e-05,0.0,0.0,0.0,0.0,0.0,0.0,0.0,0.0,0.0,-2.4347857418793903e-05,0.002394738177240642,0.0006780924024514994,0.0,0.0,0.0,0.0,0.0,0.0,0.0,0.0,0.0,0.015478483293688207,0.44794826504004576,9.811123188551704,0.0,0.0,0.0,0.0,0.0,0.0,0.0,0.0,0.0
2025/05/19 02:09:07.173801540,1747613347,173271763,mA1/imu,0.7622714512638002,-0.6472564018793823,-0.0011723739647249726,0.00010175274917777004,0.0,0.0,0.0,0.0,0.0,0.0,0.0,0.0,0.0,0.00013314840685730664,0.003096190202827909,0.0006972030578971105,0.0,0.0,0.0,0.0,0.0,0.0,0.0,0.0,0.0,0.01563031740056974,-0.05906053900156695,9.811367883114986,0.0,0.0,0.0,0.0,0.0,0.0,0.0,0.0,0.0
2025/05/19 02:09:07.227386194,1747613347,226774956,mA1/imu,0.7622618863642653,-0.6472677960502288,-0.001094898885355486,0.00013412345902273778,0.0,0.0,0.0,0.0,0.0,0.0,0.0,0.0,0.0,3.136865040589281e-05,0.0030999876995721877,0.00045494991143546845,0.0,0.0,0.0,0.0,0.0,0.0,0.0,0.0,0.0,0.040933696506997616,0.20290873152943803,9.812746826089292,0.0,0.0,0.0,0.0,0.0,0.0,0.0,0.0,0.0
2025/05/19 02:09:07.281469292,1747613347,280244237,mA1/imu,0.7622549736232819,-0.6472760612941761,-0.0010149737272807575,0.00015965713509549458,0.0,0.0,0.0,0.0,0.0,0.0,0.0,0.0,0.0,0.00031343698837108615,0.003177218066925503,0.00048562567284713716,0.0,0.0,0.0,0.0,0.0,0.0,0.0,0.0,0.0,0.020819474559894618,0.567090046009278,9.8098459798267,0.0,0.0,0.0,0.0,0.0,0.0,0.0,0.0,0.0
2025/05/19 02:09:07.322521463,1747613347,321319152,mA1/imu,0.7622434271285616,-0.6472897908275933,-0.0009225704812992196,0.00018262908437171525,0.0,0.0,0.0,0.0,0.0,0.0,0.0,0.0,0.0,0.0019760778910866976,0.003687936877041991,0.0009624590668614766,0.0,0.0,0.0,0.0,0.0,0.0,0.0,0.0,0.0,0.01027476519909687,0.12149075088991863,9.808866848874965,0.0,0.0,0.0,0.0,0.0,0.0,0.0,0.0,0.0
