time,header_stamp_secs,header_stamp_nsecs,header_frame_id,orientation_x,orientation_y,orientation_z,orientation_w,orientation_covariance_0,orientation_covariance_1,orientation_covariance_2,orientation_covariance_3,orientation_covariance_4,orientation_covariance_5,orientation_covariance_6,orientation_covariance_7,orientation_covariance_8,angular_velocity_x,angular_velocity_y,angular_velocity_z,angular_velocity_covariance_0,angular_velocity_covariance_1,angular_velocity_covariance_2,angular_velocity_covariance_3,angular_velocity_covariance_4,angular_velocity_covariance_5,angular_velocity_covariance_6,angular_velocity_covariance_7,angular_velocity_covariance_8,linear_acceleration_x,linear_acceleration_y,linear_acceleration_z,linear_acceleration_covariance_0,linear_acceleration_covariance_1,linear_acceleration_covariance_2,linear_acceleration_covariance_3,linear_acceleration_covariance_4,linear_acceleration_covariance_5,linear_acceleration_covariance_6,linear_acceleration_covariance_7,linear_acceleration_covariance_8
2025/05/21 13:29:48.484789702,1747826988,431103054,mA1/imu,0.38377575788442175,0.9234258932996096,0.0005748620659724249,0.0006758532836643712,0.0,0.0,0.0,0.0,0.0,0.0,0.0,0.0,0.0,-0.000809103192897138,1.215768450866682e-05,-6.373822336418505e-05,0.0,0.0,0.0,0.0,0.0,0.0,0.0,0.0,0.0,0.008325332157704878,-0.06994686489164523,9.809375183176499,0.0,0.0,0.0,0.0,0.0,0.0,0.0,0.0,0.0
2025/05/21 13:29:48.486521351,1747826988,481806102,mA1/imu,0.3837742892468947,0.9234265061722137,0.0005721688322421904,0.0006747106392463839,0.0,0.0,0.0,0.0,0.0,0.0,0.0,0.0,0.0,-0.0009650499488387219,8.589005177981552e-06,-6.374537190692212e-05,0.0,0.0,0.0,0.0,0.0,0.0,0.0,0.0,0.0,0.007936444299904529,0.5506376764338671,9.810505423497752,0.0,0.0,0.0,0.0,0.0,0.0,0.0,0.0,0.0
2025/05/21 13:29:48.532950347,1747826988,532804138,mA1/imu,0.3837728210219374,0.9234271189612281,0.0005691435069652407,0.0006737117325613495,0.0,0.0,0.0,0.0,0.0,0.0,0.0,0.0,0.0,0.000594690858797865,-1.0608441491742718e-05,-6.367675456389878e-05,0.0,0.0,0.0,0.0,0.0,0.0,0.0,0.0,0.0,0.007506111135789846,0.031086756444900936,9.809264287214118,0.0,0.0,0.0,0.0,0.0,0.0,0.0,0.0,0.0
2025/05/21 13:29:48.582829873,1747826988,582673098,mA1/imu,0.38377134730774476,0.9234277269357185,0.0005736733902542658,0.000676025718145892,0.0,0.0,0.0,0.0,0.0,0.0,0.0,0.0,0.0,0.0006968906150863429,-2.8077360414224082e-05,-6.362965444892436e-05,0.0,0.0,0.0,0.0,0.0,0.0,0.0,0.0,0.0,0.008268096242103465,0.0357357989040765,9.811394051628751,0.0,0.0,0.0,0.0,0.0,0.0,0.0,0.0,0.0
2025/05/21 13:29:48.634309488,1747826988,633843064,mA1/imu,0.3837698733544932,0.9234283341728287,0.0005789464171718989,0.000678802855756188,0.0,0.0,0.0,0.0,0.0,0.0,0.0,0.0,0.0,0.0008415215819983211,-3.155769201327148e-05,-6.36336239358162e-05,0.0,0.0,0.0,0.0,0.0,0.0,0.0,0.0,0.0,0.0077609434650329125,-0.5804254504783682,9.810509817181092,0.0,0.0,0.0,0.0,0.0,0.0,0.0,0.0,0.0
2025/05/21 13:29:48.683702437,1747826988,683487436,mA1/imu,0.38376839951965236,0.9234289404100026,0.0005850460272079163,0.0006821030203101946,0.0,0.0,0.0,0.0,0.0,0.0,0.0,0.0,0.0,-0.0007518099015303949,-3.238227144559305e-05,-6.3680306870577e-05,0.0,0.0,0.0,0.0,0.0,0.0,0.0,0.0,0.0,0.008312020202267543,-0.06111988744458299,9.809005938874623,0.0,0.0,0.0,0.0,0.0,0.0,0.0,0.0,0.0
2025/05/21 13:29:48.735374097,1747826988,734574247,mA1/imu,0.383766932117512,0.9234295507068165,0.0005838497928105973,0.000682505633267897,0.0,0.0,0.0,0.0,0.0,0.0,0.0,0.0,0.0,-0.0008753248877994313,-2.9710904695723157e-05,-6.364540357610325e-05,0.0,0.0,0.0,0.0,0.0,0.0,0.0,0.0,0.0,0.0082845513374231,-0.06992916738481009,9.809309588359666,0.0,0.0,0.0,0.0,0.0,0.0,0.0,0.0,0.0
2025/05/21 13:29:48.784494994,1747826988,784201021,mA1/imu,0.38376546588339866,0.9234301610223251,0.0005820415434929352,0.000682742427536392,0.0,0.0,0.0,0.0,0.0,0.0,0.0,0.0,0.0,-0.0010102686385071566,-2.543876865369168e-05,-6.361794797221917e-05,0.0,0.0,0.0,0.0,0.0,0.0,0.0,0.0,0.0,0.007894373195559369,0.5506753824917755,9.810435804547202,0.0,0.0,0.0,0.0,0.0,0.0,0.0,0.0,0.0
2025/05/21 13:29:48.836294030,1747826988,836068942,mA1/imu,0.38376400092067253,0.9234307714917123,0.0005794758369680168,0.0006826912431636672,0.0,0.0,0.0,0.0,0.0,0.0,0.0,0.0,0.0,0.0005723958189694846,-3.446801127681104e-05,-6.352157307079918e-05,0.0,0.0,0.0,0.0,0.0,0.0,0.0,0.0,0.0,0.007471264458742022,0.031115351102983052,9.809176708532606,0.0,0.0,0.0,0.0,0.0,0.0,0.0,0.0,0.0
2025/05/21 13:29:48.876041499,1747826988,875769506,mA1/imu,0.3837625309594852,0.9234313774550644,0.0005840233342122784,0.0006854777585360603,0.0,0.0,0.0,0.0,0.0,0.0,0.0,0.0,0.0,0.0006985008891467476,-4.050612365854586e-05,-6.346516747430781e-05,0.0,0.0,0.0,0.0,0.0,0.0,0.0,0.0,0.0,0.008215498791497189,0.0357553189570768,9.811318586110772,0.0,0.0,0.0,0.0,0.0,0.0,0.0,0.0,0.0
2025/05/21 13:29:48.927070582,1747826988,926741009,mA1/imu,0.383761061046254,0.9234319831975528,0.0005888739810593256,0.0006882295562895439,0.0,0.0,0.0,0.0,0.0,0.0,0.0,0.0,0.0,0.0008668502072373637,-3.243542439804522e-05,-6.347605905935548e-05,0.0,0.0,0.0,0.0,0.0,0.0,0.0,0.0,0.0,0.007719929017798388,-0.5804116295039382,9.810455824534333,0.0,0.0,0.0,0.0,0.0,0.0,0.0,0.0,0.0
2025/05/21 13:29:48.978159860,1747826988,977999232,mA1/imu,0.38375959121921627,0.9234325885860789,0.0005941329032278577,0.0006910069224001884,0.0,0.0,0.0,0.0,0.0,0.0,0.0,0.0,0.0,-0.0007038229592950778,-2.108117520544628e-05,-6.353448122909694e-05,0.0,0.0,0.0,0.0,0.0,0.0,0.0,0.0,0.0,0.008262158612010038,-0.06109032566958765,9.808961414866321,0.0,0.0,0.0,0.0,0.0,0.0,0.0,0.0,0.0
2025/05/21 13:29:49.29987419,1747826989,28975293,mA1/imu,0.38375812750944077,0.9234331988663915,0.0005917171849903352,0.0006904148059487872,0.0,0.0,0.0,0.0,0.0,0.0,0.0,0.0,0.0,-0.0008071189735764113,-7.426186830165872e-06,-6.352718394823952e-05,0.0,0.0,0.0,0.0,0.0,0.0,0.0,0.0,0.0,0.008257401403510353,-0.06990964907927348,9.809285826827924,0.0,0.0,0.0,0.0,0.0,0.0,0.0,0.0,0.0
2025/05/21 13:29:49.78828331,1747826989,78723517,mA1/imu,0.38375666430222627,0.9234338099579894,0.0005883605533178029,0.0006892473864129745,0.0,0.0,0.0,0.0,0.0,0.0,0.0,0.0,0.0,-0.000924777341396588,6.488606463549244e-06,-6.35371133322636e-05,0.0,0.0,0.0,0.0,0.0,0.0,0.0,0.0,0.0,0.007857369694966941,0.5506853971866393,9.810420682530737,0.0,0.0,0.0,0.0,0.0,0.0,0.0,0.0,0.0
2025/05/21 13:29:49.129869209,1747826989,129705556,mA1/imu,0.38375520146346614,0.9234344219855222,0.0005839796403133311,0.0006874662019102228,0.0,0.0,0.0,0.0,0.0,0.0,0.0,0.0,0.0,0.0006709692726735397,4.2090106833031156e-06,-6.349741087920457e-05,0.0,0.0,0.0,0.0,0.0,0.0,0.0,0.0,0.0,0.00744596682245722,0.03110815404954669,9.809186938433847,0.0,0.0,0.0,0.0,0.0,0.0,0.0,0.0,0.0
2025/05/21 13:29:49.179806546,1747826989,179676018,mA1/imu,0.38375373259183765,0.9234350301862045,0.0005865230398633128,0.0006882859575601113,0.0,0.0,0.0,0.0,0.0,0.0,0.0,0.0,0.0,0.0008058484249972215,3.0966658827971224e-06,-6.350278772381709e-05,0.0,0.0,0.0,0.0,0.0,0.0,0.0,0.0,0.0,0.008206081772128605,0.03577311738061199,9.811337781207056,0.0,0.0,0.0,0.0,0.0,0.0,0.0,0.0,0.0
2025/05/21 13:29:49.231907069,1747826989,231508502,mA1/imu,0.3837522626960463,0.9234356387948559,0.0005892682300941722,0.0006889427799781504,0.0,0.0,0.0,0.0,0.0,0.0,0.0,0.0,0.0,0.0009777208704523854,1.3042898311169313e-05,-6.355562335886984e-05,0.0,0.0,0.0,0.0,0.0,0.0,0.0,0.0,0.0,0.007732259435099318,-0.5804140797817003,9.810512216023405,0.0,0.0,0.0,0.0,0.0,0.0,0.0,0.0,0.0
2025/05/21 13:29:49.281056651,1747826989,280614485,mA1/imu,0.38375079167627757,0.9234362475922574,0.0005924053047443977,0.0006896205595827811,0.0,0.0,0.0,0.0,0.0,0.0,0.0,0.0,0.0,-0.0005942477855031831,2.325762287339992e-05,-6.365431242173408e-05,0.0,0.0,0.0,0.0,0.0,0.0,0.0,0.0,0.0,0.008279083964897502,-0.061090118922552714,9.809040001405235,0.0,0.0,0.0,0.0,0.0,0.0,0.0,0.0,0.0
2025/05/21 13:29:49.332791597,1747826989,332395487,mA1/imu,0.38374932557923724,0.9234368616302415,0.000587943278437926,0.0006870390615609734,0.0,0.0,0.0,0.0,0.0,0.0,0.0,0.0,0.0,-0.0007040168296524463,3.289353022792519e-05,-6.36928368648257e-05,0.0,0.0,0.0,0.0,0.0,0.0,0.0,0.0,0.0,0.008287696583015992,-0.06992459635699061,9.809367392243534,0.0,0.0,0.0,0.0,0.0,0.0,0.0,0.0,0.0
2025/05/21 13:29:49.381953652,1747826989,381790454,mA1/imu,0.3837478589319128,0.9234374766268189,0.0005827066818856733,0.0006840900445417675,0.0,0.0,0.0,0.0,0.0,0.0,0.0,0.0,0.0,-0.0008326686696011251,4.071437991947936e-05,-6.374170936920262e-05,0.0,0.0,0.0,0.0,0.0,0.0,0.0,0.0,0.0,0.007901933554964205,0.550662010003198,9.81048446232043,0.0,0.0,0.0,0.0,0.0,0.0,0.0,0.0,0.0
2025/05/21 13:29:49.433843870,1747826989,433617151,mA1/imu,0.3837463917450715,0.9234380925260289,0.0005766944273320129,0.0006808216102211909,0.0,0.0,0.0,0.0,0.0,0.0,0.0,0.0,0.0,0.0007476616034931905,3.072316469755319e-05,-6.373927157464802e-05,0.0,0.0,0.0,0.0,0.0,0.0,0.0,0.0,0.0,0.007495319315901054,0.031078130192790182,9.809254654512943,0.0,0.0,0.0,0.0,0.0,0.0,0.0,0.0,0.0
2025/05/21 13:29:49.483478794,1747826989,483109766,mA1/imu,0.3837449178808588,0.9234387044550234,0.0005779219794509914,0.0006805301068969374,0.0,0.0,0.0,0.0,0.0,0.0,0.0,0.0,0.0,0.0008637514662618422,1.978982890401763e-05,-6.37697657825681e-05,0.0,0.0,0.0,0.0,0.0,0.0,0.0,0.0,0.0,0.008266338908934587,0.03575835426828486,9.811384292843147,0.0,0.0,0.0,0.0,0.0,0.0,0.0,0.0,0.0
2025/05/21 13:29:49.534470389,1747826989,534271260,mA1/imu,0.3837434424885041,0.9234393164625992,0.0005797232708300221,0.0006804991468791621,0.0,0.0,0.0,0.0,0.0,0.0,0.0,0.0,0.0,0.0010143933020057279,2.000250899128167e-05,-6.382572785779126e-05,0.0,0.0,0.0,0.0,0.0,0.0,0.0,0.0,0.0,0.007768819784876429,-0.5804385411637052,9.81057868242705,0.0,0.0,0.0,0.0,0.0,0.0,0.0,0.0,0.0
2025/05/21 13:29:49.584298371,1747826989,584150643,mA1/imu,0.3837419656582098,0.9234399282178173,0.0005823314828929185,0.0006809228221156226,0.0,0.0,0.0,0.0,0.0,0.0,0.0,0.0,0.0,-0.0005799298560422863,2.054653923249498e-05,-6.392144935395888e-05,0.0,0.0,0.0,0.0,0.0,0.0,0.0,0.0,0.0,0.008321798551513705,-0.06111464608000363,9.809097197099375,0.0,0.0,0.0,0.0,0.0,0.0,0.0,0.0,0.0
2025/05/21 13:29:49.635519336,1747826989,635340996,mA1/imu,0.3837404935992165,0.9234405445611454,0.0005777803656724081,0.0006785298031572119,0.0,0.0,0.0,0.0,0.0,0.0,0.0,0.0,0.0,-0.0007127956116156295,2.0925252604575827e-05,-6.394908770722501e-05,0.0,0.0,0.0,0.0,0.0,0.0,0.0,0.0,0.0,0.00832190521388764,-0.06995336955120829,9.809410866964866,0.0,0.0,0.0,0.0,0.0,0.0,0.0,0.0,0.0
2025/05/21 13:29:49.685262048,1747826989,685021049,mA1/imu,0.3837390211338184,0.9234411612015807,0.0005728976343415457,0.0006761998488533108,0.0,0.0,0.0,0.0,0.0,0.0,0.0,0.0,0.0,-0.0008640768090874869,2.0187258624792912e-05,-6.397853207617848e-05,0.0,0.0,0.0,0.0,0.0,0.0,0.0,0.0,0.0,0.007911199591712176,0.5506544806075898,9.810489442885563,0.0,0.0,0.0,0.0,0.0,0.0,0.0,0.0,0.0
2025/05/21 13:29:49.726446383,1747826989,726219602,mA1/imu,0.3837375485018164,0.923441778039207,0.0005676665827238597,0.0006739408394830517,0.0,0.0,0.0,0.0,0.0,0.0,0.0,0.0,0.0,0.0006950569744024712,2.6478201252942257e-06,-6.394383238310746e-05,0.0,0.0,0.0,0.0,0.0,0.0,0.0,0.0,0.0,0.007510964711848037,0.03107816351484316,9.809217763714347,0.0,0.0,0.0,0.0,0.0,0.0,0.0,0.0,0.0
2025/05/21 13:29:49.776265399,1747826989,775842573,mA1/imu,0.3837360697940953,0.9234423902731715,0.0005700679751646971,0.0006749874488889326,0.0,0.0,0.0,0.0,0.0,0.0,0.0,0.0,0.0,0.0007925411979925277,-1.3237337141542723e-05,-6.392907075000091e-05,0.0,0.0,0.0,0.0,0.0,0.0,0.0,0.0,0.0,0.008257625367134877,0.035737337943515204,9.811341675156601,0.0,0.0,0.0,0.0,0.0,0.0,0.0,0.0,0.0
2025/05/21 13:29:49.827411718,1747826989,827047060,mA1/imu,0.38373459026023804,0.9234430018977473,0.0005733932748487403,0.0006765382743484311,0.0,0.0,0.0,0.0,0.0,0.0,0.0,0.0,0.0,0.0009278999672516075,-1.6124602151565274e-05,-6.394519229260554e-05,0.0,0.0,0.0,0.0,0.0,0.0,0.0,0.0,0.0,0.007767203518060551,-0.5804561899335354,9.810510299855903,0.0,0.0,0.0,0.0,0.0,0.0,0.0,0.0,0.0
2025/05/21 13:29:49.877018549,1747826989,876795060,mA1/imu,0.38373311017318157,0.923443612587544,0.000577804886286342,0.0006787264516375305,0.0,0.0,0.0,0.0,0.0,0.0,0.0,0.0,0.0,-0.0006778102732552701,-1.7340424149277542e-05,-6.400138732927278e-05,0.0,0.0,0.0,0.0,0.0,0.0,0.0,0.0,0.0,0.008309180371605305,-0.0611376539938751,9.809027045893131,0.0,0.0,0.0,0.0,0.0,0.0,0.0,0.0,0.0
2025/05/21 13:29:49.928580058,1747826989,928094501,mA1/imu,0.3837316358867551,0.9234442272076313,0.0005752574717924267,0.0006781853853188998,0.0,0.0,0.0,0.0,0.0,0.0,0.0,0.0,0.0,-0.0008174414584967034,-1.6238343900188762e-05,-6.397970356499156e-05,0.0,0.0,0.0,0.0,0.0,0.0,0.0,0.0,0.0,0.00829739218679984,-0.06995682307066475,9.809333068065607,0.0,0.0,0.0,0.0,0.0,0.0,0.0,0.0,0.0
2025/05/21 13:29:49.977982353,1747826989,977718294,mA1/imu,0.38373016282260614,0.9234448418027799,0.0005720775317339202,0.0006775066588493987,0.0,0.0,0.0,0.0,0.0,0.0,0.0,0.0,0.0,-0.0009582172543903018,-1.3041116459401782e-05,-6.394709738962786e-05,0.0,0.0,0.0,0.0,0.0,0.0,0.0,0.0,0.0,0.007890843006621788,0.5515237915757629,9.81037801276869,0.0,0.0,0.0,0.0,0.0,0.0,0.0,0.0,0.0
2025/05/21 13:29:50.30254577,1747826990,29808394,mA1/imu,0.38372869066862436,0.9234454560130779,0.000568824082967817,0.0006768793868639122,0.0,0.0,0.0,0.0,0.0,0.0,0.0,0.0,0.0,0.0005962868758875025,-2.474550457613447e-05,-6.384675612701564e-05,0.0,0.0,0.0,0.0,0.0,0.0,0.0,0.0,0.0,0.00747274943478406,0.031464424673790625,9.809163090826527,0.0,0.0,0.0,0.0,0.0,0.0,0.0,0.0,0.0
2025/05/21 13:29:50.79822876,1747826990,79628045,mA1/imu,0.38372721341867416,0.9234460652667886,0.0005732600436227146,0.0006794101467509758,0.0,0.0,0.0,0.0,0.0,0.0,0.0,0.0,0.0,0.0006966940440096938,-3.437791754810482e-05,-6.377670011772979e-05,0.0,0.0,0.0,0.0,0.0,0.0,0.0,0.0,0.0,0.008236695812552874,0.035898783448633204,9.811316571986485,0.0,0.0,0.0,0.0,0.0,0.0,0.0,0.0,0.0
2025/05/21 13:29:50.131467093,1747826990,130995413,mA1/imu,0.38372573625662126,0.9234466737313398,0.0005785227675800537,0.0006822171545295718,0.0,0.0,0.0,0.0,0.0,0.0,0.0,0.0,0.0,0.000841130807967404,-2.9705130240118187e-05,-6.376510067594609e-05,0.0,0.0,0.0,0.0,0.0,0.0,0.0,0.0,0.0,0.007725619700454642,-0.5803686604910068,9.81051970267742,0.0,0.0,0.0,0.0,0.0,0.0,0.0,0.0,0.0
2025/05/21 13:29:50.180902781,1747826990,180552958,mA1/imu,0.3837242594295128,0.9234472812124571,0.0005846679988349193,0.0006853538679544772,0.0,0.0,0.0,0.0,0.0,0.0,0.0,0.0,0.0,-0.0007512338404457093,-2.2642889581585174e-05,-6.380012123158459e-05,0.0,0.0,0.0,0.0,0.0,0.0,0.0,0.0,0.0,0.00828955116585542,-0.061115852279246374,9.808971292091284,0.0,0.0,0.0,0.0,0.0,0.0,0.0,0.0,0.0
2025/05/21 13:29:50.232679051,1747826990,232391677,mA1/imu,0.3837227891388273,0.9234478928241036,0.0005835605788669365,0.0006854132278083371,0.0,0.0,0.0,0.0,0.0,0.0,0.0,0.0,0.0,-0.0008730686559146245,-1.285686915743168e-05,-6.375989292312374e-05,0.0,0.0,0.0,0.0,0.0,0.0,0.0,0.0,0.0,0.00826655067913275,-0.06994482189165652,9.80930340800853,0.0,0.0,0.0,0.0,0.0,0.0,0.0,0.0,0.0
2025/05/21 13:29:50.282268067,1747826990,281647703,mA1/imu,0.3837213199758291,0.9234485045696745,0.000581881271949732,0.0006851410253762072,0.0,0.0,0.0,0.0,0.0,0.0,0.0,0.0,0.0,-0.0010062035331135637,-2.314260270938087e-06,-6.373253634067979e-05,0.0,0.0,0.0,0.0,0.0,0.0,0.0,0.0,0.0,0.007880970688610265,0.5506647457858234,9.810377006377802,0.0,0.0,0.0,0.0,0.0,0.0,0.0,0.0,0.0
2025/05/21 13:29:50.333900067,1747826990,333317366,mA1/imu,0.3837198519111155,0.9234491166136031,0.0005794647364978014,0.0006844673017494206,0.0,0.0,0.0,0.0,0.0,0.0,0.0,0.0,0.0,0.0005775638529136784,-7.921483846082514e-06,-6.364555025134887e-05,0.0,0.0,0.0,0.0,0.0,0.0,0.0,0.0,0.0,0.007466585026740172,0.03112849480750767,9.809209543170702,0.0,0.0,0.0,0.0,0.0,0.0,0.0,0.0,0.0
2025/05/21 13:29:50.382890792,1747826990,382595560,mA1/imu,0.38371837859173,0.9234497243080677,0.0005841671362669916,0.0006865530166229382,0.0,0.0,0.0,0.0,0.0,0.0,0.0,0.0,0.0,0.000704119215108123,-1.1294353496239776e-05,-6.360159270254128e-05,0.0,0.0,0.0,0.0,0.0,0.0,0.0,0.0,0.0,0.008212406096868697,0.035784732047781154,9.81135918707359,0.0,0.0,0.0,0.0,0.0,0.0,0.0,0.0,0.0
2025/05/21 13:29:50.428097362,1747826990,426962677,mA1/imu,0.3837169050394312,0.9234503319437237,0.0005891696671587031,0.0006885485384717212,0.0,0.0,0.0,0.0,0.0,0.0,0.0,0.0,0.0,0.0008725989526485543,-1.9413169443728482e-06,-6.362460374899276e-05,0.0,0.0,0.0,0.0,0.0,0.0,0.0,0.0,0.0,0.007733369881461052,-0.5804091542442745,9.810595688351388,0.0,0.0,0.0,0.0,0.0,0.0,0.0,0.0,0.0
2025/05/21 13:29:50.476659897,1747826990,476443040,mA1/imu,0.3837154312189746,0.9234509393856299,0.0005945626958281018,0.0006905703691208959,0.0,0.0,0.0,0.0,0.0,0.0,0.0,0.0,0.0,-0.0006977681455340011,8.293994273484808e-06,-6.369807646007163e-05,0.0,0.0,0.0,0.0,0.0,0.0,0.0,0.0,0.0,0.008277217793404288,-0.0611144509334896,9.809058126518277,0.0,0.0,0.0,0.0,0.0,0.0,0.0,0.0,0.0
2025/05/21 13:29:50.527600716,1747826990,527461990,mA1/imu,0.3837139631297244,0.9234515518606479,0.000592253415075196,0.0006892759491561224,0.0,0.0,0.0,0.0,0.0,0.0,0.0,0.0,0.0,-0.0008005224848374234,1.885239543970651e-05,-6.370900944945764e-05,0.0,0.0,0.0,0.0,0.0,0.0,0.0,0.0,0.0,0.008275703649127024,-0.06993857643353255,9.809378318695824,0.0,0.0,0.0,0.0,0.0,0.0,0.0,0.0,0.0
2025/05/21 13:29:50.577646232,1747826990,577353435,mA1/imu,0.3837124951853842,0.9234521652469078,0.0005889765456071748,0.0006874925695262243,0.0,0.0,0.0,0.0,0.0,0.0,0.0,0.0,0.0,-0.0009178699825142014,2.8732453622470935e-05,-6.37359927200075e-05,0.0,0.0,0.0,0.0,0.0,0.0,0.0,0.0,0.0,0.007879970924951978,0.5506744499914694,9.810429971655203,0.0,0.0,0.0,0.0,0.0,0.0,0.0,0.0,0.0
2025/05/21 13:29:50.628968410,1747826990,628462177,mA1/imu,0.383711027297761,0.9234527796345947,0.0005846467912500563,0.0006852031575035264,0.0,0.0,0.0,0.0,0.0,0.0,0.0,0.0,0.0,0.000677361220929586,2.1616639867821876e-05,-6.371256417472778e-05,0.0,0.0,0.0,0.0,0.0,0.0,0.0,0.0,0.0,0.007479918068165678,0.03112783545147868,9.809258428995893,0.0,0.0,0.0,0.0,0.0,0.0,0.0,0.0,0.0
2025/05/21 13:29:50.678585357,1747826990,678293441,mA1/imu,0.38370955313451427,0.9234533902126367,0.0005872023063519981,0.0006856613964976802,0.0,0.0,0.0,0.0,0.0,0.0,0.0,0.0,0.0,0.000810780278581354,1.3868349460638295e-05,-6.37327530723072e-05,0.0,0.0,0.0,0.0,0.0,0.0,0.0,0.0,0.0,0.008243246011053241,0.035803926182671905,9.811396562998462,0.0,0.0,0.0,0.0,0.0,0.0,0.0,0.0,0.0
2025/05/21 13:29:50.729871376,1747826990,729290782,mA1/imu,0.38370807776135357,0.9234540011813255,0.0005899133950000155,0.0006861232206290056,0.0,0.0,0.0,0.0,0.0,0.0,0.0,0.0,0.0,0.0009809811606934526,1.726307689041379e-05,-6.379438223279405e-05,0.0,0.0,0.0,0.0,0.0,0.0,0.0,0.0,0.0,0.0077558792827593405,-0.5804121291609663,9.810637057435056,0.0,0.0,0.0,0.0,0.0,0.0,0.0,0.0,0.0
2025/05/21 13:29:50.779391304,1747826990,779072653,mA1/imu,0.38370660116890754,0.9234546122862177,0.00059297604461531,0.0006867649718710989,0.0,0.0,0.0,0.0,0.0,0.0,0.0,0.0,0.0,-0.0005921687921690363,2.0711648067161274e-05,-6.389939670502077e-05,0.0,0.0,0.0,0.0,0.0,0.0,0.0,0.0,0.0,0.00830526145600141,-0.06112187410770558,9.809073529460358,0.0,0.0,0.0,0.0,0.0,0.0,0.0,0.0,0.0
2025/05/21 13:29:50.830432960,1747826990,830037488,mA1/imu,0.38370512946570423,0.923455228543949,0.0005884043217088491,0.0006843076093933123,0.0,0.0,0.0,0.0,0.0,0.0,0.0,0.0,0.0,-0.0007025745401254137,2.4183074204483008e-05,-6.393971402667654e-05,0.0,0.0,0.0,0.0,0.0,0.0,0.0,0.0,0.0,0.008306622077460236,-0.06996305233831768,9.809383146591436,0.0,0.0,0.0,0.0,0.0,0.0,0.0,0.0,0.0
2025/05/21 13:29:50.879981784,1747826990,879839381,mA1/imu,0.38369881365013825,0.9234578553119868,0.0005820163300705414,0.0006863840425164379,0.0,0.0,0.0,0.0,0.0,0.0,0.0,0.0,0.0,-0.0008949524272582615,-0.0003332823929820845,-0.00046986512889886004,0.0,0.0,0.0,0.0,0.0,0.0,0.0,0.0,0.0,0.020744095194956576,0.5412070157299995,9.810235470438665,0.0,0.0,0.0,0.0,0.0,0.0,0.0,0.0,0.0
2025/05/21 13:29:50.931123857,1747826990,930862098,mA1/imu,0.38368637636791414,0.9234630203774797,0.0005764030654376494,0.0006945102360095146,0.0,0.0,0.0,0.0,0.0,0.0,0.0,0.0,0.0,0.0005128244868651129,-0.00039196481512173125,-0.0005819532254558314,0.0,0.0,0.0,0.0,0.0,0.0,0.0,0.0,0.0,0.008102842832623858,0.02044717635129355,9.809053406202132,0.0,0.0,0.0,0.0,0.0,0.0,0.0,0.0,0.0
2025/05/21 13:29:50.981062362,1747826990,980729518,mA1/imu,0.3836724683530627,0.9234687902576194,0.0005785185637876041,0.0007041052963320056,0.0,0.0,0.0,0.0,0.0,0.0,0.0,0.0,0.0,0.0007082436057824487,-0.000252540526051626,-0.0005992865142692408,0.0,0.0,0.0,0.0,0.0,0.0,0.0,0.0,0.0,0.003268265639234694,0.03189767056530646,9.811393406259322,0.0,0.0,0.0,0.0,0.0,0.0,0.0,0.0,0.0
2025/05/21 13:29:51.32074680,1747826991,31915031,mA1/imu,0.38365886828557566,0.9234744361116496,0.0005809549486430198,0.0007079021470116747,0.0,0.0,0.0,0.0,0.0,0.0,0.0,0.0,0.0,-6.0560163402185225e-05,-1.8553965516053566e-05,-0.0005822489816224494,0.0,0.0,0.0,0.0,0.0,0.0,0.0,0.0,0.0,0.0035289068104312794,-0.5034237560642346,9.81047297851937,0.0,0.0,0.0,0.0,0.0,0.0,0.0,0.0,0.0
2025/05/21 13:29:51.82051776,1747826991,81808514,mA1/imu,0.3836469019498768,0.9234794081414683,0.0005821846367714942,0.0007059914969294709,0.0,0.0,0.0,0.0,0.0,0.0,0.0,0.0,0.0,-0.0008520623970168263,0.0001662367449095566,-0.0004599950922471859,0.0,0.0,0.0,0.0,0.0,0.0,0.0,0.0,0.0,0.004195302666747754,-0.07210825822565949,9.809067387374839,0.0,0.0,0.0,0.0,0.0,0.0,0.0,0.0,0.0
2025/05/21 13:29:51.133836027,1747826991,133530362,mA1/imu,0.38363644475504843,0.9234837561535404,0.0005837655275641631,0.0006997099854309189,0.0,0.0,0.0,0.0,0.0,0.0,0.0,0.0,0.0,-0.0008259349674546001,0.0003192277631510411,-0.0004480026416331975,0.0,0.0,0.0,0.0,0.0,0.0,0.0,0.0,0.0,0.005043924322208239,-0.07695114059214014,9.808944832576637,0.0,0.0,0.0,0.0,0.0,0.0,0.0,0.0,0.0
2025/05/21 13:29:51.182904098,1747826991,182690923,mA1/imu,0.38362742052538773,0.9234875300661435,0.0005671788543772289,0.0006799569973668586,0.0,0.0,0.0,0.0,0.0,0.0,0.0,0.0,0.0,0.00018357570673779915,0.0006504561953595754,-0.00033744095069783057,0.0,0.0,0.0,0.0,0.0,0.0,0.0,0.0,0.0,-0.00343057373413367,0.6237072614187704,9.81145640352404,0.0,0.0,0.0,0.0,0.0,0.0,0.0,0.0,0.0
2025/05/21 13:29:51.234222363,1747826991,233926151,mA1/imu,0.3836197413071362,0.9234907215436896,0.0005797817863131114,0.0006671995517187107,0.0,0.0,0.0,0.0,0.0,0.0,0.0,0.0,0.0,0.0022748411808820768,0.0006629734893095647,-0.000328671772772808,0.0,0.0,0.0,0.0,0.0,0.0,0.0,0.0,0.0,0.005258445860755449,-0.4925047892714891,9.808339579910433,0.0,0.0,0.0,0.0,0.0,0.0,0.0,0.0,0.0
2025/05/21 13:29:51.283765250,1747826991,283546894,mA1/imu,0.38361224711370395,0.9234938379146684,0.0005903551168017424,0.0006532065879697217,0.0,0.0,0.0,0.0,0.0,0.0,0.0,0.0,0.0,0.00029209414698685586,0.000667895800495197,-0.00032109445452867014,0.0,0.0,0.0,0.0,0.0,0.0,0.0,0.0,0.0,0.007003603649826585,-0.004703741605905627,9.810751878336063,0.0,0.0,0.0,0.0,0.0,0.0,0.0,0.0,0.0
2025/05/21 13:29:51.335508354,1747826991,335300983,mA1/imu,0.38360494743866663,0.923496882014601,0.0005908335614069298,0.0006357087308597578,0.0,0.0,0.0,0.0,0.0,0.0,0.0,0.0,0.0,0.0001527112081734278,0.0006383628438542265,-0.0003125269338662941,0.0,0.0,0.0,0.0,0.0,0.0,0.0,0.0,0.0,0.006823312307344595,-0.01235548639196415,9.811812679401577,0.0,0.0,0.0,0.0,0.0,0.0,0.0,0.0,0.0
2025/05/21 13:29:51.384696443,1747826991,384454810,mA1/imu,0.3835978417978948,0.9234998369583043,0.0005990428143564471,0.0006229395552761726,0.0,0.0,0.0,0.0,0.0,0.0,0.0,0.0,0.0,-0.0010845586330841298,0.0005667508827092441,-0.00030392142481080325,0.0,0.0,0.0,0.0,0.0,0.0,0.0,0.0,0.0,0.0072213423455648245,0.41468339800721826,9.810067578651935,0.0,0.0,0.0,0.0,0.0,0.0,0.0,0.0,0.0
2025/05/21 13:29:51.436260569,1747826991,436036603,mA1/imu,0.38359091974831977,0.9235027230878398,0.0005967393473756202,0.0006088005700921057,0.0,0.0,0.0,0.0,0.0,0.0,0.0,0.0,0.0,-0.0003163090745371747,0.0004402837326923985,-0.00029663133569586396,0.0,0.0,0.0,0.0,0.0,0.0,0.0,0.0,0.0,0.007531375698103835,0.05767994987958811,9.8092694812938,0.0,0.0,0.0,0.0,0.0,0.0,0.0,0.0,0.0
2025/05/21 13:29:51.475529165,1747826991,475376743,mA1/imu,0.3835841622225101,0.9235055345886198,0.0005983588407284636,0.0006000357823930422,0.0,0.0,0.0,0.0,0.0,0.0,0.0,0.0,0.0,-0.000358338728903118,0.00029756285960161864,-0.000289981641137883,0.0,0.0,0.0,0.0,0.0,0.0,0.0,0.0,0.0,0.007351633042309141,0.5848715910807539,9.810554852740257,0.0,0.0,0.0,0.0,0.0,0.0,0.0,0.0,0.0
2025/05/21 13:29:51.526552431,1747826991,526452560,mA1/imu,0.3835775719167656,0.9235082753668897,0.0005982732810683114,0.0005947439721871722,0.0,0.0,0.0,0.0,0.0,0.0,0.0,0.0,0.0,0.0013414539606435758,0.0001260186059132888,-0.0002824036524641796,0.0,0.0,0.0,0.0,0.0,0.0,0.0,0.0,0.0,0.007078027612429226,-0.5540866512716395,9.808178488616358,0.0,0.0,0.0,0.0,0.0,0.0,0.0,0.0,0.0
2025/05/21 13:29:51.576503455,1747826991,576361887,mA1/imu,0.3835721460743454,0.9235105278114987,0.0006013659201960186,0.0005934107161817972,0.0,0.0,0.0,0.0,0.0,0.0,0.0,0.0,0.0,0.00034044540743963095,8.2422938442469e-05,-0.00018739533296457904,0.0,0.0,0.0,0.0,0.0,0.0,0.0,0.0,0.0,0.0030630502961678232,0.004393924560117906,9.811159160991679,0.0,0.0,0.0,0.0,0.0,0.0,0.0,0.0,0.0
2025/05/21 13:29:51.628754835,1747826991,627743841,mA1/imu,0.38356786613475397,0.9235123026618863,0.0006038237952530223,0.0005952291965104397,0.0,0.0,0.0,0.0,0.0,0.0,0.0,0.0,0.0,-0.00014888355235948025,-0.00011236133297459452,-0.00018415727909727804,0.0,0.0,0.0,0.0,0.0,0.0,0.0,0.0,0.0,0.008534140469363601,-0.39507687250062556,9.810776699372154,0.0,0.0,0.0,0.0,0.0,0.0,0.0,0.0,0.0
2025/05/21 13:29:51.680268877,1747826991,680025129,mA1/imu,0.38356366700691213,0.9235140484540268,0.0005975287838800038,0.0005988485753786032,0.0,0.0,0.0,0.0,0.0,0.0,0.0,0.0,0.0,-0.0002399516463046866,-0.00030252235710436415,-0.00018046822542010777,0.0,0.0,0.0,0.0,0.0,0.0,0.0,0.0,0.0,0.008264897118435973,-0.0312173099607361,9.809376010862408,0.0,0.0,0.0,0.0,0.0,0.0,0.0,0.0,0.0
2025/05/21 13:29:51.731260771,1747826991,731020877,mA1/imu,0.3835595603992387,0.9235157475645299,0.0005968066677954231,0.0006094657262102464,0.0,0.0,0.0,0.0,0.0,0.0,0.0,0.0,0.0,-8.757807299738177e-05,-0.0004652232852846363,-0.00017635957621704439,0.0,0.0,0.0,0.0,0.0,0.0,0.0,0.0,0.0,0.00789869690655046,-0.018557167605387687,9.808960444611442,0.0,0.0,0.0,0.0,0.0,0.0,0.0,0.0,0.0
2025/05/21 13:29:51.781419045,1747826991,781123909,mA1/imu,0.3835555520065657,0.9235174092183929,0.0005895370026283786,0.0006211614997010222,0.0,0.0,0.0,0.0,0.0,0.0,0.0,0.0,0.0,8.623710337125945e-05,-0.0005889083975365613,-0.0001726045034957116,0.0,0.0,0.0,0.0,0.0,0.0,0.0,0.0,0.0,0.007677630075373515,-0.005373727654976892,9.80970376149292,0.0,0.0,0.0,0.0,0.0,0.0,0.0,0.0,0.0
2025/05/21 13:29:51.832538477,1747826991,832323844,mA1/imu,0.3835516248090498,0.9235190346410066,0.0005827897842899922,0.0006357028773507723,0.0,0.0,0.0,0.0,0.0,0.0,0.0,0.0,0.0,-4.3207445264778095e-06,-0.0006700798161273592,-0.00016907737817915627,0.0,0.0,0.0,0.0,0.0,0.0,0.0,0.0,0.0,0.007457989131494256,-0.01094383001964208,9.809050679863123,0.0,0.0,0.0,0.0,0.0,0.0,0.0,0.0,0.0
2025/05/21 13:29:51.882293962,1747826991,881962714,mA1/imu,0.3835477792260334,0.9235206187470669,0.0005824604187848236,0.0006546294166838234,0.0,0.0,0.0,0.0,0.0,0.0,0.0,0.0,0.0,-0.00022333584226414622,-0.0007225404404158898,-0.00016531830361032754,0.0,0.0,0.0,0.0,0.0,0.0,0.0,0.0,0.0,0.007521840289234748,-0.025413742910037434,9.811068724779718,0.0,0.0,0.0,0.0,0.0,0.0,0.0,0.0,0.0
2025/05/21 13:29:51.933532644,1747826991,933367881,mA1/imu,0.3835440169679432,0.9235221701503903,0.0005791749550104921,0.0006729377231271094,0.0,0.0,0.0,0.0,0.0,0.0,0.0,0.0,0.0,1.840651151612812e-05,-0.0007313925471792516,-0.00016228233892107927,0.0,0.0,0.0,0.0,0.0,0.0,0.0,0.0,0.0,0.007578697070586808,-0.637651976909949,9.810283742627231,0.0,0.0,0.0,0.0,0.0,0.0,0.0,0.0,0.0
2025/05/21 13:29:51.983064136,1747826991,982875807,mA1/imu,0.38354031452940546,0.9235236981444466,0.0005741309230821393,0.0006902680444750609,0.0,0.0,0.0,0.0,0.0,0.0,0.0,0.0,0.0,-0.0011475465741334712,-0.0006867035029513533,-0.00015978828441743446,0.0,0.0,0.0,0.0,0.0,0.0,0.0,0.0,0.0,0.006790358839272228,0.0517379605392494,9.809982093741395,0.0,0.0,0.0,0.0,0.0,0.0,0.0,0.0,0.0
2025/05/21 13:29:52.34231525,1747826992,34027202,mA1/imu,0.3835366684989451,0.9235252078124787,0.0005645021933344068,0.0007041228032593962,0.0,0.0,0.0,0.0,0.0,0.0,0.0,0.0,0.0,-0.0002803529755902436,-0.0006263359599872963,-0.00015711764619105118,0.0,0.0,0.0,0.0,0.0,0.0,0.0,0.0,0.0,0.007016618255338844,-0.02701840600449721,9.809255276806267,0.0,0.0,0.0,0.0,0.0,0.0,0.0,0.0,0.0
2025/05/21 13:29:52.83948820,1747826992,83726439,mA1/imu,0.38353307693786026,0.9235266900376068,0.000561553964375636,0.0007185679542293078,0.0,0.0,0.0,0.0,0.0,0.0,0.0,0.0,0.0,-0.00012246940159215322,-0.00052928273115899,-0.00015517279589580794,0.0,0.0,0.0,0.0,0.0,0.0,0.0,0.0,0.0,0.006681227158334059,0.23510144367531904,9.810197191751495,0.0,0.0,0.0,0.0,0.0,0.0,0.0,0.0,0.0
2025/05/21 13:29:52.135423637,1747826992,135201266,mA1/imu,0.38352953653472466,0.9235281516882059,0.0005603571989915588,0.0007305098457546088,0.0,0.0,0.0,0.0,0.0,0.0,0.0,0.0,0.0,0.0008530765166638569,-0.0004135911513530877,-0.00015251293139939857,0.0,0.0,0.0,0.0,0.0,0.0,0.0,0.0,0.0,0.006584046748974346,-0.2931113026908163,9.808708281080946,0.0,0.0,0.0,0.0,0.0,0.0,0.0,0.0,0.0
2025/05/21 13:29:52.185240295,1747826992,184828747,mA1/imu,0.38352605191821504,0.9235295889409721,0.0005636872943134332,0.0007403426098666933,0.0,0.0,0.0,0.0,0.0,0.0,0.0,0.0,0.0,0.0007988400115035637,-0.00025428245521171776,-0.0001497832606942428,0.0,0.0,0.0,0.0,0.0,0.0,0.0,0.0,0.0,0.006922430863622989,-0.5824122135019337,9.809916016043438,0.0,0.0,0.0,0.0,0.0,0.0,0.0,0.0,0.0
2025/05/21 13:29:52.236953016,1747826992,236645535,mA1/imu,0.38352262340700116,0.9235310068286099,0.0005668806830735202,0.0007452566249132553,0.0,0.0,0.0,0.0,0.0,0.0,0.0,0.0,0.0,-0.0002973837887564882,-6.249706695032401e-05,-0.00014738184583900689,0.0,0.0,0.0,0.0,0.0,0.0,0.0,0.0,0.0,0.007263967415283968,-0.21915283912995848,9.811119563342048,0.0,0.0,0.0,0.0,0.0,0.0,0.0,0.0,0.0
2025/05/21 13:29:52.276601028,1747826992,275587696,mA1/imu,0.3835192637433497,0.9235324020379407,0.0005676026300637593,0.0007446818410979382,0.0,0.0,0.0,0.0,0.0,0.0,0.0,0.0,0.0,-0.0007272151476731452,9.925010799477561e-05,-0.0001441787710514148,0.0,0.0,0.0,0.0,0.0,0.0,0.0,0.0,0.0,0.007032308019838424,-0.06053941211898041,9.809331681953577,0.0,0.0,0.0,0.0,0.0,0.0,0.0,0.0,0.0
2025/05/21 13:29:52.326931277,1747826992,326817577,mA1/imu,0.3835159794349907,0.923533772959561,0.0005643613845387864,0.0007383883298538209,0.0,0.0,0.0,0.0,0.0,0.0,0.0,0.0,0.0,-4.3685255885186256e-05,0.00024303357581853102,-0.00014105889318873874,0.0,0.0,0.0,0.0,0.0,0.0,0.0,0.0,0.0,0.007248337733885945,-0.015593230952697072,9.809188979191159,0.0,0.0,0.0,0.0,0.0,0.0,0.0,0.0,0.0
2025/05/21 13:29:52.376875076,1747826992,376723099,mA1/imu,0.3835115820894491,0.9235356012435768,0.0005687207736249614,0.0007322537773785807,0.0,0.0,0.0,0.0,0.0,0.0,0.0,0.0,0.0,-0.00020279208590384158,0.000309719150668346,-0.00023729065435824044,0.0,0.0,0.0,0.0,0.0,0.0,0.0,0.0,0.0,0.009990423008922404,0.5763246526088502,9.810145393024245,0.0,0.0,0.0,0.0,0.0,0.0,0.0,0.0,0.0
2025/05/21 13:29:52.428590752,1747826992,428469173,mA1/imu,0.3835045587942678,0.923538521687044,0.000572199604397825,0.0007245217290868255,0.0,0.0,0.0,0.0,0.0,0.0,0.0,0.0,0.0,0.0012638390516355367,0.0003582772417522838,-0.0003484687413886683,0.0,0.0,0.0,0.0,0.0,0.0,0.0,0.0,0.0,0.007854568286177857,-0.35435029802705154,9.80846596273491,0.0,0.0,0.0,0.0,0.0,0.0,0.0,0.0,0.0
2025/05/21 13:29:52.478415772,1747826992,478194280,mA1/imu,0.3834949713092999,0.9235425009410613,0.0005834619173666785,0.0007179889971864486,0.0,0.0,0.0,0.0,0.0,0.0,0.0,0.0,0.0,-0.00022463405466657683,0.00043429816899836663,-0.00046517595475944145,0.0,0.0,0.0,0.0,0.0,0.0,0.0,0.0,0.0,0.00909969529528824,-0.03119506450150636,9.8116990090762,0.0,0.0,0.0,0.0,0.0,0.0,0.0,0.0,0.0
2025/05/21 13:29:52.529524663,1747826992,529293652,mA1/imu,0.3834828902999747,0.9235475220093924,0.0005896125942273633,0.0007069614395790306,0.0,0.0,0.0,0.0,0.0,0.0,0.0,0.0,0.0,-5.2749843195508464e-05,0.000573532255859154,-0.0005434159708767578,0.0,0.0,0.0,0.0,0.0,0.0,0.0,0.0,0.0,0.0013016534725374378,-0.29764954759276874,9.81098453775957,0.0,0.0,0.0,0.0,0.0,0.0,0.0,0.0,0.0
2025/05/21 13:29:52.579064891,1747826992,578952015,mA1/imu,0.3834705474689071,0.9235526540092115,0.0005976512706681193,0.0006908758189433247,0.0,0.0,0.0,0.0,0.0,0.0,0.0,0.0,0.0,-0.0015223729500534943,0.0008128613463861444,-0.0005280760019036367,0.0,0.0,0.0,0.0,0.0,0.0,0.0,0.0,0.0,0.001966821647663866,0.5082999746232063,9.810258885164346,0.0,0.0,0.0,0.0,0.0,0.0,0.0,0.0,0.0
2025/05/21 13:29:52.631740448,1747826992,630552273,mA1/imu,0.38345854309168836,0.9235576543712011,0.0005996265747175169,0.0006672558249034037,0.0,0.0,0.0,0.0,0.0,0.0,0.0,0.0,0.0,-0.00018004297398063342,0.0009696560703676739,-0.000513927973959971,0.0,0.0,0.0,0.0,0.0,0.0,0.0,0.0,0.0,0.002127705584885015,-0.0293472111110565,9.809228536561275,0.0,0.0,0.0,0.0,0.0,0.0,0.0,0.0,0.0
2025/05/21 13:29:52.680314253,1747826992,679791721,mA1/imu,0.3834468710689267,0.9235625147553682,0.0006054921392781567,0.0006417051189513084,0.0,0.0,0.0,0.0,0.0,0.0,0.0,0.0,0.0,0.0006851382992547313,0.0010770355560849546,-0.000497722212010757,0.0,0.0,0.0,0.0,0.0,0.0,0.0,0.0,0.0,0.0021322688605207646,0.09059705667538177,9.809845971937216,0.0,0.0,0.0,0.0,0.0,0.0,0.0,0.0,0.0
2025/05/21 13:29:52.731115132,1747826992,730920012,mA1/imu,0.3834356167427505,0.9235671979719333,0.0006159219155077249,0.0006158600263529023,0.0,0.0,0.0,0.0,0.0,0.0,0.0,0.0,0.0,0.0014340063154923898,0.0011236878485871519,-0.00047936386911538286,0.0,0.0,0.0,0.0,0.0,0.0,0.0,0.0,0.0,0.0024845184600892183,-0.36257292812431785,9.808735709121454,0.0,0.0,0.0,0.0,0.0,0.0,0.0,0.0,0.0
2025/05/21 13:29:52.781209992,1747826992,780944257,mA1/imu,0.383424147240785,0.9235719658771241,0.0006308369639850977,0.0005909342316275754,0.0,0.0,0.0,0.0,0.0,0.0,0.0,0.0,0.0,-0.00010266120033857351,0.001168983763717952,-0.0005227279498553145,0.0,0.0,0.0,0.0,0.0,0.0,0.0,0.0,0.0,-0.0008692453367547814,-0.03393070280644578,9.812395029412837,0.0,0.0,0.0,0.0,0.0,0.0,0.0,0.0,0.0
2025/05/21 13:29:52.833110364,1747826992,832805998,mA1/imu,0.3834123241772511,0.9235768806705074,0.0006439962020088216,0.0005660643301810877,0.0,0.0,0.0,0.0,0.0,0.0,0.0,0.0,0.0,-0.0007565850590840467,0.0010740566023566302,-0.0005036805079211635,0.0,0.0,0.0,0.0,0.0,0.0,0.0,0.0,0.0,0.0040438361782260705,-0.07457149838242987,9.811382166939138,0.0,0.0,0.0,0.0,0.0,0.0,0.0,0.0,0.0
2025/05/21 13:29:52.882108687,1747826992,881939908,mA1/imu,0.38340093240434714,0.9235816188868443,0.0006512133612360548,0.0005424085095659106,0.0,0.0,0.0,0.0,0.0,0.0,0.0,0.0,0.0,-0.0017066265923992054,0.0009258930298439781,-0.00048550990656640654,0.0,0.0,0.0,0.0,0.0,0.0,0.0,0.0,0.0,0.0037121160885522173,0.17892466206693325,9.810249956059684,0.0,0.0,0.0,0.0,0.0,0.0,0.0,0.0,0.0
2025/05/21 13:29:52.934926134,1747826992,933947933,mA1/imu,0.3833899518833056,0.92358619236136,0.0006479609032067807,0.0005198278845676406,0.0,0.0,0.0,0.0,0.0,0.0,0.0,0.0,0.0,-0.00026087607442072197,0.0007046364821683221,-0.00046861418519296205,0.0,0.0,0.0,0.0,0.0,0.0,0.0,0.0,0.0,0.004165439351853944,-0.04246966187527362,9.809251281740144,0.0,0.0,0.0,0.0,0.0,0.0,0.0,0.0,0.0
2025/05/21 13:29:52.983439682,1747826992,983070494,mA1/imu,0.38337574076135983,0.9235920989443356,0.0006445944558499976,0.0005105499610990564,0.0,0.0,0.0,0.0,0.0,0.0,0.0,0.0,0.0,0.0004832409956326959,-6.551537645777626e-05,-0.0007642861475331111,0.0,0.0,0.0,0.0,0.0,0.0,0.0,0.0,0.0,0.02379074454264067,0.3905001723776541,9.809476369048655,0.0,0.0,0.0,0.0,0.0,0.0,0.0,0.0,0.0
2025/05/21 13:29:53.34270721,1747826993,34066625,mA1/imu,0.3833583947536411,0.9235992985619079,0.0006417860582921253,0.000514760642209089,0.0,0.0,0.0,0.0,0.0,0.0,0.0,0.0,0.0,0.0005946491066392438,-0.0002882464690840893,-0.0007429169993570054,0.0,0.0,0.0,0.0,0.0,0.0,0.0,0.0,0.0,0.0029782310204159654,0.018686365204094703,9.809159560095956,0.0,0.0,0.0,0.0,0.0,0.0,0.0,0.0,0.0
2025/05/21 13:29:53.84348806,1747826993,84027110,mA1/imu,0.38334153296007123,0.9236062928637374,0.0006397310583639454,0.0005250090471499898,0.0,0.0,0.0,0.0,0.0,0.0,0.0,0.0,0.0,0.0005515214591708334,-0.0005020137877226778,-0.0007224930555997705,0.0,0.0,0.0,0.0,0.0,0.0,0.0,0.0,0.0,0.003671868751661923,-0.2529845492889323,9.810339248268166,0.0,0.0,0.0,0.0,0.0,0.0,0.0,0.0,0.0
2025/05/21 13:29:53.136190330,1747826993,135894160,mA1/imu,0.38332515115399685,0.9236130896123392,0.0006321636459708619,0.0005381065311099294,0.0,0.0,0.0,0.0,0.0,0.0,0.0,0.0,0.0,0.000404829886655237,-0.0006717278911355824,-0.0007018331165082475,0.0,0.0,0.0,0.0,0.0,0.0,0.0,0.0,0.0,0.003379697129669454,-0.6249127989530903,9.8101291616656,0.0,0.0,0.0,0.0,0.0,0.0,0.0,0.0,0.0
2025/05/21 13:29:53.185039216,1747826993,184878920,mA1/imu,0.3833092400747282,0.923619690932076,0.0006211884967390187,0.0005541847365604124,0.0,0.0,0.0,0.0,0.0,0.0,0.0,0.0,0.0,-0.001093876777222452,-0.0008041697116853991,-0.0006815729011550777,0.0,0.0,0.0,0.0,0.0,0.0,0.0,0.0,0.0,0.0033979190112759386,0.5328833958122624,9.810369610507506,0.0,0.0,0.0,0.0,0.0,0.0,0.0,0.0,0.0
2025/05/21 13:29:53.237054806,1747826993,236714574,mA1/imu,0.38329378627708277,0.9236261015697158,0.0006083861564960535,0.0005725092067623895,0.0,0.0,0.0,0.0,0.0,0.0,0.0,0.0,0.0,-0.0012256521215687091,-0.0008969192284241795,-0.0006621357916495523,0.0,0.0,0.0,0.0,0.0,0.0,0.0,0.0,0.0,0.0033581639209224806,0.5246159465712005,9.809752698311268,0.0,0.0,0.0,0.0,0.0,0.0,0.0,0.0,0.0
2025/05/21 13:29:53.275921735,1747826993,275674943,mA1/imu,0.38327877724982057,0.9236323241947323,0.0005971849761589615,0.0005932812346974997,0.0,0.0,0.0,0.0,0.0,0.0,0.0,0.0,0.0,0.0004566404633909577,-0.0009539573383919393,-0.000643029830591629,0.0,0.0,0.0,0.0,0.0,0.0,0.0,0.0,0.0,0.0029380694171798356,0.014369031300359658,9.809473107092591,0.0,0.0,0.0,0.0,0.0,0.0,0.0,0.0,0.0
2025/05/21 13:29:53.327092816,1747826993,326742657,mA1/imu,0.3832642014469227,0.923638368019304,0.0005836576980243214,0.0006134782644399833,0.0,0.0,0.0,0.0,0.0,0.0,0.0,0.0,0.0,0.0020334833364779995,-0.0009502915416950517,-0.0006247042593861041,0.0,0.0,0.0,0.0,0.0,0.0,0.0,0.0,0.0,0.0021497517907104746,-0.5030081489853886,9.808344972383534,0.0,0.0,0.0,0.0,0.0,0.0,0.0,0.0,0.0
2025/05/21 13:29:53.376624537,1747826993,376463644,mA1/imu,0.3832500281117956,0.9236442345287775,0.0005812764525860903,0.0006372532794296363,0.0,0.0,0.0,0.0,0.0,0.0,0.0,0.0,0.0,0.00038160790180758635,-0.0009011741878496505,-0.0006073910162073099,0.0,0.0,0.0,0.0,0.0,0.0,0.0,0.0,0.0,0.003662349572759944,0.008509511811638776,9.81081478199851,0.0,0.0,0.0,0.0,0.0,0.0,0.0,0.0,0.0
2025/05/21 13:29:53.428338675,1747826993,428149996,mA1/imu,0.3832362494365527,0.9236499362665318,0.0005807500896011738,0.0006596074358665739,0.0,0.0,0.0,0.0,0.0,0.0,0.0,0.0,0.0,-0.0011124994512866492,-0.0007928186923856906,-0.0005903600615259948,0.0,0.0,0.0,0.0,0.0,0.0,0.0,0.0,0.0,0.003522957737587486,-0.09125031433079855,9.81114821295107,0.0,0.0,0.0,0.0,0.0,0.0,0.0,0.0,0.0
2025/05/21 13:29:53.477761333,1747826993,477515034,mA1/imu,0.38322284975945126,0.9236554881109529,0.0005737834716845418,0.0006763706749203489,0.0,0.0,0.0,0.0,0.0,0.0,0.0,0.0,0.0,-0.0011784338381878084,-0.0006665388015566223,-0.0005744115126220491,0.0,0.0,0.0,0.0,0.0,0.0,0.0,0.0,0.0,0.003326513640429898,-0.09037677584053765,9.809594947734555,0.0,0.0,0.0,0.0,0.0,0.0,0.0,0.0,0.0
2025/05/21 13:29:53.529065027,1747826993,528803504,mA1/imu,0.3832098089948352,0.9236608990910699,0.0005604353201985109,0.0006867988570188819,0.0,0.0,0.0,0.0,0.0,0.0,0.0,0.0,0.0,0.000214649867887637,-0.0005197812366481484,-0.0005591980625243508,0.0,0.0,0.0,0.0,0.0,0.0,0.0,0.0,0.0,0.0033718638967780937,0.005229489773018299,9.809317150712882,0.0,0.0,0.0,0.0,0.0,0.0,0.0,0.0,0.0
2025/05/21 13:29:53.578514131,1747826993,578330748,mA1/imu,0.38319818039552667,0.9236657207271401,0.0005554231990250501,0.0006945503869021585,0.0,0.0,0.0,0.0,0.0,0.0,0.0,0.0,0.0,0.00016350290099130472,-0.00022396645613404588,-0.00045286965494101565,0.0,0.0,0.0,0.0,0.0,0.0,0.0,0.0,0.0,-0.0012568392714198823,0.6316630332474917,9.810928256118258,0.0,0.0,0.0,0.0,0.0,0.0,0.0,0.0,0.0
2025/05/21 13:29:53.630270783,1747826993,629871794,mA1/imu,0.3831878617622062,0.9236699943639484,0.0005602261793979388,0.0007001831473136676,0.0,0.0,0.0,0.0,0.0,0.0,0.0,0.0,0.0,0.0003150606053111487,-7.783232172487535e-05,-0.00044273038738672953,0.0,0.0,0.0,0.0,0.0,0.0,0.0,0.0,0.0,0.004477936579070257,0.013799021592700102,9.80922991333648,0.0,0.0,0.0,0.0,0.0,0.0,0.0,0.0,0.0
2025/05/21 13:29:53.679561333,1747826993,679277412,mA1/imu,0.38317777291522276,0.9236741718310495,0.000569035377486064,0.0007034448762497302,0.0,0.0,0.0,0.0,0.0,0.0,0.0,0.0,0.0,0.0005372897243154307,5.816863804407941e-05,-0.0004326464901575912,0.0,0.0,0.0,0.0,0.0,0.0,0.0,0.0,0.0,0.005276672400037126,-0.6020294736633066,9.809776373145464,0.0,0.0,0.0,0.0,0.0,0.0,0.0,0.0,0.0
2025/05/21 13:29:53.730558354,1747826993,730339752,mA1/imu,0.38316791177529796,0.9236782641073905,0.0005708349173196285,0.0006999634365230271,0.0,0.0,0.0,0.0,0.0,0.0,0.0,0.0,0.0,0.0004641246672924494,0.00020848894934961536,-0.0004233264901564588,0.0,0.0,0.0,0.0,0.0,0.0,0.0,0.0,0.0,0.005287292940007994,-0.6063215817210382,9.810331790853386,0.0,0.0,0.0,0.0,0.0,0.0,0.0,0.0,0.0
2025/05/21 13:29:53.781067599,1747826993,780821675,mA1/imu,0.3831582527468006,0.9236822721921624,0.0005756643152583041,0.000694262586545765,0.0,0.0,0.0,0.0,0.0,0.0,0.0,0.0,0.0,-0.0014275312535739387,0.0003430086110876331,-0.0004145461321481841,0.0,0.0,0.0,0.0,0.0,0.0,0.0,0.0,0.0,0.005319559940206676,0.5227605479999367,9.810517078400766,0.0,0.0,0.0,0.0,0.0,0.0,0.0,0.0,0.0
2025/05/21 13:29:53.832057310,1747826993,831781317,mA1/imu,0.3831487912058287,0.9236861996920145,0.0005811055951669959,0.0006860118976679296,0.0,0.0,0.0,0.0,0.0,0.0,0.0,0.0,0.0,-0.0014564465725305767,0.0004334920799516816,-0.0004061330100692294,0.0,0.0,0.0,0.0,0.0,0.0,0.0,0.0,0.0,0.005447362388873774,0.5202137116020049,9.810170194932825,0.0,0.0,0.0,0.0,0.0,0.0,0.0,0.0,0.0
2025/05/21 13:29:53.881776530,1747826993,881377963,mA1/imu,0.3831401582907058,0.9236897863592427,0.0005858294994471397,0.0006741545722903895,0.0,0.0,0.0,0.0,0.0,0.0,0.0,0.0,0.0,-0.0008370052559840602,0.0005875415763636384,-0.0003413757064753322,0.0,0.0,0.0,0.0,0.0,0.0,0.0,0.0,0.0,0.0021459584557831646,0.5634103043413823,9.810896656908877,0.0,0.0,0.0,0.0,0.0,0.0,0.0,0.0,0.0
2025/05/21 13:29:53.932529167,1747826993,932330095,mA1/imu,0.3831324323756609,0.9236930018455224,0.0005868600923124043,0.0006581783567519435,0.0,0.0,0.0,0.0,0.0,0.0,0.0,0.0,0.0,0.0006521268627910675,0.0006228740531406687,-0.000329688839441655,0.0,0.0,0.0,0.0,0.0,0.0,0.0,0.0,0.0,0.005454137482558043,0.03722764481353306,9.809251340607558,0.0,0.0,0.0,0.0,0.0,0.0,0.0,0.0,0.0
2025/05/21 13:29:53.982265683,1747826993,982144802,mA1/imu,0.38312497409205987,0.9236960964032482,0.000598480175544557,0.0006461716794074553,0.0,0.0,0.0,0.0,0.0,0.0,0.0,0.0,0.0,0.001901155857450791,0.0006026571621311265,-0.00031759425125822693,0.0,0.0,0.0,0.0,0.0,0.0,0.0,0.0,0.0,0.006104722830672213,-0.5109263385172924,9.809814913735067,0.0,0.0,0.0,0.0,0.0,0.0,0.0,0.0,0.0
2025/05/21 13:29:54.33996057,1747826994,33741176,mA1/imu,0.38311777440025646,0.9236990809061741,0.0006125926299721093,0.0006352967440969671,0.0,0.0,0.0,0.0,0.0,0.0,0.0,0.0,0.0,0.0004648242740068508,0.0005967714277627162,-0.00030661990428424823,0.0,0.0,0.0,0.0,0.0,0.0,0.0,0.0,0.0,0.006397409151098517,-0.6105600188996416,9.809699663796735,0.0,0.0,0.0,0.0,0.0,0.0,0.0,0.0,0.0
2025/05/21 13:29:54.83401230,1747826994,83126867,mA1/imu,0.38311083606007373,0.9237019672980643,0.0006143554548411723,0.0006208626353084993,0.0,0.0,0.0,0.0,0.0,0.0,0.0,0.0,0.0,-0.0004233912745997599,0.0005328129182949325,-0.0002960712467632257,0.0,0.0,0.0,0.0,0.0,0.0,0.0,0.0,0.0,0.006312560050283665,-0.043676281234538185,9.80882786238624,0.0,0.0,0.0,0.0,0.0,0.0,0.0,0.0,0.0
2025/05/21 13:29:54.135357102,1747826994,135034931,mA1/imu,0.3831041296578912,0.9237047548055327,0.0006170998396846502,0.0006090784089884141,0.0,0.0,0.0,0.0,0.0,0.0,0.0,0.0,0.0,-0.0009695740076159683,0.0004435724330756903,-0.00028620606911285227,0.0,0.0,0.0,0.0,0.0,0.0,0.0,0.0,0.0,0.0065694897978499575,0.547404968076514,9.810278718278063,0.0,0.0,0.0,0.0,0.0,0.0,0.0,0.0,0.0
2025/05/21 13:29:54.184326952,1747826994,184028821,mA1/imu,0.3830960489871242,0.9237081077078632,0.0006220606205353076,0.0006017024164845031,0.0,0.0,0.0,0.0,0.0,0.0,0.0,0.0,0.0,0.00018170481076861602,0.000298560478462944,-0.0004065430323739374,0.0,0.0,0.0,0.0,0.0,0.0,0.0,0.0,0.0,0.00518950611138587,-0.003145478430905041,9.80937627519093,0.0,0.0,0.0,0.0,0.0,0.0,0.0,0.0,0.0
2025/05/21 13:29:54.236175688,1747826994,235801470,mA1/imu,0.3830867629609902,0.9237119623110118,0.0006222974984961454,0.0005962159284099099,0.0,0.0,0.0,0.0,0.0,0.0,0.0,0.0,0.0,0.0015052240807773604,0.00013689543134428283,-0.0003989850579144,0.0,0.0,0.0,0.0,0.0,0.0,0.0,0.0,0.0,0.005542806182287329,-0.5381643948812044,9.808086080740964,0.0,0.0,0.0,0.0,0.0,0.0,0.0,0.0,0.0
2025/05/21 13:29:54.285144495,1747826994,284894592,mA1/imu,0.38307500504589964,0.9237168338257162,0.0006246119453516025,0.0006010623890401776,0.0,0.0,0.0,0.0,0.0,0.0,0.0,0.0,0.0,0.00046681061763683313,-0.00032614524577415343,-0.0005709679467650236,0.0,0.0,0.0,0.0,0.0,0.0,0.0,0.0,0.0,0.010647396538925217,-0.03792318205472531,9.810182404449865,0.0,0.0,0.0,0.0,0.0,0.0,0.0,0.0,0.0
2025/05/21 13:29:54.335993276,1747826994,335825854,mA1/imu,0.3830620198926251,0.9237222220263369,0.0006138112894690412,0.000607195363674726,0.0,0.0,0.0,0.0,0.0,0.0,0.0,0.0,0.0,0.000867850067107466,-0.0004329844554200932,-0.0005574732542289289,0.0,0.0,0.0,0.0,0.0,0.0,0.0,0.0,0.0,0.005418777550343235,0.04578949291421744,9.810265953017158,0.0,0.0,0.0,0.0,0.0,0.0,0.0,0.0,0.0
2025/05/21 13:29:54.375750764,1747826994,375577610,mA1/imu,0.3830493251781906,0.9237274785003731,0.0006128106646710274,0.0006200056167582173,0.0,0.0,0.0,0.0,0.0,0.0,0.0,0.0,0.0,0.0010671555719495608,-0.000525845802640687,-0.0005451814190826965,0.0,0.0,0.0,0.0,0.0,0.0,0.0,0.0,0.0,0.005453243839128198,0.0544023677063736,9.809738018500232,0.0,0.0,0.0,0.0,0.0,0.0,0.0,0.0,0.0
2025/05/21 13:29:54.427705755,1747826994,427442730,mA1/imu,0.38303690924725486,0.9237326185394702,0.0006110511071658214,0.0006342058567967362,0.0,0.0,0.0,0.0,0.0,0.0,0.0,0.0,0.0,-0.0003764501358981354,-0.0005755705285013058,-0.0005331593394932015,0.0,0.0,0.0,0.0,0.0,0.0,0.0,0.0,0.0,0.005630607721256902,-0.04570416770825612,9.80958034857468,0.0,0.0,0.0,0.0,0.0,0.0,0.0,0.0,0.0
2025/05/21 13:29:54.476734973,1747826994,476482933,mA1/imu,0.38303456150299053,0.9237335947598457,0.000609059139399636,0.0006321813264938229,0.0,0.0,0.0,0.0,0.0,0.0,0.0,0.0,0.0,-7.620433756164668e-05,0.0006484888395362167,0.00032285574199630466,0.0,0.0,0.0,0.0,0.0,0.0,0.0,0.0,0.0,-0.04205956701715164,-0.02168813968633923,9.809209555356803,0.0,0.0,0.0,0.0,0.0,0.0,0.0,0.0,0.0
2025/05/21 13:29:54.528434475,1747826994,528221013,mA1/imu,0.3830419835396927,0.9237305287392561,0.0006077675129118388,0.0006162302511929107,0.0,0.0,0.0,0.0,0.0,0.0,0.0,0.0,0.0,0.0006458242640975057,0.0005137380083383407,0.00032077206420894744,0.0,0.0,0.0,0.0,0.0,0.0,0.0,0.0,0.0,0.007027429362630489,-0.16494015436336978,9.809434906576515,0.0,0.0,0.0,0.0,0.0,0.0,0.0,0.0,0.0
2025/05/21 13:29:54.577831190,1747826994,577571423,mA1/imu,0.38304865654677195,0.923727768867451,0.0006074823127819983,0.0006055626423288728,0.0,0.0,0.0,0.0,0.0,0.0,0.0,0.0,0.0,2.7192928960386184e-06,0.0002914815368090566,0.0002575177983561661,0.0,0.0,0.0,0.0,0.0,0.0,0.0,0.0,0.0,0.011427533914429949,0.20004647355846328,9.810696697519921,0.0,0.0,0.0,0.0,0.0,0.0,0.0,0.0,0.0
2025/05/21 13:29:54.629094956,1747826994,628703172,mA1/imu,0.3830545010203407,0.9237253492981599,0.0006065916178462916,0.0006002988085914893,0.0,0.0,0.0,0.0,0.0,0.0,0.0,0.0,0.0,0.00013501684407934216,0.0001077300511509,0.00025022805265184156,0.0,0.0,0.0,0.0,0.0,0.0,0.0,0.0,0.0,0.008032921488470002,-0.018963478418311218,9.80977640965476,0.0,0.0,0.0,0.0,0.0,0.0,0.0,0.0,0.0
2025/05/21 13:29:54.678540237,1747826994,678324873,mA1/imu,0.3830615060754328,0.9237224500549607,0.0006001326970115071,0.0005980538671321323,0.0,0.0,0.0,0.0,0.0,0.0,0.0,0.0,0.0,0.0009915723396548024,-0.00012666962107396715,0.0003583859030520914,0.0,0.0,0.0,0.0,0.0,0.0,0.0,0.0,0.0,0.010449884712190952,-0.5869619400776885,9.808676291135876,0.0,0.0,0.0,0.0,0.0,0.0,0.0,0.0,0.0
2025/05/21 13:29:54.729546352,1747826994,729354345,mA1/imu,0.38306965391414244,0.9237190776299818,0.0005880205361659097,0.0006000869634483789,0.0,0.0,0.0,0.0,0.0,0.0,0.0,0.0,0.0,0.0015283821569408043,-0.00035426688236959693,0.0003484234735097739,0.0,0.0,0.0,0.0,0.0,0.0,0.0,0.0,0.0,0.0090725762921765,-0.20013551649123368,9.81023335848377,0.0,0.0,0.0,0.0,0.0,0.0,0.0,0.0,0.0
2025/05/21 13:29:54.779622382,1747826994,779297835,mA1/imu,0.3830785005535629,0.9237154082020782,0.0005805013609775219,0.0006083435475792906,0.0,0.0,0.0,0.0,0.0,0.0,0.0,0.0,0.0,0.0007510056575512435,-0.0004446947533934875,0.00041863386836642533,0.0,0.0,0.0,0.0,0.0,0.0,0.0,0.0,0.0,0.004831423818223455,0.29770070410111393,9.810889815504163,0.0,0.0,0.0,0.0,0.0,0.0,0.0,0.0,0.0
2025/05/21 13:29:54.830951472,1747826994,830719131,mA1/imu,0.3830880146540457,0.9237114544901895,0.0005779877513573729,0.0006227376649183684,0.0,0.0,0.0,0.0,0.0,0.0,0.0,0.0,0.0,-0.0008175648532900198,-0.0006541204135089139,0.0004070425170727244,0.0,0.0,0.0,0.0,0.0,0.0,0.0,0.0,0.0,0.010262453067564108,0.5503161142364342,9.811377147050802,0.0,0.0,0.0,0.0,0.0,0.0,0.0,0.0,0.0
2025/05/21 13:29:54.881003142,1747826994,880166520,mA1/imu,0.3830972683437204,0.9237076106887564,0.0005690365230964791,0.0006396410586153734,0.0,0.0,0.0,0.0,0.0,0.0,0.0,0.0,0.0,-0.0005677122973877534,-0.0008222473710192318,0.0003956249946522644,0.0,0.0,0.0,0.0,0.0,0.0,0.0,0.0,0.0,0.009908284899052964,-0.056141079643639895,9.810581500431875,0.0,0.0,0.0,0.0,0.0,0.0,0.0,0.0,0.0
2025/05/21 13:29:54.931437619,1747826994,931284558,mA1/imu,0.3831062694758888,0.9237038718870717,0.0005561870190414967,0.0006587906343179331,0.0,0.0,0.0,0.0,0.0,0.0,0.0,0.0,0.0,0.00011553882611969089,-0.0009403131681082683,0.0003850830910669515,0.0,0.0,0.0,0.0,0.0,0.0,0.0,0.0,0.0,0.008989270532805708,-0.008182772806168241,9.810002686535254,0.0,0.0,0.0,0.0,0.0,0.0,0.0,0.0,0.0
2025/05/21 13:29:54.981452147,1747826994,981168255,mA1/imu,0.38311501974000706,0.9237002301566818,0.0005486347802433787,0.0006822448130658042,0.0,0.0,0.0,0.0,0.0,0.0,0.0,0.0,0.0,-0.0008224581362060885,-0.0009961138284002283,0.00037379752961552606,0.0,0.0,0.0,0.0,0.0,0.0,0.0,0.0,0.0,0.009810447850207162,0.5604482278184976,9.811295818781586,0.0,0.0,0.0,0.0,0.0,0.0,0.0,0.0,0.0
2025/05/21 13:29:55.32775244,1747826995,32481321,mA1/imu,0.38312350640669024,0.9236966923526179,0.0005456254643276324,0.0007082854853030795,0.0,0.0,0.0,0.0,0.0,0.0,0.0,0.0,0.0,-0.0013888525569844012,-0.0010029338173709124,0.0003626923116172316,0.0,0.0,0.0,0.0,0.0,0.0,0.0,0.0,0.0,0.00996238322328135,0.14893602640525602,9.810369254667535,0.0,0.0,0.0,0.0,0.0,0.0,0.0,0.0,0.0
2025/05/21 13:29:55.82921644,1747826995,82277235,mA1/imu,0.38313175006540867,0.9236932567796815,0.000541017838168637,0.0007326467506334007,0.0,0.0,0.0,0.0,0.0,0.0,0.0,0.0,0.0,-0.0013522398013666877,-0.0009322082029030402,0.00035274603698295975,0.0,0.0,0.0,0.0,0.0,0.0,0.0,0.0,0.0,0.00826806840619782,-0.0976620415230343,9.810487908924399,0.0,0.0,0.0,0.0,0.0,0.0,0.0,0.0,0.0
2025/05/21 13:29:55.134327958,1747826995,134031515,mA1/imu,0.38313977077787176,0.9236899224299244,0.0005281762117395395,0.0007511854428060756,0.0,0.0,0.0,0.0,0.0,0.0,0.0,0.0,0.0,0.0001047389369709713,-0.000824516613067016,0.0003428016057397918,0.0,0.0,0.0,0.0,0.0,0.0,0.0,0.0,0.0,0.00829721066211584,0.004303986293132349,9.81003842529186,0.0,0.0,0.0,0.0,0.0,0.0,0.0,0.0,0.0
2025/05/21 13:29:55.183719369,1747826995,183274564,mA1/imu,0.38314773002909913,0.9236866054045331,0.0005300644356262063,0.0007687662148570241,0.0,0.0,0.0,0.0,0.0,0.0,0.0,0.0,0.0,-0.0003015579499420258,-0.00045082346848933255,0.00035092542164063824,0.0,0.0,0.0,0.0,0.0,0.0,0.0,0.0,0.0,0.0005518221659085096,-0.022071988619294297,9.810002755522806,0.0,0.0,0.0,0.0,0.0,0.0,0.0,0.0,0.0
2025/05/21 13:29:55.235435299,1747826995,235042647,mA1/imu,0.38315597922542294,0.9236831750948786,0.0005354583618568674,0.0007751869410518309,0.0,0.0,0.0,0.0,0.0,0.0,0.0,0.0,0.0,-0.0021919146134354926,6.633144111901836e-05,0.00035778144151260344,0.0,0.0,0.0,0.0,0.0,0.0,0.0,0.0,0.0,-0.002042697670849806,0.47968837571639866,9.810366982027173,0.0,0.0,0.0,0.0,0.0,0.0,0.0,0.0,0.0
2025/05/21 13:29:55.284382714,1747826995,284114658,mA1/imu,0.3831639390741635,0.9236798805183274,0.0005372328904838207,0.0007651794824121509,0.0,0.0,0.0,0.0,0.0,0.0,0.0,0.0,0.0,-0.0005688493089357689,0.0006448047714482602,0.00033738030205214195,0.0,0.0,0.0,0.0,0.0,0.0,0.0,0.0,0.0,-0.004399948525247882,-0.037033324605272686,9.810637167983854,0.0,0.0,0.0,0.0,0.0,0.0,0.0,0.0,0.0
2025/05/21 13:29:55.335807013,1747826995,335532464,mA1/imu,0.3831714059563477,0.9236767996045238,0.0005415753982495933,0.0007417721135179382,0.0,0.0,0.0,0.0,0.0,0.0,0.0,0.0,0.0,0.0010444303282424036,0.0011432438230158137,0.00031428691991111716,0.0,0.0,0.0,0.0,0.0,0.0,0.0,0.0,0.0,-0.005205183921968972,0.07797673099243502,9.810882189455878,0.0,0.0,0.0,0.0,0.0,0.0,0.0,0.0,0.0
2025/05/21 13:29:55.385216582,1747826995,385042804,mA1/imu,0.3831815556087777,0.92367260968384,0.000556372967062971,0.0007042799183279117,0.0,0.0,0.0,0.0,0.0,0.0,0.0,0.0,0.0,0.001264284556889016,0.0019397684932802037,0.0005671845036276471,0.0,0.0,0.0,0.0,0.0,0.0,0.0,0.0,0.0,-0.015537629927073943,0.07420079565336662,9.809607837759694,0.0,0.0,0.0,0.0,0.0,0.0,0.0,0.0,0.0
2025/05/21 13:29:55.427400374,1747826995,427182914,mA1/imu,0.38319941160224896,0.92366522703354,0.0005827471431422051,0.0006478599664970519,0.0,0.0,0.0,0.0,0.0,0.0,0.0,0.0,0.0,0.00013548700809616482,0.0027516010331347118,0.0009050233183657363,0.0,0.0,0.0,0.0,0.0,0.0,0.0,0.0,0.0,-0.013393181816500123,-0.04855947176652705,9.808976479719048,0.0,0.0,0.0,0.0,0.0,0.0,0.0,0.0,0.0
2025/05/21 13:29:55.476241314,1747826995,476008994,mA1/imu,0.3832252920803756,0.9236545263352799,0.0006031254106571824,0.0005724770733128437,0.0,0.0,0.0,0.0,0.0,0.0,0.0,0.0,0.0,0.00035097907194583787,0.003267494726137398,0.0012683125649927442,0.0,0.0,0.0,0.0,0.0,0.0,0.0,0.0,0.0,-0.010692149364738333,-0.638105791939586,9.8082445873664,0.0,0.0,0.0,0.0,0.0,0.0,0.0,0.0,0.0
2025/05/21 13:29:55.528098927,1747826995,527914609,mA1/imu,0.3832590635272499,0.9236405557347622,0.0006152387608985801,0.00048529111077145364,0.0,0.0,0.0,0.0,0.0,0.0,0.0,0.0,0.0,0.0005581711040223759,0.0034299343827013905,0.0015528568071468802,0.0,0.0,0.0,0.0,0.0,0.0,0.0,0.0,0.0,0.006617954273124512,-0.10692780499306596,9.809143016526182,0.0,0.0,0.0,0.0,0.0,0.0,0.0,0.0,0.0
2025/05/21 13:29:55.577216328,1747826995,576892353,mA1/imu,0.38329795113611403,0.9236244568357355,0.0006210474989009754,0.000397101692115615,0.0,0.0,0.0,0.0,0.0,0.0,0.0,0.0,0.0,0.0003322171781655583,0.0034080399124762515,0.0018279553700297872,0.0,0.0,0.0,0.0,0.0,0.0,0.0,0.0,0.0,-0.01573003692970186,0.5982072772291672,9.812443362983258,0.0,0.0,0.0,0.0,0.0,0.0,0.0,0.0,0.0
2025/05/21 13:29:55.628072380,1747826995,627931599,mA1/imu,0.3833442434470624,0.9236052613162536,0.0006408385915622388,0.00031876454272066667,0.0,0.0,0.0,0.0,0.0,0.0,0.0,0.0,0.0,-0.00010354604134689948,0.0029597287778198203,0.0020715077300183745,0.0,0.0,0.0,0.0,0.0,0.0,0.0,0.0,0.0,0.011303088986277512,0.244705036638724,9.809975039194349,0.0,0.0,0.0,0.0,0.0,0.0,0.0,0.0,0.0
2025/05/21 13:29:55.677837333,1747826995,677603732,mA1/imu,0.38339057644940533,0.9235860549710475,0.0006335766460521803,0.00025205841301569016,0.0,0.0,0.0,0.0,0.0,0.0,0.0,0.0,0.0,0.0020345749137892447,0.0019114177601857716,0.0019554983301086452,0.0,0.0,0.0,0.0,0.0,0.0,0.0,0.0,0.0,0.013109148011750536,-0.3152753499441463,9.808725627723152,0.0,0.0,0.0,0.0,0.0,0.0,0.0,0.0,0.0
2025/05/21 13:29:55.728780061,1747826995,728688397,mA1/imu,0.3834334344521171,0.9235682774127169,0.0006258301626050273,0.00021595779348221805,0.0,0.0,0.0,0.0,0.0,0.0,0.0,0.0,0.0,0.0001097550253862666,0.0007290744730582795,0.001820019710730126,0.0,0.0,0.0,0.0,0.0,0.0,0.0,0.0,0.0,0.015216154211016943,0.3679043719990563,9.809912943841345,0.0,0.0,0.0,0.0,0.0,0.0,0.0,0.0,0.0
2025/05/21 13:29:55.778884705,1747826995,778539807,mA1/imu,0.38347794724790674,0.9235498169395728,0.0006006844792441938,0.00019693544533543256,0.0,0.0,0.0,0.0,0.0,0.0,0.0,0.0,0.0,0.001580582633409984,0.0001177452555255785,0.0020554601600700716,0.0,0.0,0.0,0.0,0.0,0.0,0.0,0.0,0.0,-0.008838620876708347,0.040895884888827144,9.809084420965183,0.0,0.0,0.0,0.0,0.0,0.0,0.0,0.0,0.0
2025/05/21 13:29:55.829790460,1747826995,829607535,mA1/imu,0.38352425825585107,0.9235306002096371,0.0005766153664154288,0.0002032743125752662,0.0,0.0,0.0,0.0,0.0,0.0,0.0,0.0,0.0,0.0018308818678870443,-0.0010847063255628225,0.001972421801158703,0.0,0.0,0.0,0.0,0.0,0.0,0.0,0.0,0.0,0.013793713536634401,-0.5551870110433685,9.809469679750737,0.0,0.0,0.0,0.0,0.0,0.0,0.0,0.0,0.0
2025/05/21 13:29:55.879872865,1747826995,879470550,mA1/imu,0.38356870279102845,0.9235121578580036,0.0005380162863115505,0.00023466175033680728,0.0,0.0,0.0,0.0,0.0,0.0,0.0,0.0,0.0,0.0002228092063789083,-0.0021783642257471422,0.0018917850497193486,0.0,0.0,0.0,0.0,0.0,0.0,0.0,0.0,0.0,0.013783385212999143,0.5969829368835208,9.810787064399488,0.0,0.0,0.0,0.0,0.0,0.0,0.0,0.0,0.0
2025/05/21 13:29:55.930620130,1747826995,930449371,mA1/imu,0.3836113511523893,0.9234944477680372,0.0005001364824476047,0.0002933805467456764,0.0,0.0,0.0,0.0,0.0,0.0,0.0,0.0,0.0,-0.0009225736856862632,-0.0031031995640904927,0.0018151728415217669,0.0,0.0,0.0,0.0,0.0,0.0,0.0,0.0,0.0,0.011959070693292734,0.27944810022576594,9.811183073678208,0.0,0.0,0.0,0.0,0.0,0.0,0.0,0.0,0.0
2025/05/21 13:29:55.980465529,1747826995,980310204,mA1/imu,0.3836617916845248,0.9234734947227031,0.0004565797121161164,0.00035451519624016823,0.0,0.0,0.0,0.0,0.0,0.0,0.0,0.0,0.0,0.0007247986804904277,-0.0025805040820851997,0.002565334014187502,0.0,0.0,0.0,0.0,0.0,0.0,0.0,0.0,0.0,-0.038607879246434516,-0.6024723248153586,9.808688626477,0.0,0.0,0.0,0.0,0.0,0.0,0.0,0.0,0.0
2025/05/21 13:29:56.31565897,1747826996,31305771,mA1/imu,0.3837198699786942,0.9234493563443182,0.00041566195110707955,0.0004181817077988519,0.0,0.0,0.0,0.0,0.0,0.0,0.0,0.0,0.0,0.0014634472228768163,-0.0032247904641427797,0.0024807380154722503,0.0,0.0,0.0,0.0,0.0,0.0,0.0,0.0,0.0,0.01147063897227728,-0.535278517287801,9.809297513278946,0.0,0.0,0.0,0.0,0.0,0.0,0.0,0.0,0.0
2025/05/21 13:29:56.81354393,1747826996,81186904,mA1/imu,0.3837754662122915,0.923426229217022,0.0003792259851533086,0.0004969056474749358,0.0,0.0,0.0,0.0,0.0,0.0,0.0,0.0,0.0,-0.00042524904010143855,-0.003585901218481954,0.0023475046742982646,0.0,0.0,0.0,0.0,0.0,0.0,0.0,0.0,0.0,0.008269115008939305,0.6036585895374549,9.811954996141536,0.0,0.0,0.0,0.0,0.0,0.0,0.0,0.0,0.0
2025/05/21 13:29:56.132340175,1747826996,132161673,mA1/imu,0.38382857067724796,0.9234041181203861,0.0003481915909648559,0.0005845791554992608,0.0,0.0,0.0,0.0,0.0,0.0,0.0,0.0,0.0,0.00018229472325233666,-0.0037726571568007495,0.002267311191171716,0.0,0.0,0.0,0.0,0.0,0.0,0.0,0.0,0.0,0.00861966091749464,-0.34070910824476003,9.809849093868936,0.0,0.0,0.0,0.0,0.0,0.0,0.0,0.0,0.0
2025/05/21 13:29:56.182995137,1747826996,182233339,mA1/imu,0.3838798326777708,0.923382757019482,0.0003203408988574013,0.0006748956180018199,0.0,0.0,0.0,0.0,0.0,0.0,0.0,0.0,0.0,0.00010160673092316401,-0.0037260651404402434,0.0021867873828295145,0.0,0.0,0.0,0.0,0.0,0.0,0.0,0.0,0.0,0.008603233526393885,-0.03803137690562742,9.810487799877375,0.0,0.0,0.0,0.0,0.0,0.0,0.0,0.0,0.0
2025/05/21 13:29:56.234339638,1747826996,233959981,mA1/imu,0.3839292074797843,0.9233621632827986,0.0003055494765854981,0.0007653111604625672,0.0,0.0,0.0,0.0,0.0,0.0,0.0,0.0,0.0,-0.0016459524469313173,-0.003433660371572409,0.002106493053732889,0.0,0.0,0.0,0.0,0.0,0.0,0.0,0.0,0.0,0.0077174566086731355,0.5714077212305748,9.811118513264544,0.0,0.0,0.0,0.0,0.0,0.0,0.0,0.0,0.0
2025/05/21 13:29:56.283327666,1747826996,283080855,mA1/imu,0.3839774147225532,0.9233420515519698,0.0002944088157081976,0.0008450693659585941,0.0,0.0,0.0,0.0,0.0,0.0,0.0,0.0,0.0,-0.001408721002215956,-0.002872458911798354,0.0020853794402352515,0.0,0.0,0.0,0.0,0.0,0.0,0.0,0.0,0.0,0.003985945641751112,-0.17389426077083875,9.810198204351519,0.0,0.0,0.0,0.0,0.0,0.0,0.0,0.0,0.0
2025/05/21 13:29:56.335091160,1747826996,334806919,mA1/imu,0.38402459649271425,0.923322369535314,0.0002876085084932206,0.0009102118691928694,0.0,0.0,0.0,0.0,0.0,0.0,0.0,0.0,0.0,-0.002050805749742968,-0.0022453907990053145,0.002016045723190518,0.0,0.0,0.0,0.0,0.0,0.0,0.0,0.0,0.0,0.006829428733660051,0.5304746053008554,9.810293797164952,0.0,0.0,0.0,0.0,0.0,0.0,0.0,0.0,0.0
2025/05/21 13:29:56.384689715,1747826996,384453832,mA1/imu,0.38407357325456387,0.9233019430962158,0.00030182626438043946,0.0009597411785481843,0.0,0.0,0.0,0.0,0.0,0.0,0.0,0.0,0.0,-0.002092637229570664,-0.0011020868791258066,0.0022381225538210146,0.0,0.0,0.0,0.0,0.0,0.0,0.0,0.0,0.0,-0.009317477087453759,0.1735227865130305,9.810055958597873,0.0,0.0,0.0,0.0,0.0,0.0,0.0,0.0,0.0
2025/05/21 13:29:56.436280821,1747826996,436015513,mA1/imu,0.3841242808135334,0.923280809953579,0.00032575062518351675,0.000988305357166007,0.0,0.0,0.0,0.0,0.0,0.0,0.0,0.0,0.0,-0.002061454008927723,-0.00041046098745623085,0.0021708993238322783,0.0,0.0,0.0,0.0,0.0,0.0,0.0,0.0,0.0,0.01003357007812725,-0.30505718783882046,9.810216295829292,0.0,0.0,0.0,0.0,0.0,0.0,0.0,0.0,0.0
2025/05/21 13:29:56.485450317,1747826996,485228656,mA1/imu,0.38417604059420263,0.9232592585089491,0.0003514337072012774,0.000993934211528048,0.0,0.0,0.0,0.0,0.0,0.0,0.0,0.0,0.0,-0.0022475023641877964,0.000560678618942759,0.0022796700118243667,0.0,0.0,0.0,0.0,0.0,0.0,0.0,0.0,0.0,0.0075886938460126094,-0.06626639570581125,9.810174393112549,0.0,0.0,0.0,0.0,0.0,0.0,0.0,0.0,0.0
2025/05/21 13:29:56.526759864,1747826996,526372282,mA1/imu,0.3842276829013583,0.923237770231524,0.0003802825743357809,0.0009811703933742225,0.0,0.0,0.0,0.0,0.0,0.0,0.0,0.0,0.0,-0.0010283043300408719,0.001149045794482597,0.0022113064420740476,0.0,0.0,0.0,0.0,0.0,0.0,0.0,0.0,0.0,0.011600565832644261,0.013409698914029617,9.809469097946975,0.0,0.0,0.0,0.0,0.0,0.0,0.0,0.0,0.0
2025/05/21 13:29:56.575986240,1747826996,575900213,mA1/imu,0.3842786255444939,0.9232165717353307,0.00042423447990702135,0.0009589827963032456,0.0,0.0,0.0,0.0,0.0,0.0,0.0,0.0,0.0,-0.0015621799739909449,0.0017336434744483651,0.0022151542226563786,0.0,0.0,0.0,0.0,0.0,0.0,0.0,0.0,0.0,0.009192848836190362,0.5478230922590508,9.810915409572948,0.0,0.0,0.0,0.0,0.0,0.0,0.0,0.0,0.0
2025/05/21 13:29:56.628153728,1747826996,627846170,mA1/imu,0.384328813447238,0.9231956955098737,0.0004675116028967469,0.0009232438356469334,0.0,0.0,0.0,0.0,0.0,0.0,0.0,0.0,0.0,-0.0012188231758441124,0.002137763746864784,0.0021509440998782442,0.0,0.0,0.0,0.0,0.0,0.0,0.0,0.0,0.0,0.012940607825814021,-0.09026759757481402,9.810554473086674,0.0,0.0,0.0,0.0,0.0,0.0,0.0,0.0,0.0
2025/05/21 13:29:56.677083998,1747826996,676873713,mA1/imu,0.3843778118645938,0.9231753247287343,0.0005053723785584351,0.0008730160031538265,0.0,0.0,0.0,0.0,0.0,0.0,0.0,0.0,0.0,0.0005516747675873436,0.0026444284960071103,0.00211431677246473,0.0,0.0,0.0,0.0,0.0,0.0,0.0,0.0,0.0,0.004356041746693757,-0.5352385709174243,9.809859353390397,0.0,0.0,0.0,0.0,0.0,0.0,0.0,0.0,0.0
2025/05/21 13:29:56.728483535,1747826996,728374219,mA1/imu,0.3844256000613834,0.9231554486748752,0.0005526574298905459,0.0008186385652108924,0.0,0.0,0.0,0.0,0.0,0.0,0.0,0.0,0.0,-9.910959651978016e-05,0.0027630247511791013,0.002046394904758899,0.0,0.0,0.0,0.0,0.0,0.0,0.0,0.0,0.0,0.01417014306960864,-0.054352048492398025,9.809594156826488,0.0,0.0,0.0,0.0,0.0,0.0,0.0,0.0,0.0
2025/05/21 13:29:56.778011874,1747826996,777784703,mA1/imu,0.3844723918845936,0.9231359910177636,0.0005892824602344673,0.0007580978650202452,0.0,0.0,0.0,0.0,0.0,0.0,0.0,0.0,0.0,-0.00015545519450181904,0.00280550059353312,0.00202860419986961,0.0,0.0,0.0,0.0,0.0,0.0,0.0,0.0,0.0,0.010998975130021783,-0.5449203565384009,9.80978088542785,0.0,0.0,0.0,0.0,0.0,0.0,0.0,0.0,0.0
2025/05/21 13:29:56.829888213,1747826996,829566155,mA1/imu,0.38451827185121973,0.9231169125839841,0.0006161369265597848,0.0006961962740500592,0.0,0.0,0.0,0.0,0.0,0.0,0.0,0.0,0.0,0.00027351031421920006,0.0026060707392450114,0.0019643649291980125,0.0,0.0,0.0,0.0,0.0,0.0,0.0,0.0,0.0,0.014844787300213474,0.029838403235757652,9.810666780207946,0.0,0.0,0.0,0.0,0.0,0.0,0.0,0.0,0.0
2025/05/21 13:29:56.879019709,1747826996,878726708,mA1/imu,0.38457303915907776,0.9230941259706211,0.0006477385147359018,0.0006265662791031894,0.0,0.0,0.0,0.0,0.0,0.0,0.0,0.0,0.0,0.0018742656191631523,0.003529367269325069,0.0028070129024680666,0.0,0.0,0.0,0.0,0.0,0.0,0.0,0.0,0.0,-0.03771359574321696,-0.510604621638046,9.808101039871804,0.0,0.0,0.0,0.0,0.0,0.0,0.0,0.0,0.0
2025/05/21 13:29:56.929972164,1747826996,929756008,mA1/imu,0.3846367435036898,0.9230676107835964,0.0006755817079000224,0.0005523210075778826,0.0,0.0,0.0,0.0,0.0,0.0,0.0,0.0,0.0,0.0002721006866868593,0.0028912113020362713,0.0027342696811330047,0.0,0.0,0.0,0.0,0.0,0.0,0.0,0.0,0.0,0.01809439093692434,0.21986151801395315,9.809733144124614,0.0,0.0,0.0,0.0,0.0,0.0,0.0,0.0,0.0
2025/05/21 13:29:56.979994155,1747826996,979637816,mA1/imu,0.38469750622020527,0.9230423118355082,0.000690657309465956,0.0004922009714466144,0.0,0.0,0.0,0.0,0.0,0.0,0.0,0.0,0.0,-0.000546234273679859,0.0021624032371159413,0.002547137521421374,0.0,0.0,0.0,0.0,0.0,0.0,0.0,0.0,0.0,0.015796393999163105,0.5595689282517832,9.809008673838196,0.0,0.0,0.0,0.0,0.0,0.0,0.0,0.0,0.0
2025/05/21 13:29:57.31551697,1747826997,31152069,mA1/imu,0.38475515029435736,0.9230183014645006,0.0006975239386080982,0.00045049296328419366,0.0,0.0,0.0,0.0,0.0,0.0,0.0,0.0,0.0,0.0001722263837341981,0.0012957260217231013,0.0024670725368929128,0.0,0.0,0.0,0.0,0.0,0.0,0.0,0.0,0.0,0.01712946429075552,-0.0304388348122183,9.809836842127732,0.0,0.0,0.0,0.0,0.0,0.0,0.0,0.0,0.0
2025/05/21 13:29:57.80820348,1747826997,80570175,mA1/imu,0.38481175906752524,0.9229947259973653,0.000683591981204577,0.00042257118775040523,0.0,0.0,0.0,0.0,0.0,0.0,0.0,0.0,0.0,0.0014238790052544831,0.0004949212789561747,0.0024565973217943234,0.0,0.0,0.0,0.0,0.0,0.0,0.0,0.0,0.0,0.012924596625553118,-0.5376005952239202,9.8089992645795,0.0,0.0,0.0,0.0,0.0,0.0,0.0,0.0,0.0
2025/05/21 13:29:57.132591392,1747826997,131995028,mA1/imu,0.3848673992149175,0.922971547527497,0.0006603106315616656,0.00041408466844610267,0.0,0.0,0.0,0.0,0.0,0.0,0.0,0.0,0.0,0.0018993564116588403,-0.00040953551362789547,0.0023810604457953923,0.0,0.0,0.0,0.0,0.0,0.0,0.0,0.0,0.0,0.015605558927362364,-0.17797995355054363,9.810813098720645,0.0,0.0,0.0,0.0,0.0,0.0,0.0,0.0,0.0
2025/05/21 13:29:57.182084178,1747826997,181680372,mA1/imu,0.3849313327306222,0.9229449001451037,0.0006400192606918564,0.0004132235682764205,0.0,0.0,0.0,0.0,0.0,0.0,0.0,0.0,0.0,0.0009608230072039276,1.8990210639345775e-05,0.0031873254656756807,0.0,0.0,0.0,0.0,0.0,0.0,0.0,0.0,0.0,-0.03808546039844598,0.0010718729044632662,9.80602486860577,0.0,0.0,0.0,0.0,0.0,0.0,0.0,0.0,0.0
2025/05/21 13:29:57.233981924,1747826997,233533458,mA1/imu,0.38500377779601985,0.9229146976731982,0.000614819892339288,0.00041701088950720465,0.0,0.0,0.0,0.0,0.0,0.0,0.0,0.0,0.0,0.0005603545342428577,-0.0008876192464209815,0.0031067134476266073,0.0,0.0,0.0,0.0,0.0,0.0,0.0,0.0,0.0,0.01685578150787626,0.13673864586430495,9.810145758899333,0.0,0.0,0.0,0.0,0.0,0.0,0.0,0.0,0.0
2025/05/21 13:29:57.282785021,1747826997,282518169,mA1/imu,0.38507438199035465,0.9228852587793426,0.0005729500720157077,0.00043725364178122834,0.0,0.0,0.0,0.0,0.0,0.0,0.0,0.0,0.0,0.0019895126733285116,-0.0017196143168147226,0.0030270137084348558,0.0,0.0,0.0,0.0,0.0,0.0,0.0,0.0,0.0,0.01633073095580885,0.07246976100407893,9.813032671679826,0.0,0.0,0.0,0.0,0.0,0.0,0.0,0.0,0.0
2025/05/21 13:29:57.334727734,1747826997,334188097,mA1/imu,0.3851431513383392,0.9228565643342107,0.0005341872855911076,0.00047883856805237617,0.0,0.0,0.0,0.0,0.0,0.0,0.0,0.0,0.0,0.0014002205544960868,-0.0023965085228456386,0.002947728745124826,0.0,0.0,0.0,0.0,0.0,0.0,0.0,0.0,0.0,0.014544284539900362,0.10173305883195755,9.810640309094648,0.0,0.0,0.0,0.0,0.0,0.0,0.0,0.0,0.0
2025/05/21 13:29:57.383832831,1747826997,383470538,mA1/imu,0.38521369914088915,0.9228271121151286,0.000497057421108746,0.0005292195806870018,0.0,0.0,0.0,0.0,0.0,0.0,0.0,0.0,0.0,0.0008095452046104988,-0.0023529332930799264,0.003196860321217407,0.0,0.0,0.0,0.0,0.0,0.0,0.0,0.0,0.0,-0.009682482450428562,-0.002113283664618203,9.808323866597634,0.0,0.0,0.0,0.0,0.0,0.0,0.0,0.0,0.0
2025/05/21 13:29:57.436227682,1747826997,435339080,mA1/imu,0.3852863297458257,0.9227967768837824,0.00045986702157319015,0.0005841285956881136,0.0,0.0,0.0,0.0,0.0,0.0,0.0,0.0,0.0,0.00037025404406968696,-0.002770972655331833,0.003113164210673784,0.0,0.0,0.0,0.0,0.0,0.0,0.0,0.0,0.0,0.017184358730279486,-0.642647115426438,9.81050542656184,0.0,0.0,0.0,0.0,0.0,0.0,0.0,0.0,0.0
2025/05/21 13:29:57.484618271,1747826997,484311692,mA1/imu,0.3853569975464285,0.9227672468398768,0.000416669390474684,0.0006472929589484483,0.0,0.0,0.0,0.0,0.0,0.0,0.0,0.0,0.0,0.0007219107598545314,-0.003123330278716579,0.0030266032182025577,0.0,0.0,0.0,0.0,0.0,0.0,0.0,0.0,0.0,0.01640932431999024,-0.34461771214800996,9.811140310877104,0.0,0.0,0.0,0.0,0.0,0.0,0.0,0.0,0.0
2025/05/21 13:29:57.536322629,1747826997,536055486,mA1/imu,0.3854256622219048,0.9227385340588226,0.00037650132705612996,0.0007175726669091437,0.0,0.0,0.0,0.0,0.0,0.0,0.0,0.0,0.0,0.000461239589681702,-0.0032641225416276233,0.002940648801515086,0.0,0.0,0.0,0.0,0.0,0.0,0.0,0.0,0.0,0.015779098890530256,-0.6137393911637917,9.811106548834244,0.0,0.0,0.0,0.0,0.0,0.0,0.0,0.0,0.0
2025/05/21 13:29:57.585412789,1747826997,585255344,mA1/imu,0.38549278220836986,0.9227104513009177,0.0003388423643115476,0.0007893739032072502,0.0,0.0,0.0,0.0,0.0,0.0,0.0,0.0,0.0,0.0008110678706405157,-0.00317263779538443,0.002886374976403754,0.0,0.0,0.0,0.0,0.0,0.0,0.0,0.0,0.0,0.01351665562780719,-0.5700401788718786,9.809254568914994,0.0,0.0,0.0,0.0,0.0,0.0,0.0,0.0,0.0
2025/05/21 13:29:57.627212352,1747826997,626945925,mA1/imu,0.3855582426220629,0.9226830479509941,0.0003100793003583475,0.0008593141903243207,0.0,0.0,0.0,0.0,0.0,0.0,0.0,0.0,0.0,7.608779956540346e-05,-0.0029086848474116993,0.0028041661884165175,0.0,0.0,0.0,0.0,0.0,0.0,0.0,0.0,0.0,0.013703286117432613,0.012469786780721767,9.809768971059203,0.0,0.0,0.0,0.0,0.0,0.0,0.0,0.0,0.0
2025/05/21 13:29:57.676462090,1747826997,676157687,mA1/imu,0.3856249353580347,0.9226551284044524,0.0002876392175380584,0.0009168002810156091,0.0,0.0,0.0,0.0,0.0,0.0,0.0,0.0,0.0,0.0004803475167727725,-0.0020884864119925725,0.0029915777936966054,0.0,0.0,0.0,0.0,0.0,0.0,0.0,0.0,0.0,-0.0022123601913102697,-0.08163239846099354,9.809721354310138,0.0,0.0,0.0,0.0,0.0,0.0,0.0,0.0,0.0
2025/05/21 13:29:57.728199632,1747826997,728007198,mA1/imu,0.38569278456556305,0.9226267224409677,0.0002817754806192146,0.0009631066806281463,0.0,0.0,0.0,0.0,0.0,0.0,0.0,0.0,0.0,-0.0008622242093995482,-0.0016014767038903498,0.0029086944844980006,0.0,0.0,0.0,0.0,0.0,0.0,0.0,0.0,0.0,0.014703225690016957,0.0723648259008147,9.810035192008018,0.0,0.0,0.0,0.0,0.0,0.0,0.0,0.0,0.0
2025/05/21 13:29:57.777541693,1747826997,777253898,mA1/imu,0.38576873952007984,0.9225949506668795,0.0002803635746087629,0.0009787795119828215,0.0,0.0,0.0,0.0,0.0,0.0,0.0,0.0,0.0,-0.0002486711481388869,0.0003553718534088479,0.003711294772684622,0.0,0.0,0.0,0.0,0.0,0.0,0.0,0.0,0.0,-0.04336394186083917,0.017242546188450388,9.813704078738489,0.0,0.0,0.0,0.0,0.0,0.0,0.0,0.0,0.0
2025/05/21 13:29:57.829078527,1747826997,828834947,mA1/imu,0.38585298090836884,0.9225597231265725,0.00030219636531564803,0.0009711159067870302,0.0,0.0,0.0,0.0,0.0,0.0,0.0,0.0,0.0,-0.0007244079576844007,0.0007913014672976866,0.0036153131574964683,0.0,0.0,0.0,0.0,0.0,0.0,0.0,0.0,0.0,0.01704739190049349,0.6282862317441594,9.810926706121663,0.0,0.0,0.0,0.0,0.0,0.0,0.0,0.0,0.0
2025/05/21 13:29:57.878501628,1747826997,878143858,mA1/imu,0.38593585985010526,0.9225250608604983,0.00033402580304521784,0.00095529726089156,0.0,0.0,0.0,0.0,0.0,0.0,0.0,0.0,0.0,-0.0017324792774351418,0.0012702894894764745,0.0035881066264130236,0.0,0.0,0.0,0.0,0.0,0.0,0.0,0.0,0.0,0.013941984325936466,0.4360322865454429,9.809851093218432,0.0,0.0,0.0,0.0,0.0,0.0,0.0,0.0,0.0
2025/05/21 13:29:57.929337357,1747826997,929147921,mA1/imu,0.3860173087006506,0.9224909949046485,0.0003688806424476305,0.0009303926107994175,0.0,0.0,0.0,0.0,0.0,0.0,0.0,0.0,0.0,-0.0011210218843610816,0.0015721593874448245,0.0034964165067401715,0.0,0.0,0.0,0.0,0.0,0.0,0.0,0.0,0.0,0.017675748990179565,-0.20584067614041368,9.809019661964154,0.0,0.0,0.0,0.0,0.0,0.0,0.0,0.0,0.0
2025/05/21 13:29:57.979552110,1747826997,979137110,mA1/imu,0.38610012878444055,0.922456360449925,0.0004012241584919634,0.0008903017979389931,0.0,0.0,0.0,0.0,0.0,0.0,0.0,0.0,0.0,0.00017489371769789777,0.002291077244568143,0.003709292399262927,0.0,0.0,0.0,0.0,0.0,0.0,0.0,0.0,0.0,-0.0007601325950285336,-0.45861082057776364,9.806828888638236,0.0,0.0,0.0,0.0,0.0,0.0,0.0,0.0,0.0
2025/05/21 13:29:58.30571474,1747826998,30402760,mA1/imu,0.3861844341110065,0.9224210883825179,0.00044898588778188257,0.0008467403648310182,0.0,0.0,0.0,0.0,0.0,0.0,0.0,0.0,0.0,-0.002137119141106537,0.0023531355210556198,0.0036242193007970974,0.0,0.0,0.0,0.0,0.0,0.0,0.0,0.0,0.0,0.01945808615830215,0.5434473314215318,9.809829982313895,0.0,0.0,0.0,0.0,0.0,0.0,0.0,0.0,0.0
2025/05/21 13:29:58.80389306,1747826998,80023068,mA1/imu,0.3862658430334568,0.9223870214658186,0.0004903454959324605,0.0008004363578403464,0.0,0.0,0.0,0.0,0.0,0.0,0.0,0.0,0.0,-0.0009095414689498571,0.0023492920736454576,0.003462830089589373,0.0,0.0,0.0,0.0,0.0,0.0,0.0,0.0,0.0,0.015339507945337012,0.15360843107054337,9.809542458111896,0.0,0.0,0.0,0.0,0.0,0.0,0.0,0.0,0.0
2025/05/21 13:29:58.131208660,1747826998,130994184,mA1/imu,0.3863443595610099,0.9223541511893175,0.0005319780867389347,0.0007567156282579599,0.0,0.0,0.0,0.0,0.0,0.0,0.0,0.0,0.0,-0.0008203418158522694,0.0021745010116950114,0.003370669419996356,0.0,0.0,0.0,0.0,0.0,0.0,0.0,0.0,0.0,0.01873831965710091,-0.0001472624196966199,9.809403951835897,0.0,0.0,0.0,0.0,0.0,0.0,0.0,0.0,0.0
2025/05/21 13:29:58.181275276,1747826998,180982894,mA1/imu,0.3864215628325505,0.9223218237163595,0.0005644582827633533,0.0007146057827614662,0.0,0.0,0.0,0.0,0.0,0.0,0.0,0.0,0.0,-0.0010354017311777271,0.001976290401132296,0.0033466007945658037,0.0,0.0,0.0,0.0,0.0,0.0,0.0,0.0,0.0,0.015581381967867675,0.6031444387222251,9.811490805124759,0.0,0.0,0.0,0.0,0.0,0.0,0.0,0.0,0.0
2025/05/21 13:29:58.232187547,1747826998,231984479,mA1/imu,0.3864974472804776,0.9222900289680577,0.0006002289791459529,0.0006822293941010863,0.0,0.0,0.0,0.0,0.0,0.0,0.0,0.0,0.0,-0.0006890459530215302,0.0015806591054146868,0.003257422975145228,0.0,0.0,0.0,0.0,0.0,0.0,0.0,0.0,0.0,0.018855773893200586,-0.009383982746102243,9.810460505914119,0.0,0.0,0.0,0.0,0.0,0.0,0.0,0.0,0.0
2025/05/21 13:29:58.282012728,1747826998,281847931,mA1/imu,0.3865812719978582,0.9222549134246504,0.0006222927835520131,0.0006384013628005893,0.0,0.0,0.0,0.0,0.0,0.0,0.0,0.0,0.0,0.00045199011675478855,0.0023960008772542685,0.004050806189834456,0.0,0.0,0.0,0.0,0.0,0.0,0.0,0.0,0.0,-0.03478544548910413,0.05592655643983851,9.804507605104407,0.0,0.0,0.0,0.0,0.0,0.0,0.0,0.0,0.0
2025/05/21 13:29:58.333883714,1747826998,333594029,mA1/imu,0.3866732612704981,0.9222163490760159,0.0006595231246226082,0.0005996203709535629,0.0,0.0,0.0,0.0,0.0,0.0,0.0,0.0,0.0,0.0004342250591120018,0.0017157612008209737,0.0039532848094544285,0.0,0.0,0.0,0.0,0.0,0.0,0.0,0.0,0.0,0.02074166872759671,-0.463278546758299,9.809444508715456,0.0,0.0,0.0,0.0,0.0,0.0,0.0,0.0,0.0
2025/05/21 13:29:58.383483082,1747826998,383001538,mA1/imu,0.3867635908882219,0.9221784872793927,0.0006644253501193168,0.0005664815029481915,0.0,0.0,0.0,0.0,0.0,0.0,0.0,0.0,0.0,0.00016299951608192317,0.001023799095210808,0.003903713048600513,0.0,0.0,0.0,0.0,0.0,0.0,0.0,0.0,0.0,0.01870585726994288,0.09659313301715085,9.80959149859642,0.0,0.0,0.0,0.0,0.0,0.0,0.0,0.0,0.0
2025/05/21 13:29:58.434080618,1747826998,433922891,mA1/imu,0.3868522633544499,0.9221412902809494,0.0006762525871057245,0.0005565779043245544,0.0,0.0,0.0,0.0,0.0,0.0,0.0,0.0,0.0,0.0006491216657496787,0.00021689815744615625,0.00380943691538728,0.0,0.0,0.0,0.0,0.0,0.0,0.0,0.0,0.0,0.020927400508772256,-0.5944195138363361,9.810071127046113,0.0,0.0,0.0,0.0,0.0,0.0,0.0,0.0,0.0
2025/05/21 13:29:58.484118069,1747826998,483889898,mA1/imu,0.3869395972307626,0.922104656940231,0.0006634729558587881,0.000556370084212749,0.0,0.0,0.0,0.0,0.0,0.0,0.0,0.0,0.0,0.0012207519860305475,-0.0004608641852792561,0.0037873797964822825,0.0,0.0,0.0,0.0,0.0,0.0,0.0,0.0,0.0,0.0167884018394261,-0.5699907554970224,9.80983216074298,0.0,0.0,0.0,0.0,0.0,0.0,0.0,0.0,0.0
2025/05/21 13:29:58.535699062,1747826998,535457063,mA1/imu,0.38702566806080396,0.9220685418113329,0.000640792225743083,0.0005708321415630682,0.0,0.0,0.0,0.0,0.0,0.0,0.0,0.0,0.0,0.00038990673308694735,-0.001166864488688215,0.00369699224699447,0.0,0.0,0.0,0.0,0.0,0.0,0.0,0.0,0.0,0.01945388530985697,-0.007765199007576209,9.810188630208733,0.0,0.0,0.0,0.0,0.0,0.0,0.0,0.0,0.0
2025/05/21 13:29:58.584924585,1747826998,584722224,mA1/imu,0.38711210040110955,0.9220322539600063,0.0006197973756628518,0.0006001930394385817,0.0,0.0,0.0,0.0,0.0,0.0,0.0,0.0,0.0,0.0003684883771160716,-0.0015789114676899559,0.0037769517802240696,0.0,0.0,0.0,0.0,0.0,0.0,0.0,0.0,0.0,0.016230378623050688,-0.04776367566546259,9.81209381266499,0.0,0.0,0.0,0.0,0.0,0.0,0.0,0.0,0.0
2025/05/21 13:29:58.636720140,1747826998,636373227,mA1/imu,0.3871980785694668,0.9219961517028582,0.0005824454775165516,0.0006363603529903653,0.0,0.0,0.0,0.0,0.0,0.0,0.0,0.0,0.0,0.0008449366628210824,-0.0021266725752239453,0.0036969248293249337,0.0,0.0,0.0,0.0,0.0,0.0,0.0,0.0,0.0,0.018740320549187763,-0.6251980625226686,9.811297930156744,0.0,0.0,0.0,0.0,0.0,0.0,0.0,0.0,0.0
2025/05/21 13:29:58.676030186,1747826998,675714046,mA1/imu,0.3872816393421624,0.9219610447366385,0.000544840826677648,0.0006833484081454888,0.0,0.0,0.0,0.0,0.0,0.0,0.0,0.0,0.0,-0.0006529411368511167,-0.0024274852274442683,0.0035767657573619518,0.0,0.0,0.0,0.0,0.0,0.0,0.0,0.0,0.0,0.01673855970853035,-0.10361716779413316,9.810592868698738,0.0,0.0,0.0,0.0,0.0,0.0,0.0,0.0,0.0
2025/05/21 13:29:58.726777267,1747826998,726570003,mA1/imu,0.38736300063974305,0.9219268671194595,0.000480050430467488,0.0007259271706551674,0.0,0.0,0.0,0.0,0.0,0.0,0.0,0.0,0.0,3.98942267005307e-06,-0.0026285678312668375,0.003493973493192561,0.0,0.0,0.0,0.0,0.0,0.0,0.0,0.0,0.0,0.015981695172795116,0.565465799178773,9.810574477808013,0.0,0.0,0.0,0.0,0.0,0.0,0.0,0.0,0.0
2025/05/21 13:29:58.776569470,1747826998,776389985,mA1/imu,0.3874434860432868,0.921893026959863,0.00043253512549068366,0.000777739527258644,0.0,0.0,0.0,0.0,0.0,0.0,0.0,0.0,0.0,0.0019437114998682797,-0.002623299887324509,0.0034903581573792674,0.0,0.0,0.0,0.0,0.0,0.0,0.0,0.0,0.0,0.012669852084357386,0.33084462371540485,9.811279597806172,0.0,0.0,0.0,0.0,0.0,0.0,0.0,0.0,0.0
2025/05/21 13:29:58.827726174,1747826998,827615390,mA1/imu,0.38752287393716334,0.9218596336409159,0.00038879431055740453,0.0008287809732557926,0.0,0.0,0.0,0.0,0.0,0.0,0.0,0.0,0.0,0.001991011054376292,-0.0025100578291901506,0.0034116220287997642,0.0,0.0,0.0,0.0,0.0,0.0,0.0,0.0,0.0,0.013646590445225626,0.07890675617628706,9.810330050336459,0.0,0.0,0.0,0.0,0.0,0.0,0.0,0.0,0.0
2025/05/21 13:29:58.877571129,1747826998,877375452,mA1/imu,0.38761083798026974,0.9218226307923337,0.0003610501781823267,0.0008632972274947911,0.0,0.0,0.0,0.0,0.0,0.0,0.0,0.0,0.0,0.0008228418214582087,-0.0009141789338216318,0.004236915933647533,0.0,0.0,0.0,0.0,0.0,0.0,0.0,0.0,0.0,-0.040290976012415526,-0.13375772741868877,9.813397277603265,0.0,0.0,0.0,0.0,0.0,0.0,0.0,0.0,0.0
2025/05/21 13:29:58.929062716,1747826998,928914476,mA1/imu,0.38770727730433835,0.9217820773345081,0.0003310759902533292,0.0008714463978491579,0.0,0.0,0.0,0.0,0.0,0.0,0.0,0.0,0.0,0.0012587590147373662,-0.0006650974854816174,0.004148893688825119,0.0,0.0,0.0,0.0,0.0,0.0,0.0,0.0,0.0,0.015544975990539944,-0.28668010588917364,9.810262844291534,0.0,0.0,0.0,0.0,0.0,0.0,0.0,0.0,0.0
2025/05/21 13:29:58.978647142,1747826998,978298581,mA1/imu,0.38780090919434246,0.9217426977081558,0.00030506598292925197,0.0008723442433693793,0.0,0.0,0.0,0.0,0.0,0.0,0.0,0.0,0.0,0.0014633062772208376,-0.0002766080872434957,0.003990894296409245,0.0,0.0,0.0,0.0,0.0,0.0,0.0,0.0,0.0,0.011921951632634141,0.07423113178631291,9.811305721692515,0.0,0.0,0.0,0.0,0.0,0.0,0.0,0.0,0.0
2025/05/21 13:29:59.30358802,1747826999,30098650,mA1/imu,0.38789153897055817,0.9217045653061938,0.0002978710101466294,0.0008715283319315835,0.0,0.0,0.0,0.0,0.0,0.0,0.0,0.0,0.0,0.0014074229851914338,3.7008642729847536e-05,0.003894735256029789,0.0,0.0,0.0,0.0,0.0,0.0,0.0,0.0,0.0,0.014243412185135747,0.07813303284770133,9.808913680557076,0.0,0.0,0.0,0.0,0.0,0.0,0.0,0.0,0.0
2025/05/21 13:29:59.79424273,1747826999,79270799,mA1/imu,0.3879806349961609,0.9216670705984819,0.00030017063638030354,0.000864719595002786,0.0,0.0,0.0,0.0,0.0,0.0,0.0,0.0,0.0,-0.00031199290861197773,0.0004618142328578843,0.003855479067925753,0.0,0.0,0.0,0.0,0.0,0.0,0.0,0.0,0.0,0.011214617772963755,-0.027235356351619396,9.808524291834235,0.0,0.0,0.0,0.0,0.0,0.0,0.0,0.0,0.0
2025/05/21 13:29:59.131130283,1747826999,131000313,mA1/imu,0.3880681741868449,0.921630224585766,0.00031015801051128894,0.0008515370148170172,0.0,0.0,0.0,0.0,0.0,0.0,0.0,0.0,0.0,-0.0002958046704748801,0.0007447211457479649,0.0037627292224027124,0.0,0.0,0.0,0.0,0.0,0.0,0.0,0.0,0.0,0.01538169912666093,-0.6466228206853638,9.80875558241475,0.0,0.0,0.0,0.0,0.0,0.0,0.0,0.0,0.0
2025/05/21 13:29:59.181669707,1747826999,180294220,mA1/imu,0.38816289437998674,0.9215903659770611,0.00032032823353683986,0.0008137288495722701,0.0,0.0,0.0,0.0,0.0,0.0,0.0,0.0,0.0,-0.000361867401245629,0.002301878502372363,0.004491079795913679,0.0,0.0,0.0,0.0,0.0,0.0,0.0,0.0,0.0,-0.035953140386517674,-0.01484333591648279,9.811290546559063,0.0,0.0,0.0,0.0,0.0,0.0,0.0,0.0,0.0
2025/05/21 13:29:59.231696025,1747826999,231344887,mA1/imu,0.3882649657660183,0.9215474080038362,0.00033999082100831925,0.0007586609029649763,0.0,0.0,0.0,0.0,0.0,0.0,0.0,0.0,0.0,6.16039795240243e-05,0.002340739642230641,0.00439178191551319,0.0,0.0,0.0,0.0,0.0,0.0,0.0,0.0,0.0,0.01742439996576696,0.03292037796654303,9.808551357960992,0.0,0.0,0.0,0.0,0.0,0.0,0.0,0.0,0.0
2025/05/21 13:29:59.281313732,1747826999,280989085,mA1/imu,0.3883647636005151,0.9215053771206023,0.0003779549133083249,0.0007123772987819611,0.0,0.0,0.0,0.0,0.0,0.0,0.0,0.0,0.0,-0.0009093007354953601,0.00224967991981118,0.004294103543971656,0.0,0.0,0.0,0.0,0.0,0.0,0.0,0.0,0.0,0.017563944697593183,0.41204913538159343,9.809804979021218,0.0,0.0,0.0,0.0,0.0,0.0,0.0,0.0,0.0
2025/05/21 13:29:59.332532554,1747826999,332283811,mA1/imu,0.3884623344612603,0.921464269414005,0.0004103331189886343,0.0006682252264423628,0.0,0.0,0.0,0.0,0.0,0.0,0.0,0.0,0.0,-0.0004999847898649546,0.0020370473078131063,0.004198469690410018,0.0,0.0,0.0,0.0,0.0,0.0,0.0,0.0,0.0,0.017817128903839394,0.014989504413460522,9.809127400878106,0.0,0.0,0.0,0.0,0.0,0.0,0.0,0.0,0.0
2025/05/21 13:29:59.382142271,1747826999,381931684,mA1/imu,0.38855722551478605,0.9214242700458695,0.00044568084133157326,0.0006312204656192251,0.0,0.0,0.0,0.0,0.0,0.0,0.0,0.0,0.0,0.0003620949366793444,0.001811915211427789,0.004057896394785881,0.0,0.0,0.0,0.0,0.0,0.0,0.0,0.0,0.0,0.013494117785105423,-0.5073916386517328,9.807428725988505,0.0,0.0,0.0,0.0,0.0,0.0,0.0,0.0,0.0
2025/05/21 13:29:59.433039014,1747826999,432904174,mA1/imu,0.38864929543258403,0.9213854425584866,0.0004792955681291709,0.0006013957232922705,0.0,0.0,0.0,0.0,0.0,0.0,0.0,0.0,0.0,0.0002009938491764141,0.0014646748469517568,0.003958796271365584,0.0,0.0,0.0,0.0,0.0,0.0,0.0,0.0,0.0,0.01601472277633872,-0.5499810637696195,9.807749880615056,0.0,0.0,0.0,0.0,0.0,0.0,0.0,0.0,0.0
2025/05/21 13:29:59.483031859,1747826999,482785969,mA1/imu,0.38873913459982307,0.92134753546653,0.0005143767537765459,0.0005826979379485203,0.0,0.0,0.0,0.0,0.0,0.0,0.0,0.0,0.0,-0.0015211725737550668,0.0010596880121131681,0.0038634062556870664,0.0,0.0,0.0,0.0,0.0,0.0,0.0,0.0,0.0,0.0160916628380783,-0.03825892065640622,9.810785860106465,0.0,0.0,0.0,0.0,0.0,0.0,0.0,0.0,0.0
2025/05/21 13:29:59.533971861,1747826999,533794770,mA1/imu,0.3888268017930392,0.921310536514782,0.0005365628132610073,0.0005706264880334848,0.0,0.0,0.0,0.0,0.0,0.0,0.0,0.0,0.0,-0.0007156299387044441,0.0006089105820109129,0.00377011810379175,0.0,0.0,0.0,0.0,0.0,0.0,0.0,0.0,0.0,0.015466642602053913,0.018051955933626407,9.809692814895413,0.0,0.0,0.0,0.0,0.0,0.0,0.0,0.0,0.0
2025/05/21 13:29:59.583953706,1747826999,583764392,mA1/imu,0.38892276058870684,0.9212700234196676,0.0005654239548399291,0.0005572612813968714,0.0,0.0,0.0,0.0,0.0,0.0,0.0,0.0,0.0,-0.0010147874642567002,0.001367720653941194,0.004552709827212253,0.0,0.0,0.0,0.0,0.0,0.0,0.0,0.0,0.0,-0.03261080776088036,0.6229028305217584,9.813146951876718,0.0,0.0,0.0,0.0,0.0,0.0,0.0,0.0,0.0
2025/05/21 13:29:59.635093744,1747826999,634945982,mA1/imu,0.389026257833835,0.9212263189846381,0.0005898212715380012,0.0005404041855730857,0.0,0.0,0.0,0.0,0.0,0.0,0.0,0.0,0.0,0.000716143894291649,0.0007522276334696632,0.004455993564342101,0.0,0.0,0.0,0.0,0.0,0.0,0.0,0.0,0.0,0.016382756692697432,0.11710839340560818,9.809928558001609,0.0,0.0,0.0,0.0,0.0,0.0,0.0,0.0,0.0
2025/05/21 13:29:59.685393932,1747826999,684992906,mA1/imu,0.38912637251453214,0.9211840010073918,0.0006334997273330282,0.0005487984972620958,0.0,0.0,0.0,0.0,0.0,0.0,0.0,0.0,0.0,-4.341039096633962e-05,4.970206595082771e-05,0.0042703036769830395,0.0,0.0,0.0,0.0,0.0,0.0,0.0,0.0,0.0,0.01857894934455141,-0.5782729292545971,9.810896430184556,0.0,0.0,0.0,0.0,0.0,0.0,0.0,0.0,0.0
2025/05/21 13:29:59.726704676,1747826999,726478491,mA1/imu,0.38922325907728733,0.9211430563472245,0.0006412645726112942,0.0005595679553718825,0.0,0.0,0.0,0.0,0.0,0.0,0.0,0.0,0.0,-0.0018644295879490943,-0.0005028540940279947,0.004165941859867084,0.0,0.0,0.0,0.0,0.0,0.0,0.0,0.0,0.0,0.01598787939305302,-0.08045021813803498,9.810860272235734,0.0,0.0,0.0,0.0,0.0,0.0,0.0,0.0,0.0
2025/05/21 13:29:59.776145940,1747826999,775787548,mA1/imu,0.3893183857514048,0.9211028414337324,0.000641835366943221,0.000581434421526347,0.0,0.0,0.0,0.0,0.0,0.0,0.0,0.0,0.0,-0.0006232816421747374,-0.0009844734222233256,0.004105363034654481,0.0,0.0,0.0,0.0,0.0,0.0,0.0,0.0,0.0,0.013823223287887147,-0.431015099052973,9.811029918338754,0.0,0.0,0.0,0.0,0.0,0.0,0.0,0.0,0.0
2025/05/21 13:29:59.826885641,1747826999,826764317,mA1/imu,0.38941160909331285,0.9210634242038359,0.0006285033335021368,0.0006101481961068971,0.0,0.0,0.0,0.0,0.0,0.0,0.0,0.0,0.0,0.0014984537707400708,-0.001444753988229569,0.004009381846554106,0.0,0.0,0.0,0.0,0.0,0.0,0.0,0.0,0.0,0.013617508656285228,-0.5052250033316176,9.809929577975161,0.0,0.0,0.0,0.0,0.0,0.0,0.0,0.0,0.0
2025/05/21 13:29:59.876984326,1747826999,876707648,mA1/imu,0.3895054396700255,0.9210237312190285,0.0006180963156035123,0.000645721134384376,0.0,0.0,0.0,0.0,0.0,0.0,0.0,0.0,0.0,8.66216867406973e-05,-0.0014124126587775603,0.0041605534904680845,0.0,0.0,0.0,0.0,0.0,0.0,0.0,0.0,0.0,-0.001697892348717236,-0.06960383932178914,9.811596456063976,0.0,0.0,0.0,0.0,0.0,0.0,0.0,0.0,0.0
2025/05/21 13:29:59.928114361,1747826999,927971892,mA1/imu,0.3896001139128221,0.9209836792084258,0.0005941482694791564,0.0006788657165850974,0.0,0.0,0.0,0.0,0.0,0.0,0.0,0.0,0.0,0.001377624481419777,-0.001708153346923131,0.004077377283713071,0.0,0.0,0.0,0.0,0.0,0.0,0.0,0.0,0.0,0.01370014760424168,-0.459234511785663,9.809940625047659,0.0,0.0,0.0,0.0,0.0,0.0,0.0,0.0,0.0
2025/05/21 13:29:59.977964781,1747826999,977658802,mA1/imu,0.38969289838333165,0.9209444073912268,0.0005714225728383304,0.0007189719491698779,0.0,0.0,0.0,0.0,0.0,0.0,0.0,0.0,0.0,-0.0005625607381829669,-0.001896177371305205,0.003996195596731238,0.0,0.0,0.0,0.0,0.0,0.0,0.0,0.0,0.0,0.013862000387948204,0.5628647891096252,9.811916640453658,0.0,0.0,0.0,0.0,0.0,0.0,0.0,0.0,0.0
2025/05/21 13:30:00.29305360,1747827000,28982938,mA1/imu,0.38978386205792404,0.9209058986217669,0.000539760224534369,0.000758565583926421,0.0,0.0,0.0,0.0,0.0,0.0,0.0,0.0,0.0,-0.0009138356810083063,-0.0019650914017658393,0.0039181997915785985,0.0,0.0,0.0,0.0,0.0,0.0,0.0,0.0,0.0,0.013213189318805654,0.525828991603171,9.811281614070898,0.0,0.0,0.0,0.0,0.0,0.0,0.0,0.0,0.0
2025/05/21 13:30:00.78719509,1747827000,78494129,mA1/imu,0.38987390853169307,0.9208677683099432,0.0005056165962790761,0.0007956669800547316,0.0,0.0,0.0,0.0,0.0,0.0,0.0,0.0,0.0,0.0006091866868311942,-0.0018144351568488318,0.003914143136372437,0.0,0.0,0.0,0.0,0.0,0.0,0.0,0.0,0.0,0.00797183294606379,-0.23754672054893575,9.81083410526134,0.0,0.0,0.0,0.0,0.0,0.0,0.0,0.0,0.0
2025/05/21 13:30:00.130254539,1747827000,129904893,mA1/imu,0.3899630342209099,0.9208300230037493,0.000467128537809045,0.000826115648890714,0.0,0.0,0.0,0.0,0.0,0.0,0.0,0.0,0.0,0.001238416294891795,-0.001648509399365093,0.003840263883076655,0.0,0.0,0.0,0.0,0.0,0.0,0.0,0.0,0.0,0.011539587982393662,0.02988659232979208,9.809391703244206,0.0,0.0,0.0,0.0,0.0,0.0,0.0,0.0,0.0
2025/05/21 13:30:00.181140507,1747827000,180281215,mA1/imu,0.3900490712214081,0.9207935768282786,0.00043176183364107426,0.0008511714404502695,0.0,0.0,0.0,0.0,0.0,0.0,0.0,0.0,0.0,0.0011892975080029728,-0.0013679866119244172,0.0036445743285176474,0.0,0.0,0.0,0.0,0.0,0.0,0.0,0.0,0.0,0.011215233414965477,-0.6102354400987376,9.809540768916097,0.0,0.0,0.0,0.0,0.0,0.0,0.0,0.0,0.0
2025/05/21 13:30:00.231239035,1747827000,231064783,mA1/imu,0.3901318759065245,0.9207584923250962,0.0004022445569077701,0.0008697196031095377,0.0,0.0,0.0,0.0,0.0,0.0,0.0,0.0,0.0,0.0002535940039200107,-0.0009970310875633637,0.0035639240017797088,0.0,0.0,0.0,0.0,0.0,0.0,0.0,0.0,0.0,0.010576848409104243,-0.04205150788578397,9.80948933638053,0.0,0.0,0.0,0.0,0.0,0.0,0.0,0.0,0.0
2025/05/21 13:30:00.281448064,1747827000,281079549,mA1/imu,0.3902128206728037,0.9207241938705322,0.00037603225550343855,0.0008786374541717748,0.0,0.0,0.0,0.0,0.0,0.0,0.0,0.0,0.0,9.48521437313136e-06,-0.000558786453775082,0.0034822189427577187,0.0,0.0,0.0,0.0,0.0,0.0,0.0,0.0,0.0,0.010189543326074671,-0.054654418719862034,9.807982096198574,0.0,0.0,0.0,0.0,0.0,0.0,0.0,0.0,0.0
2025/05/21 13:30:00.332504236,1747827000,332309967,mA1/imu,0.390291880327616,0.9206906937688011,0.0003540514961030166,0.0008770435539831043,0.0,0.0,0.0,0.0,0.0,0.0,0.0,0.0,0.0,-0.0011274697510525395,-9.34290124453382e-05,0.0034015353277326295,0.0,0.0,0.0,0.0,0.0,0.0,0.0,0.0,0.0,0.010919909277148782,0.49860202767575734,9.809395953042968,0.0,0.0,0.0,0.0,0.0,0.0,0.0,0.0,0.0
2025/05/21 13:30:00.383165926,1747827000,381926333,mA1/imu,0.3903779912784319,0.9206542169709614,0.00033938268194694737,0.000849422390613256,0.0,0.0,0.0,0.0,0.0,0.0,0.0,0.0,0.0,0.00021014429121113683,0.0016464139452204217,0.004112233276107669,0.0,0.0,0.0,0.0,0.0,0.0,0.0,0.0,0.0,-0.04287717151195979,-0.03016261074845507,9.812405077763232,0.0,0.0,0.0,0.0,0.0,0.0,0.0,0.0,0.0
2025/05/21 13:30:00.433134506,1747827000,432919059,mA1/imu,0.3904715448645568,0.9206145863065882,0.0003400809512297069,0.0008002971838461566,0.0,0.0,0.0,0.0,0.0,0.0,0.0,0.0,0.0,0.0014580362291506494,0.0019261347044941008,0.004033701504060232,0.0,0.0,0.0,0.0,0.0,0.0,0.0,0.0,0.0,0.012339389484379047,0.06934099467184525,9.809272659552052,0.0,0.0,0.0,0.0,0.0,0.0,0.0,0.0,0.0
2025/05/21 13:30:00.484797195,1747827000,483586345,mA1/imu,0.39056361039449555,0.9205755670726021,0.0003537512487013399,0.0007525985834490562,0.0,0.0,0.0,0.0,0.0,0.0,0.0,0.0,0.0,0.001356115507042726,0.0019700512644015475,0.003994470946247966,0.0,0.0,0.0,0.0,0.0,0.0,0.0,0.0,0.0,0.01680735069057389,0.07657303425115095,9.808812037608677,0.0,0.0,0.0,0.0,0.0,0.0,0.0,0.0,0.0
2025/05/21 13:30:00.535979567,1747827000,535600936,mA1/imu,0.39065577077262387,0.9205364904581711,0.00037229768651557524,0.000707030008506766,0.0,0.0,0.0,0.0,0.0,0.0,0.0,0.0,0.0,0.000441056617970853,0.0019229426994589467,0.004009444309717338,0.0,0.0,0.0,0.0,0.0,0.0,0.0,0.0,0.0,0.017283986146350495,0.0282238394245089,9.807272452247675,0.0,0.0,0.0,0.0,0.0,0.0,0.0,0.0,0.0
2025/05/21 13:30:00.575698273,1747827000,575393703,mA1/imu,0.39074665462734304,0.920497935240944,0.00039423046723954954,0.0006691016646619396,0.0,0.0,0.0,0.0,0.0,0.0,0.0,0.0,0.0,-0.000573091191883185,0.0015962542348116956,0.003909429249084348,0.0,0.0,0.0,0.0,0.0,0.0,0.0,0.0,0.0,0.020796059461275183,-0.2821686392887302,9.807361088534227,0.0,0.0,0.0,0.0,0.0,0.0,0.0,0.0,0.0
2025/05/21 13:30:00.626833827,1747827000,626673842,mA1/imu,0.39083511161674495,0.920460398249202,0.0004081844293438746,0.00063574202193856,0.0,0.0,0.0,0.0,0.0,0.0,0.0,0.0,0.0,-0.0005323060516910252,0.0013378091060805633,0.0038015378183108924,0.0,0.0,0.0,0.0,0.0,0.0,0.0,0.0,0.0,0.01761283522724841,-0.0204266062764429,9.808489679801294,0.0,0.0,0.0,0.0,0.0,0.0,0.0,0.0,0.0
2025/05/21 13:30:00.676629765,1747827000,676395718,mA1/imu,0.3909239447356142,0.9204226874908821,0.00042301517020213613,0.0006056753042038631,0.0,0.0,0.0,0.0,0.0,0.0,0.0,0.0,0.0,-0.0009643144563294883,0.0014339864867634446,0.003951703796981109,0.0,0.0,0.0,0.0,0.0,0.0,0.0,0.0,0.0,-4.112644233400086e-05,0.5913854691180903,9.811509146554199,0.0,0.0,0.0,0.0,0.0,0.0,0.0,0.0,0.0
2025/05/21 13:30:00.728240562,1747827000,727771010,mA1/imu,0.39101343859786164,0.9203846714042334,0.00045137156849793254,0.0005862966012328256,0.0,0.0,0.0,0.0,0.0,0.0,0.0,0.0,0.0,-0.0018923197703697749,0.0009676557974987325,0.003849710170135365,0.0,0.0,0.0,0.0,0.0,0.0,0.0,0.0,0.0,0.01950223904465695,0.4225179592558663,9.80999151359399,0.0,0.0,0.0,0.0,0.0,0.0,0.0,0.0,0.0
2025/05/21 13:30:00.777709289,1747827000,777301198,mA1/imu,0.39110050032656773,0.9203476719424055,0.00047595799688066845,0.0005786695841972485,0.0,0.0,0.0,0.0,0.0,0.0,0.0,0.0,0.0,-0.0019855521248326267,0.00045728792315688315,0.0037415490787017984,0.0,0.0,0.0,0.0,0.0,0.0,0.0,0.0,0.0,0.019336022011673292,-0.08561947080401255,9.810048021425171,0.0,0.0,0.0,0.0,0.0,0.0,0.0,0.0,0.0
2025/05/21 13:30:00.830416661,1747827000,829266193,mA1/imu,0.39118512387273274,0.9203117023948906,0.0004841565144948559,0.0005786952243339369,0.0,0.0,0.0,0.0,0.0,0.0,0.0,0.0,0.0,-0.00016272869532904028,-7.75716025991078e-05,0.0036365744998564866,0.0,0.0,0.0,0.0,0.0,0.0,0.0,0.0,0.0,0.01865036765653244,0.048398703003299674,9.810339287858286,0.0,0.0,0.0,0.0,0.0,0.0,0.0,0.0,0.0
2025/05/21 13:30:00.879366615,1747827000,879102807,mA1/imu,0.3912755738373609,0.9202732326230401,0.0005083653363762062,0.0005866860051680907,0.0,0.0,0.0,0.0,0.0,0.0,0.0,0.0,0.0,-0.0010046712615118941,0.0003544506207436299,0.004240770878483731,0.0,0.0,0.0,0.0,0.0,0.0,0.0,0.0,0.0,-0.01845981618434476,0.6299209334731803,9.812164242711548,0.0,0.0,0.0,0.0,0.0,0.0,0.0,0.0,0.0
2025/05/21 13:30:00.930644347,1747827000,930430709,mA1/imu,0.3913718067721439,0.9202322845465016,0.0005396590785677719,0.0006000919204779292,0.0,0.0,0.0,0.0,0.0,0.0,0.0,0.0,0.0,-0.0027182137941168605,-0.00024361346195834481,0.004146113705057942,0.0,0.0,0.0,0.0,0.0,0.0,0.0,0.0,0.0,0.021371313832104104,0.5085622906174802,9.81146438447507,0.0,0.0,0.0,0.0,0.0,0.0,0.0,0.0,0.0
2025/05/21 13:30:00.980276456,1747827000,979948593,mA1/imu,0.391465853690468,0.9201922542233022,0.0005579476858868808,0.0006239841428029944,0.0,0.0,0.0,0.0,0.0,0.0,0.0,0.0,0.0,-0.0008678956531317698,-0.0008239288101349712,0.0040502728741464485,0.0,0.0,0.0,0.0,0.0,0.0,0.0,0.0,0.0,0.02025812250524966,-0.6173559237108959,9.810109183456257,0.0,0.0,0.0,0.0,0.0,0.0,0.0,0.0,0.0
2025/05/21 13:30:01.32384940,1747827001,31794692,mA1/imu,0.39155774306619334,0.9201531310834395,0.000563567139718633,0.000656958393373325,0.0,0.0,0.0,0.0,0.0,0.0,0.0,0.0,0.0,-0.00022671676451911036,-0.0013204291787037837,0.003957409026519415,0.0,0.0,0.0,0.0,0.0,0.0,0.0,0.0,0.0,0.019457996416781725,-0.12121302202105576,9.811137025016572,0.0,0.0,0.0,0.0,0.0,0.0,0.0,0.0,0.0
2025/05/21 13:30:01.81989378,1747827001,81605873,mA1/imu,0.3916555838894996,0.9201114531251134,0.0005792278105913673,0.0006942127271178087,0.0,0.0,0.0,0.0,0.0,0.0,0.0,0.0,0.0,-0.0013606433987488988,-0.0008351920152770518,0.004569671625349438,0.0,0.0,0.0,0.0,0.0,0.0,0.0,0.0,0.0,-0.017938450346650696,0.5578474807218199,9.811244920875804,0.0,0.0,0.0,0.0,0.0,0.0,0.0,0.0,0.0
2025/05/21 13:30:01.133623802,1747827001,133259971,mA1/imu,0.39175958669907734,0.9200671399163182,0.0005928081572968844,0.0007299685353478564,0.0,0.0,0.0,0.0,0.0,0.0,0.0,0.0,0.0,-0.001669007258335742,-0.0012760377053360318,0.004489653394433747,0.0,0.0,0.0,0.0,0.0,0.0,0.0,0.0,0.0,0.021210103994196775,0.10073529888507865,9.811556319426545,0.0,0.0,0.0,0.0,0.0,0.0,0.0,0.0,0.0
2025/05/21 13:30:01.182790893,1747827001,182477045,mA1/imu,0.3918646171914963,0.9200223793912337,0.0005963104488909692,0.0007665680031004729,0.0,0.0,0.0,0.0,0.0,0.0,0.0,0.0,0.0,8.911730749050912e-06,-0.0012441855305397492,0.004662379601323304,0.0,0.0,0.0,0.0,0.0,0.0,0.0,0.0,0.0,0.005703321671718404,-0.45289092177655976,9.810400721496043,0.0,0.0,0.0,0.0,0.0,0.0,0.0,0.0,0.0
2025/05/21 13:30:01.234461446,1747827001,234195170,mA1/imu,0.39197089357538595,0.9199770725449262,0.0005968511710880356,0.0008052018755691971,0.0,0.0,0.0,0.0,0.0,0.0,0.0,0.0,0.0,2.0585404340278453e-05,-0.0015250117314641154,0.004592905737191371,0.0,0.0,0.0,0.0,0.0,0.0,0.0,0.0,0.0,0.020313462016691926,0.04232441334660407,9.81161446598759,0.0,0.0,0.0,0.0,0.0,0.0,0.0,0.0,0.0
2025/05/21 13:30:01.283681536,1747827001,283386489,mA1/imu,0.3920764387332063,0.9199320545647512,0.0005994165459879376,0.0008496319004220312,0.0,0.0,0.0,0.0,0.0,0.0,0.0,0.0,0.0,-0.0014097077346818597,-0.001607753133811067,0.004595679914281374,0.0,0.0,0.0,0.0,0.0,0.0,0.0,0.0,0.0,0.016515637187465612,0.5603426569049613,9.812511257211268,0.0,0.0,0.0,0.0,0.0,0.0,0.0,0.0,0.0
2025/05/21 13:30:01.334751846,1747827001,334512511,mA1/imu,0.3921812586390193,0.9198873334019362,0.000596441019510613,0.0008935754583980708,0.0,0.0,0.0,0.0,0.0,0.0,0.0,0.0,0.0,-0.0010763196419993411,-0.0016721139019630338,0.004541061453286489,0.0,0.0,0.0,0.0,0.0,0.0,0.0,0.0,0.0,0.016658909913768657,-0.055415156424300484,9.810685521931584,0.0,0.0,0.0,0.0,0.0,0.0,0.0,0.0,0.0
2025/05/21 13:30:01.384933000,1747827001,384346669,mA1/imu,0.39227657421285644,0.9198466545110701,0.0005750889372358673,0.0009438121273785097,0.0,0.0,0.0,0.0,0.0,0.0,0.0,0.0,0.0,0.0007906621172163394,-0.002741193088288663,0.003754872157612965,0.0,0.0,0.0,0.0,0.0,0.0,0.0,0.0,0.0,0.06358080117606399,-0.5732135639586642,9.807401259723553,0.0,0.0,0.0,0.0,0.0,0.0,0.0,0.0,0.0
2025/05/21 13:30:01.435884451,1747827001,435596086,mA1/imu,0.39234999211766536,0.9198152854738897,0.0005361127787893073,0.0010182715469845534,0.0,0.0,0.0,0.0,0.0,0.0,0.0,0.0,0.0,0.0009606939088985787,-0.003616992231126403,0.0029142382012710966,0.0,0.0,0.0,0.0,0.0,0.0,0.0,0.0,0.0,0.02685652614080158,0.04688949920080898,9.811270976847545,0.0,0.0,0.0,0.0,0.0,0.0,0.0,0.0,0.0
2025/05/21 13:30:01.477503908,1747827001,477121931,mA1/imu,0.3924007926075858,0.919793527149201,0.00048933141605651,0.0011162124060713017,0.0,0.0,0.0,0.0,0.0,0.0,0.0,0.0,0.0,-0.0004003120118708859,-0.004746469116588691,0.0017258223926311033,0.0,0.0,0.0,0.0,0.0,0.0,0.0,0.0,0.0,0.05031823143088226,0.5637025751962725,9.81273542345978,0.0,0.0,0.0,0.0,0.0,0.0,0.0,0.0,0.0
2025/05/21 13:30:01.527009140,1747827001,526794029,mA1/imu,0.3924364281208953,0.9197782277453453,0.0004348962832545338,0.0012134721124445681,0.0,0.0,0.0,0.0,0.0,0.0,0.0,0.0,0.0,2.0732499902870168e-05,-0.004096048442016785,0.0014692562100207618,0.0,0.0,0.0,0.0,0.0,0.0,0.0,0.0,0.0,0.005446146533368019,-0.06197858047434458,9.809209457199227,0.0,0.0,0.0,0.0,0.0,0.0,0.0,0.0,0.0
2025/05/21 13:30:01.576456643,1747827001,576225551,mA1/imu,0.3924712868114272,0.9197632917103541,0.0003783945302108325,0.001277915605984319,0.0,0.0,0.0,0.0,0.0,0.0,0.0,0.0,0.0,0.0018474548807376771,-0.002669374783975588,0.0015575573861955827,0.0,0.0,0.0,0.0,0.0,0.0,0.0,0.0,0.0,0.0004235843837541789,-0.5752374514297703,9.807439800453377,0.0,0.0,0.0,0.0,0.0,0.0,0.0,0.0,0.0
2025/05/21 13:30:01.629701286,1747827001,629278552,mA1/imu,0.3925073801389706,0.9197478671594082,0.00033212438021069127,0.0013065548428724462,0.0,0.0,0.0,0.0,0.0,0.0,0.0,0.0,0.0,0.0019150541660955267,-0.0011834675028116056,0.0015738751619492671,0.0,0.0,0.0,0.0,0.0,0.0,0.0,0.0,0.0,0.003687920683032201,0.046881160646835104,9.80914251111556,0.0,0.0,0.0,0.0,0.0,0.0,0.0,0.0,0.0
2025/05/21 13:30:01.679127902,1747827001,678847826,mA1/imu,0.3925425256381387,0.9197328852356906,0.0003032227439630721,0.0013013214940187975,0.0,0.0,0.0,0.0,0.0,0.0,0.0,0.0,0.0,0.0005992808129239725,0.00037114986284803085,0.00147424514595309,0.0,0.0,0.0,0.0,0.0,0.0,0.0,0.0,0.0,0.0028386079602729652,0.5226646244236753,9.809900858642214,0.0,0.0,0.0,0.0,0.0,0.0,0.0,0.0,0.0
2025/05/21 13:30:01.730568173,1747827001,730004817,mA1/imu,0.3925765896782235,0.9197184110989386,0.0002854657780500865,0.0012585831514510485,0.0,0.0,0.0,0.0,0.0,0.0,0.0,0.0,0.0,0.0007477428403337177,0.0018989926171278787,0.0014837491493371795,0.0,0.0,0.0,0.0,0.0,0.0,0.0,0.0,0.0,0.004135207366914709,-0.05072407981370186,9.808409275505007,0.0,0.0,0.0,0.0,0.0,0.0,0.0,0.0,0.0
2025/05/21 13:30:01.781799903,1747827001,780206587,mA1/imu,0.39261097486899804,0.9197038422118368,0.00027472213443322023,0.0011787963984228194,0.0,0.0,0.0,0.0,0.0,0.0,0.0,0.0,0.0,0.0023330058825549137,0.003314585474019851,0.0015009473890581953,0.0,0.0,0.0,0.0,0.0,0.0,0.0,0.0,0.0,0.0036287325720831647,-0.5724995336160996,9.807544212165393,0.0,0.0,0.0,0.0,0.0,0.0,0.0,0.0,0.0
2025/05/21 13:30:01.834404350,1747827001,833987804,mA1/imu,0.3926457224479292,0.919689139847061,0.00027867838556273395,0.0010700603133238463,0.0,0.0,0.0,0.0,0.0,0.0,0.0,0.0,0.0,0.002093361820852884,0.004518646057771522,0.001516990218505179,0.0,0.0,0.0,0.0,0.0,0.0,0.0,0.0,0.0,0.005132195758833669,0.043422285896701954,9.808877284932432,0.0,0.0,0.0,0.0,0.0,0.0,0.0,0.0,0.0
2025/05/21 13:30:01.877675298,1747827001,876650999,mA1/imu,0.39267934019583633,0.919674918017544,0.00030214646197874865,0.0009432180564581665,0.0,0.0,0.0,0.0,0.0,0.0,0.0,0.0,0.0,0.0003774461588433126,0.005228908192607783,0.0013181388910187444,0.0,0.0,0.0,0.0,0.0,0.0,0.0,0.0,0.0,0.025408277792374152,0.5498317176177991,9.811058357322684,0.0,0.0,0.0,0.0,0.0,0.0,0.0,0.0,0.0
2025/05/21 13:30:01.934951020,1747827001,933023254,mA1/imu,0.39270495324896376,0.9196640969890318,0.00033257611113663766,0.000811046366067383,0.0,0.0,0.0,0.0,0.0,0.0,0.0,0.0,0.0,0.0003997845324722328,0.00555139433659508,0.0010934648085690682,0.0,0.0,0.0,0.0,0.0,0.0,0.0,0.0,0.0,0.006195311251397795,-0.1031709237863847,9.8089684237062,0.0,0.0,0.0,0.0,0.0,0.0,0.0,0.0,0.0
2025/05/21 13:30:01.984373429,1747827001,984201262,mA1/imu,0.39272973658442323,0.9196536179442427,0.00036364112930625797,0.0006669104313626977,0.0,0.0,0.0,0.0,0.0,0.0,0.0,0.0,0.0,0.0016854062278745404,0.005888684344840352,0.0010408470337094633,0.0,0.0,0.0,0.0,0.0,0.0,0.0,0.0,0.0,0.007021145991064284,-0.5759164629468363,9.80798584468959,0.0,0.0,0.0,0.0,0.0,0.0,0.0,0.0,0.0
2025/05/21 13:30:02.35440325,1747827002,35275520,mA1/imu,0.3927524131612711,0.9196440083930998,0.00040686879382554827,0.0005236797256827262,0.0,0.0,0.0,0.0,0.0,0.0,0.0,0.0,0.0,0.0008261852131380622,0.0059250927811951475,0.0009814631174831063,0.0,0.0,0.0,0.0,0.0,0.0,0.0,0.0,0.0,0.007280685235057684,0.01648831610117077,9.81081627881528,0.0,0.0,0.0,0.0,0.0,0.0,0.0,0.0,0.0
2025/05/21 13:30:02.85282550,1747827002,85115868,mA1/imu,0.39277490968579853,0.9196344441530621,0.00045687571489558547,0.00038821795730930973,0.0,0.0,0.0,0.0,0.0,0.0,0.0,0.0,0.0,-0.00045379374883980014,0.0056290091229084585,0.000982361023378182,0.0,0.0,0.0,0.0,0.0,0.0,0.0,0.0,0.0,0.007151367024174991,0.2828979724023377,9.810983749556595,0.0,0.0,0.0,0.0,0.0,0.0,0.0,0.0,0.0
2025/05/21 13:30:02.126336903,1747827002,126143193,mA1/imu,0.39279747852475017,0.9196248212537375,0.0005077594468279067,0.0002667938795061061,0.0,0.0,0.0,0.0,0.0,0.0,0.0,0.0,0.0,-0.0002701180125536444,0.004987602429070547,0.0009854989123229542,0.0,0.0,0.0,0.0,0.0,0.0,0.0,0.0,0.0,0.009238530463928212,-0.020509107957635865,9.809630355229785,0.0,0.0,0.0,0.0,0.0,0.0,0.0,0.0,0.0
2025/05/21 13:30:02.176112286,1747827002,175954258,mA1/imu,0.39281972930656556,0.91961531164211,0.0005578527482276696,0.00016631660391178767,0.0,0.0,0.0,0.0,0.0,0.0,0.0,0.0,0.0,-0.0022620346686904836,0.004144489139555196,0.0009305303232615773,0.0,0.0,0.0,0.0,0.0,0.0,0.0,0.0,0.0,0.0068385508305249185,0.48914341667269445,9.810217414341025,0.0,0.0,0.0,0.0,0.0,0.0,0.0,0.0,0.0
2025/05/21 13:30:02.227255632,1747827002,226958243,mA1/imu,0.3928392932658973,0.9196069367986299,0.0006024300648131305,9.239160206356799e-05,0.0,0.0,0.0,0.0,0.0,0.0,0.0,0.0,0.0,-0.001921730097479112,0.00296674873209378,0.0008429270298889701,0.0,0.0,0.0,0.0,0.0,0.0,0.0,0.0,0.0,0.009516136222004885,0.5356941191958299,9.812046728130595,0.0,0.0,0.0,0.0,0.0,0.0,0.0,0.0,0.0
2025/05/21 13:30:02.277380154,1747827002,277026015,mA1/imu,0.392849680401737,0.9196024821906854,0.0006323952545877961,5.859373088273957e-05,0.0,0.0,0.0,0.0,0.0,0.0,0.0,0.0,0.0,-5.630905764659463e-05,0.0006906331714730278,6.055364060554265e-05,0.0,0.0,0.0,0.0,0.0,0.0,0.0,0.0,0.0,0.05056043413740842,-0.5863200163659087,9.81138967008906,0.0,0.0,0.0,0.0,0.0,0.0,0.0,0.0,0.0
2025/05/21 13:30:02.329073790,1747827002,328326694,mA1/imu,0.39285087135522534,0.9196019555757579,0.0006568022507304176,6.919165720820192e-05,0.0,0.0,0.0,0.0,0.0,0.0,0.0,0.0,0.0,-0.0015014746855735246,-0.00047095343407657056,4.608683502063962e-05,0.0,0.0,0.0,0.0,0.0,0.0,0.0,0.0,0.0,0.006183280146730855,0.44923966616608496,9.811612914710127,0.0,0.0,0.0,0.0,0.0,0.0,0.0,0.0,0.0
2025/05/21 13:30:02.378423941,1747827002,377997535,mA1/imu,0.39285963349317116,0.919598199250951,0.000671968231688269,9.362005687739159e-05,0.0,0.0,0.0,0.0,0.0,0.0,0.0,0.0,0.0,-0.0005744256288653249,-0.0005920560673921073,0.0007377171796824874,0.0,0.0,0.0,0.0,0.0,0.0,0.0,0.0,0.0,-0.03417121595258142,-0.4163667888424595,9.810631304331633,0.0,0.0,0.0,0.0,0.0,0.0,0.0,0.0,0.0
2025/05/21 13:30:02.429661603,1747827002,429442001,mA1/imu,0.3928777604565279,0.9195904441840042,0.0006799699650426897,0.00013395885864616943,0.0,0.0,0.0,0.0,0.0,0.0,0.0,0.0,0.0,-0.0015191317079822078,-0.001859947051191944,0.0008301363199108477,0.0,0.0,0.0,0.0,0.0,0.0,0.0,0.0,0.0,0.011339098687844065,0.5963781932089292,9.810200350402143,0.0,0.0,0.0,0.0,0.0,0.0,0.0,0.0,0.0
2025/05/21 13:30:02.479611233,1747827002,478957512,mA1/imu,0.39290011857407753,0.9195808788998863,0.000680680179465552,0.00020164494000147494,0.0,0.0,0.0,0.0,0.0,0.0,0.0,0.0,0.0,-4.2937756099930955e-05,-0.0028511825812809295,0.0010870829841139707,0.0,0.0,0.0,0.0,0.0,0.0,0.0,0.0,0.0,0.0030537255621874504,-0.44500293189302953,9.810427681550077,0.0,0.0,0.0,0.0,0.0,0.0,0.0,0.0,0.0
2025/05/21 13:30:02.530644269,1747827002,530295578,mA1/imu,0.3929266908519418,0.9195695082375865,0.0006706777443427921,0.00029210818048035626,0.0,0.0,0.0,0.0,0.0,0.0,0.0,0.0,0.0,-0.001228656209400224,-0.003899047412047982,0.0011776887624430604,0.0,0.0,0.0,0.0,0.0,0.0,0.0,0.0,0.0,0.012047227600374124,-0.15565041512266137,9.812177658896506,0.0,0.0,0.0,0.0,0.0,0.0,0.0,0.0,0.0
2025/05/21 13:30:02.580313442,1747827002,579873577,mA1/imu,0.3929536714262723,0.9195579534140131,0.0006479734178378698,0.0004031824580303773,0.0,0.0,0.0,0.0,0.0,0.0,0.0,0.0,0.0,-0.0019064699012534586,-0.004765948302724505,0.0011664535812631143,0.0,0.0,0.0,0.0,0.0,0.0,0.0,0.0,0.0,0.012017908856213573,0.19677296449930803,9.810064244720259,0.0,0.0,0.0,0.0,0.0,0.0,0.0,0.0,0.0
2025/05/21 13:30:02.632495868,1747827002,632029423,mA1/imu,0.3929804037857687,0.9195464892433897,0.0006142156002775196,0.0005282988994108836,0.0,0.0,0.0,0.0,0.0,0.0,0.0,0.0,0.0,-0.00102369661415877,-0.00532436566022023,0.0011555345704656228,0.0,0.0,0.0,0.0,0.0,0.0,0.0,0.0,0.0,0.00973783453045289,-0.015561171228667648,9.80907967247279,0.0,0.0,0.0,0.0,0.0,0.0,0.0,0.0,0.0
2025/05/21 13:30:02.681309295,1747827002,680742309,mA1/imu,0.39301019379589835,0.9195336982473636,0.0005779773701594269,0.0006567360171350162,0.0,0.0,0.0,0.0,0.0,0.0,0.0,0.0,0.0,-0.0005468701002553137,-0.005176261515725917,0.0014301915306976906,0.0,0.0,0.0,0.0,0.0,0.0,0.0,0.0,0.0,-0.005564662802280361,0.36414717992980655,9.808844368902779,0.0,0.0,0.0,0.0,0.0,0.0,0.0,0.0,0.0
2025/05/21 13:30:02.732837878,1747827002,732415733,mA1/imu,0.3930430592605847,0.9195195726405323,0.0005436484431519068,0.0007832907657726163,0.0,0.0,0.0,0.0,0.0,0.0,0.0,0.0,0.0,0.00036586787586729365,-0.005170646934451771,0.0014249140354950134,0.0,0.0,0.0,0.0,0.0,0.0,0.0,0.0,0.0,0.008568274315012442,-0.18023787062988905,9.808314158749413,0.0,0.0,0.0,0.0,0.0,0.0,0.0,0.0,0.0
2025/05/21 13:30:02.782294065,1747827002,781910744,mA1/imu,0.39307569387154095,0.9195055326350624,0.0005071407941261253,0.0009039630146655271,0.0,0.0,0.0,0.0,0.0,0.0,0.0,0.0,0.0,0.00015127702850112988,-0.0048832522397829065,0.0014115625877287748,0.0,0.0,0.0,0.0,0.0,0.0,0.0,0.0,0.0,0.009744588587551005,0.03386925201785997,9.810420806963942,0.0,0.0,0.0,0.0,0.0,0.0,0.0,0.0,0.0
2025/05/21 13:30:02.834218841,1747827002,834006971,mA1/imu,0.39310799453491474,0.9194916299808599,0.0004712987463019185,0.001012376101338679,0.0,0.0,0.0,0.0,0.0,0.0,0.0,0.0,0.0,0.0010863146169683743,-0.004309320967966577,0.0013968518225495454,0.0,0.0,0.0,0.0,0.0,0.0,0.0,0.0,0.0,0.007802732241506346,-0.5405704480622804,9.808328576702388,0.0,0.0,0.0,0.0,0.0,0.0,0.0,0.0,0.0
2025/05/21 13:30:02.883930623,1747827002,883736522,mA1/imu,0.39314327048521985,0.9194764617950618,0.0004458342635706699,0.0010983209134163279,0.0,0.0,0.0,0.0,0.0,0.0,0.0,0.0,0.0,-0.0007277371317702374,-0.0030088166192835967,0.0016712569722991384,0.0,0.0,0.0,0.0,0.0,0.0,0.0,0.0,0.0,-0.007558712865993942,-0.5921212079020813,9.808793950932275,0.0,0.0,0.0,0.0,0.0,0.0,0.0,0.0,0.0
2025/05/21 13:30:02.934962010,1747827002,934784213,mA1/imu,0.39318161577640254,0.9194600162945854,0.00041307049378288093,0.0011510098979537389,0.0,0.0,0.0,0.0,0.0,0.0,0.0,0.0,0.0,4.191026530025898e-05,-0.002065907598231357,0.001662602174945402,0.0,0.0,0.0,0.0,0.0,0.0,0.0,0.0,0.0,0.00930910101740242,-0.42739196439015714,9.808331146931355,0.0,0.0,0.0,0.0,0.0,0.0,0.0,0.0,0.0
2025/05/21 13:30:02.984910264,1747827002,984670392,mA1/imu,0.39321967337414515,0.9194437170638999,0.000386268808169139,0.0011791605732707979,0.0,0.0,0.0,0.0,0.0,0.0,0.0,0.0,0.0,0.0009166776637436387,-0.0010464480459852722,0.0016485671980074972,0.0,0.0,0.0,0.0,0.0,0.0,0.0,0.0,0.0,0.009477597082407512,0.029664724763316767,9.809630232790823,0.0,0.0,0.0,0.0,0.0,0.0,0.0,0.0,0.0
2025/05/21 13:30:03.36465275,1747827003,35985743,mA1/imu,0.3932573779347505,0.9194275910103877,0.00037190457209987436,0.0011837549194670277,0.0,0.0,0.0,0.0,0.0,0.0,0.0,0.0,0.0,-0.0001692891157691383,3.511201357992025e-05,0.0016328723779777251,0.0,0.0,0.0,0.0,0.0,0.0,0.0,0.0,0.0,0.00961375516389103,0.5748865606325658,9.80889307471588,0.0,0.0,0.0,0.0,0.0,0.0,0.0,0.0,0.0
2025/05/21 13:30:03.75748952,1747827003,75382020,mA1/imu,0.39330075839002093,0.9194090730655275,0.0003675964477781567,0.0011552867494021883,0.0,0.0,0.0,0.0,0.0,0.0,0.0,0.0,0.0,0.0005456197552783672,0.0015519435695641756,0.0020291743330257466,0.0,0.0,0.0,0.0,0.0,0.0,0.0,0.0,0.0,0.005674786113791963,-0.2962898297932124,9.80817381971243,0.0,0.0,0.0,0.0,0.0,0.0,0.0,0.0,0.0
2025/05/21 13:30:03.127950347,1747827003,127571566,mA1/imu,0.39334741808754703,0.9193891847576218,0.0003635030444101784,0.0010970415272724405,0.0,0.0,0.0,0.0,0.0,0.0,0.0,0.0,0.0,0.0017660650237690068,0.002406974300439621,0.0020296059200839217,0.0,0.0,0.0,0.0,0.0,0.0,0.0,0.0,0.0,0.012330129351571083,-0.42451046756606264,9.809066725182428,0.0,0.0,0.0,0.0,0.0,0.0,0.0,0.0,0.0
2025/05/21 13:30:03.178193033,1747827003,176909759,mA1/imu,0.3933969193517469,0.919368088441202,0.00037565737956414113,0.001020138254754772,0.0,0.0,0.0,0.0,0.0,0.0,0.0,0.0,0.0,0.0001397470329627028,0.0034678539606363902,0.00227919925804791,0.0,0.0,0.0,0.0,0.0,0.0,0.0,0.0,0.0,-0.0007430661546287132,0.5703775097295785,9.811296928611473,0.0,0.0,0.0,0.0,0.0,0.0,0.0,0.0,0.0
2025/05/21 13:30:03.228111055,1747827003,227856810,mA1/imu,0.3934493434225194,0.9193457519140694,0.00038734562300065376,0.0009233424667006637,0.0,0.0,0.0,0.0,0.0,0.0,0.0,0.0,0.0,0.001818675766180592,0.0038992466207652607,0.00228251533167202,0.0,0.0,0.0,0.0,0.0,0.0,0.0,0.0,0.0,0.0156734855927703,-0.48238677511916905,9.809525717881163,0.0,0.0,0.0,0.0,0.0,0.0,0.0,0.0,0.0
2025/05/21 13:30:03.278045891,1747827003,277767529,mA1/imu,0.3935018082648202,0.9193233850220884,0.0004066042797373002,0.0008217766153101719,0.0,0.0,0.0,0.0,0.0,0.0,0.0,0.0,0.0,0.0004577504982825344,0.004099948493686628,0.0022844431815055833,0.0,0.0,0.0,0.0,0.0,0.0,0.0,0.0,0.0,0.016884194691950356,0.5942328328861071,9.811597290487898,0.0,0.0,0.0,0.0,0.0,0.0,0.0,0.0,0.0
2025/05/21 13:30:03.329772906,1747827003,329506044,mA1/imu,0.3935542965267583,0.9193009903457602,0.000430468775093717,0.0007207851736233347,0.0,0.0,0.0,0.0,0.0,0.0,0.0,0.0,0.0,-0.00011653467235718872,0.004052941808710662,0.002285819148357533,0.0,0.0,0.0,0.0,0.0,0.0,0.0,0.0,0.0,0.017854070471504384,0.4920540687417041,9.811680581844296,0.0,0.0,0.0,0.0,0.0,0.0,0.0,0.0,0.0
2025/05/21 13:30:03.378982830,1747827003,378730304,mA1/imu,0.3936099644917286,0.9192772177886278,0.000456426587370113,0.0006199857984938557,0.0,0.0,0.0,0.0,0.0,0.0,0.0,0.0,0.0,-0.0010143280091246027,0.004215042298268298,0.002558856525047105,0.0,0.0,0.0,0.0,0.0,0.0,0.0,0.0,0.0,0.0013565912963544547,0.5123370654587445,9.81134953940313,0.0,0.0,0.0,0.0,0.0,0.0,0.0,0.0,0.0
2025/05/21 13:30:03.430268934,1747827003,430032667,mA1/imu,0.39366888698085123,0.9192520360913623,0.0004772065561352082,0.0005232963265372535,0.0,0.0,0.0,0.0,0.0,0.0,0.0,0.0,0.0,0.001090766313925843,0.0036438720962468155,0.0025696016086398927,0.0,0.0,0.0,0.0,0.0,0.0,0.0,0.0,0.0,0.020399989988525075,-0.59572209081503,9.809876368212734,0.0,0.0,0.0,0.0,0.0,0.0,0.0,0.0,0.0
2025/05/21 13:30:03.481727763,1747827003,481533130,mA1/imu,0.393728821776069,0.9192263984684067,0.0004959722231250657,0.00044415446012896855,0.0,0.0,0.0,0.0,0.0,0.0,0.0,0.0,0.0,0.0007848233174068231,0.0028635306911549796,0.002656702914383516,0.0,0.0,0.0,0.0,0.0,0.0,0.0,0.0,0.0,0.022509340645361003,0.023766481756267097,9.810944932970578,0.0,0.0,0.0,0.0,0.0,0.0,0.0,0.0,0.0
2025/05/21 13:30:03.537925372,1747827003,534842460,mA1/imu,0.3937898687079779,0.9192002654311134,0.0005108895101117035,0.00038771927049177066,0.0,0.0,0.0,0.0,0.0,0.0,0.0,0.0,0.0,0.0005276863443208748,0.0019172090758433102,0.0026582745390651107,0.0,0.0,0.0,0.0,0.0,0.0,0.0,0.0,0.0,0.02144996228707252,0.01919568963541364,9.811625754232345,0.0,0.0,0.0,0.0,0.0,0.0,0.0,0.0,0.0
2025/05/21 13:30:03.577560079,1747827003,577200485,mA1/imu,0.39385091749651946,0.9191741142865465,0.0005236974017414367,0.0003579856476674537,0.0,0.0,0.0,0.0,0.0,0.0,0.0,0.0,0.0,-0.0002682266872624914,0.0008752024300173175,0.002656710988426085,0.0,0.0,0.0,0.0,0.0,0.0,0.0,0.0,0.0,0.02145935959683633,0.06974686031448525,9.811224090216374,0.0,0.0,0.0,0.0,0.0,0.0,0.0,0.0,0.0
2025/05/21 13:30:03.628412027,1747827003,628207630,mA1/imu,0.39391192918285955,0.9191479652003476,0.0005327866712737038,0.00035532219381418506,0.0,0.0,0.0,0.0,0.0,0.0,0.0,0.0,0.0,-0.0012246518350945638,-0.00018421337189825025,0.002654341144577735,0.0,0.0,0.0,0.0,0.0,0.0,0.0,0.0,0.0,0.021859944328311683,-0.07721274067953089,9.81104505943841,0.0,0.0,0.0,0.0,0.0,0.0,0.0,0.0,0.0
2025/05/21 13:30:03.678744568,1747827003,678487000,mA1/imu,0.3939758289378901,0.9191205737699617,0.000529040502307942,0.00037040737808921614,0.0,0.0,0.0,0.0,0.0,0.0,0.0,0.0,0.0,-0.0006071905572832306,-0.0007960218709408825,0.002919582960447776,0.0,0.0,0.0,0.0,0.0,0.0,0.0,0.0,0.0,0.0030906406821301635,-0.019904250431804504,9.813053652729751,0.0,0.0,0.0,0.0,0.0,0.0,0.0,0.0,0.0
2025/05/21 13:30:03.729635506,1747827003,729464478,mA1/imu,0.39404297525461157,0.9190917789467031,0.0005207745707228002,0.00040536270760232584,0.0,0.0,0.0,0.0,0.0,0.0,0.0,0.0,0.0,-0.00012122916899153607,-0.001812299828714418,0.0029229132790676198,0.0,0.0,0.0,0.0,0.0,0.0,0.0,0.0,0.0,0.021145569190926135,0.024342416387293883,9.809752381579672,0.0,0.0,0.0,0.0,0.0,0.0,0.0,0.0,0.0
2025/05/21 13:30:03.780577225,1747827003,779312166,mA1/imu,0.3941101901391278,0.9190629359285357,0.0005109338844956422,0.0004655936924227068,0.0,0.0,0.0,0.0,0.0,0.0,0.0,0.0,0.0,0.0001948085388514944,-0.0027282405497428743,0.0029248230835240024,0.0,0.0,0.0,0.0,0.0,0.0,0.0,0.0,0.0,0.021399344160073185,0.0558954257059702,9.809659251557058,0.0,0.0,0.0,0.0,0.0,0.0,0.0,0.0,0.0
2025/05/21 13:30:03.830509979,1747827003,830355298,mA1/imu,0.3941774513351766,0.9190340545022241,0.0004963294071762049,0.0005451433089690603,0.0,0.0,0.0,0.0,0.0,0.0,0.0,0.0,0.0,-0.00036832944575560385,-0.003420012226572405,0.0029273065960314184,0.0,0.0,0.0,0.0,0.0,0.0,0.0,0.0,0.0,0.019132940203517967,0.02769826262054048,9.810622163310997,0.0,0.0,0.0,0.0,0.0,0.0,0.0,0.0,0.0
2025/05/21 13:30:03.883473856,1747827003,881540507,mA1/imu,0.39424788482427736,0.9190037893808352,0.0004844855494401943,0.0006369372036750458,0.0,0.0,0.0,0.0,0.0,0.0,0.0,0.0,0.0,0.0006133575489211779,-0.0035803400395039413,0.0031986836880697725,0.0,0.0,0.0,0.0,0.0,0.0,0.0,0.0,0.0,0.004486674074844243,-0.5257281625892295,9.808130228442723,0.0,0.0,0.0,0.0,0.0,0.0,0.0,0.0,0.0
2025/05/21 13:30:03.935091222,1747827003,934598080,mA1/imu,0.39432159756001534,0.9189720974798944,0.0004722825256305732,0.0007339620813550868,0.0,0.0,0.0,0.0,0.0,0.0,0.0,0.0,0.0,-0.0007751436108659502,-0.003865815112803855,0.0032130005792061905,0.0,0.0,0.0,0.0,0.0,0.0,0.0,0.0,0.0,0.018290369946635292,0.012605731282691346,9.808930273066224,0.0,0.0,0.0,0.0,0.0,0.0,0.0,0.0,0.0
2025/05/21 13:30:03.984717964,1747827003,984433928,mA1/imu,0.3943956275185973,0.9189402530219571,0.00045429693572624906,0.0008330572893311616,0.0,0.0,0.0,0.0,0.0,0.0,0.0,0.0,0.0,-0.0007431741127315126,-0.003936987427214598,0.0032266554752568553,0.0,0.0,0.0,0.0,0.0,0.0,0.0,0.0,0.0,0.018055542863260526,0.015727099277248996,9.809274487847121,0.0,0.0,0.0,0.0,0.0,0.0,0.0,0.0,0.0
2025/05/21 13:30:04.28638331,1747827004,28237489,mA1/imu,0.3944699619674057,0.918908259453735,0.00043881058655007265,0.0009312670989558888,0.0,0.0,0.0,0.0,0.0,0.0,0.0,0.0,0.0,-0.0006308446497775328,-0.0037716019222353205,0.0032405739041538803,0.0,0.0,0.0,0.0,0.0,0.0,0.0,0.0,0.0,0.016294495338437576,0.1734480714690549,9.80995384497595,0.0,0.0,0.0,0.0,0.0,0.0,0.0,0.0,0.0
2025/05/21 13:30:04.77911637,1747827004,77708932,mA1/imu,0.39454303276115255,0.9188767919296476,0.00043073990996358405,0.0010251906365904792,0.0,0.0,0.0,0.0,0.0,0.0,0.0,0.0,0.0,-0.0020478791213207202,-0.003415976736745732,0.0031206783656731038,0.0,0.0,0.0,0.0,0.0,0.0,0.0,0.0,0.0,0.01640040767762018,0.5009264855470192,9.811053698502018,0.0,0.0,0.0,0.0,0.0,0.0,0.0,0.0,0.0
2025/05/21 13:30:04.128922467,1747827004,128748868,mA1/imu,0.3946147656927899,0.9188459024197685,0.0004191855990694712,0.0011038963081707652,0.0,0.0,0.0,0.0,0.0,0.0,0.0,0.0,0.0,-0.0007415574695208409,-0.00282037310411406,0.0031231228464630467,0.0,0.0,0.0,0.0,0.0,0.0,0.0,0.0,0.0,0.014503820938978226,-0.3045665252213594,9.808564158252187,0.0,0.0,0.0,0.0,0.0,0.0,0.0,0.0,0.0
2025/05/21 13:30:04.178739416,1747827004,178520091,mA1/imu,0.39468974264790285,0.9188136329795032,0.000412170376478275,0.001159747868917919,0.0,0.0,0.0,0.0,0.0,0.0,0.0,0.0,0.0,-0.0002868823017131198,-0.0016655896602515454,0.0034100531714719323,0.0,0.0,0.0,0.0,0.0,0.0,0.0,0.0,0.0,-0.0009360046434990985,0.020716709800455063,9.808457429587277,0.0,0.0,0.0,0.0,0.0,0.0,0.0,0.0,0.0
