time,header_stamp_secs,header_stamp_nsecs,header_frame_id,orientation_x,orientation_y,orientation_z,orientation_w,orientation_covariance_0,orientation_covariance_1,orientation_covariance_2,orientation_covariance_3,orientation_covariance_4,orientation_covariance_5,orientation_covariance_6,orientation_covariance_7,orientation_covariance_8,angular_velocity_x,angular_velocity_y,angular_velocity_z,angular_velocity_covariance_0,angular_velocity_covariance_1,angular_velocity_covariance_2,angular_velocity_covariance_3,angular_velocity_covariance_4,angular_velocity_covariance_5,angular_velocity_covariance_6,angular_velocity_covariance_7,angular_velocity_covariance_8,linear_acceleration_x,linear_acceleration_y,linear_acceleration_z,linear_acceleration_covariance_0,linear_acceleration_covariance_1,linear_acceleration_covariance_2,linear_acceleration_covariance_3,linear_acceleration_covariance_4,linear_acceleration_covariance_5,linear_acceleration_covariance_6,linear_acceleration_covariance_7,linear_acceleration_covariance_8
2025/05/19 01:45:03.880626687,1747611903,877803545,mA1/imu,0.7004307017944456,0.7137198630460986,0.00028768252444114116,0.0008404260608625938,0.0,0.0,0.0,0.0,0.0,0.0,0.0,0.0,0.0,-0.00021173831861439872,-1.1406902309219474e-05,-7.006800595035381e-06,0.0,0.0,0.0,0.0,0.0,0.0,0.0,0.0,0.0,0.008333490716885555,0.6022400082119885,9.798174985600188,0.0,0.0,0.0,0.0,0.0,0.0,0.0,0.0,0.0
2025/05/19 01:45:03.932910474,1747611903,929758039,mA1/imu,0.700430569393496,0.7137199817226701,0.00029439721970485637,0.0008476315068041315,0.0,0.0,0.0,0.0,0.0,0.0,0.0,0.0,0.0,-0.0016703288343308336,-1.9873724106233285e-05,-6.96537896283299e-06,0.0,0.0,0.0,0.0,0.0,0.0,0.0,0.0,0.0,0.008380706347593676,0.5025027655425327,9.800843018977565,0.0,0.0,0.0,0.0,0.0,0.0,0.0,0.0,0.0
2025/05/19 01:45:03.974088283,1747611903,971083492,mA1/imu,0.7004304460053681,0.7137201012831912,0.0002946852753501633,0.0008488189566961885,0.0,0.0,0.0,0.0,0.0,0.0,0.0,0.0,0.0,7.015806695177163e-05,-2.9533637863365002e-05,-6.839875153989866e-06,0.0,0.0,0.0,0.0,0.0,0.0,0.0,0.0,0.0,0.007472542995764048,-0.6334363203270302,9.802438814124105,0.0,0.0,0.0,0.0,0.0,0.0,0.0,0.0,0.0
2025/05/19 01:45:04.41118974,1747611904,29793457,mA1/imu,0.7004303305020311,0.7137202214698981,0.0002895002350736058,0.0008448475535856362,0.0,0.0,0.0,0.0,0.0,0.0,0.0,0.0,0.0,0.0015417081321918897,-3.486651020385181e-05,-6.73021235511134e-06,0.0,0.0,0.0,0.0,0.0,0.0,0.0,0.0,0.0,0.007406648553058429,-0.5336870757317863,9.806427003034988,0.0,0.0,0.0,0.0,0.0,0.0,0.0,0.0,0.0
2025/05/19 01:45:04.86715553,1747611904,74914101,mA1/imu,0.7004302090851294,0.7137203379877844,0.0002902415603081944,0.0008468195801145289,0.0,0.0,0.0,0.0,0.0,0.0,0.0,0.0,0.0,-0.00018023654275061476,-3.571282791018693e-05,-6.704646809395131e-06,0.0,0.0,0.0,0.0,0.0,0.0,0.0,0.0,0.0,0.00830946389443027,0.6022310889384582,9.811518356894586,0.0,0.0,0.0,0.0,0.0,0.0,0.0,0.0,0.0
2025/05/19 01:45:04.130132857,1747611904,128693195,mA1/imu,0.7004300829510298,0.7137204512239068,0.00029592918497104874,0.0008537141640300148,0.0,0.0,0.0,0.0,0.0,0.0,0.0,0.0,0.0,-0.0016281428521768234,-3.668872716225125e-05,-6.664783596681067e-06,0.0,0.0,0.0,0.0,0.0,0.0,0.0,0.0,0.0,0.0083534205987828,0.502470920952045,9.815442150982802,0.0,0.0,0.0,0.0,0.0,0.0,0.0,0.0,0.0
2025/05/19 01:45:04.179316340,1747611904,173283215,mA1/imu,0.7004299660127403,0.7137205656244242,0.000295160829264277,0.0008542811179513014,0.0,0.0,0.0,0.0,0.0,0.0,0.0,0.0,0.0,0.00012102389903523379,-3.8073221556955026e-05,-6.541375640328248e-06,0.0,0.0,0.0,0.0,0.0,0.0,0.0,0.0,0.0,0.007450062299353057,-0.6334703793654909,9.817101421486859,0.0,0.0,0.0,0.0,0.0,0.0,0.0,0.0,0.0
2025/05/19 01:45:04.236077865,1747611904,230598673,mA1/imu,0.7004298567765219,0.7137206808106085,0.00028917320443433073,0.0008496458793986732,0.0,0.0,0.0,0.0,0.0,0.0,0.0,0.0,0.0,0.001589808033690246,-3.5155334252682476e-05,-6.432770075493925e-06,0.0,0.0,0.0,0.0,0.0,0.0,0.0,0.0,0.0,0.007391149764328218,-0.534367721760267,9.819981484285867,0.0,0.0,0.0,0.0,0.0,0.0,0.0,0.0,0.0
2025/05/19 01:45:04.273766854,1747611904,271594745,mA1/imu,0.7004297417716878,0.7137207926124269,0.0002890283622938569,0.0008505862340087542,0.0,0.0,0.0,0.0,0.0,0.0,0.0,0.0,0.0,-0.0001228052379481833,-2.7810640274302876e-05,-6.406185449329259e-06,0.0,0.0,0.0,0.0,0.0,0.0,0.0,0.0,0.0,0.008293921610487887,0.6019183359240933,9.823641389421455,0.0,0.0,0.0,0.0,0.0,0.0,0.0,0.0,0.0
2025/05/19 01:45:04.328166992,1747611904,326620740,mA1/imu,0.7004303620405677,0.7137201759285008,0.00029460171699848513,0.0008553444553611335,0.0,0.0,0.0,0.0,0.0,0.0,0.0,0.0,0.0,-0.0015520219211268066,0.00024613078679659614,0.00020079667711407975,0.0,0.0,0.0,0.0,0.0,0.0,0.0,0.0,0.0,-0.03865857854445001,0.5133799918152621,9.82433012968856,0.0,0.0,0.0,0.0,0.0,0.0,0.0,0.0,0.0
2025/05/19 01:45:04.377573936,1747611904,376693087,mA1/imu,0.7004448884118578,0.7137059387941881,0.00031168739052455437,0.0008331137840668156,0.0,0.0,0.0,0.0,0.0,0.0,0.0,0.0,0.0,0.0002833344884747998,0.0016651233955703804,0.0012187083473583242,0.0,0.0,0.0,0.0,0.0,0.0,0.0,0.0,0.0,-0.03753335959236524,-0.6234704840466815,9.823399912895528,0.0,0.0,0.0,0.0,0.0,0.0,0.0,0.0,0.0
2025/05/19 01:45:04.431743346,1747611904,430140944,mA1/imu,0.7004763931208502,0.7136750612498959,0.0003434010889971174,0.0007821163938736874,0.0,0.0,0.0,0.0,0.0,0.0,0.0,0.0,0.0,0.0018280730618073274,0.0025160091843073524,0.001984950786092438,0.0,0.0,0.0,0.0,0.0,0.0,0.0,0.0,0.0,0.022107497688939437,-0.532863375072914,9.822247009281522,0.0,0.0,0.0,0.0,0.0,0.0,0.0,0.0,0.0
2025/05/19 01:45:04.472965385,1747611904,472177862,mA1/imu,0.7005117772748409,0.7136403577518105,0.0003775398841911468,0.0007396963888375743,0.0,0.0,0.0,0.0,0.0,0.0,0.0,0.0,0.0,0.0001125683044998856,0.0019511759266105523,0.0020043231529291456,0.0,0.0,0.0,0.0,0.0,0.0,0.0,0.0,0.0,0.015474331046513681,0.6039392585524058,9.823137295212053,0.0,0.0,0.0,0.0,0.0,0.0,0.0,0.0,0.0
2025/05/19 01:45:04.525922926,1747611904,523852925,mA1/imu,0.7005480524539759,0.7136047597264611,0.00040656458357094026,0.0007126036209316958,0.0,0.0,0.0,0.0,0.0,0.0,0.0,0.0,0.0,-0.001347489200296745,0.001333815988787976,0.0020539279565799998,0.0,0.0,0.0,0.0,0.0,0.0,0.0,0.0,0.0,0.016161382861513324,0.5041519655560607,9.819695792247257,0.0,0.0,0.0,0.0,0.0,0.0,0.0,0.0,0.0
2025/05/19 01:45:04.577645298,1747611904,575718190,mA1/imu,0.7005852050867157,0.7135682994091403,0.00041808002698899614,0.0006911592022674333,0.0,0.0,0.0,0.0,0.0,0.0,0.0,0.0,0.0,0.0003757781701498374,0.0006607586305744238,0.0021018248983747886,0.0,0.0,0.0,0.0,0.0,0.0,0.0,0.0,0.0,0.0150146363837594,-0.6318199422959015,9.815961420030716,0.0,0.0,0.0,0.0,0.0,0.0,0.0,0.0,0.0
2025/05/19 01:45:04.627785840,1747611904,627077127,mA1/imu,0.7006232099061306,0.713531000699153,0.00041277304839377387,0.0006770528088705447,0.0,0.0,0.0,0.0,0.0,0.0,0.0,0.0,0.0,0.0018157362035694181,-2.1037671744267838e-05,0.002148782963112998,0.0,0.0,0.0,0.0,0.0,0.0,0.0,0.0,0.0,0.014449920305506504,-0.5321391731187398,9.811270960406006,0.0,0.0,0.0,0.0,0.0,0.0,0.0,0.0,0.0
2025/05/19 01:45:04.679833735,1747611904,678557068,mA1/imu,0.7006620427544411,0.7134928699664095,0.0004024652411807611,0.00068144845717462,0.0,0.0,0.0,0.0,0.0,0.0,0.0,0.0,0.0,4.919082013382217e-05,-0.0006730323509034137,0.0021952220825166634,0.0,0.0,0.0,0.0,0.0,0.0,0.0,0.0,0.0,0.014980617131595795,0.6037100265384285,9.810678976479924,0.0,0.0,0.0,0.0,0.0,0.0,0.0,0.0,0.0
2025/05/19 01:45:04.726986459,1747611904,723761232,mA1/imu,0.7007016998867651,0.7134539116786373,0.00038723941221943225,0.0007026605771026937,0.0,0.0,0.0,0.0,0.0,0.0,0.0,0.0,0.0,-0.00145535449402566,-0.0012609749926337786,0.0022414530992503085,0.0,0.0,0.0,0.0,0.0,0.0,0.0,0.0,0.0,0.013968109925206168,0.5038380623371864,9.806107707680368,0.0,0.0,0.0,0.0,0.0,0.0,0.0,0.0,0.0
2025/05/19 01:45:04.775531105,1747611904,774678694,mA1/imu,0.7007421923334595,0.7134141308252596,0.000357270948629323,0.0007281346067134875,0.0,0.0,0.0,0.0,0.0,0.0,0.0,0.0,0.0,0.00023057731760770737,-0.0017596298805535471,0.0022876463426136752,0.0,0.0,0.0,0.0,0.0,0.0,0.0,0.0,0.0,0.012556369645321329,-0.6320168448742487,9.802298897761604,0.0,0.0,0.0,0.0,0.0,0.0,0.0,0.0,0.0
2025/05/19 01:45:04.827346014,1747611904,826283530,mA1/imu,0.7007828416967145,0.7133741902760892,0.00031461286025585074,0.0007579249038857334,0.0,0.0,0.0,0.0,0.0,0.0,0.0,0.0,0.0,0.0016392460503857616,-0.002270482548602404,0.0022406981261267455,0.0,0.0,0.0,0.0,0.0,0.0,0.0,0.0,0.0,0.01872621671733847,-0.5326366619246443,9.79866583022777,0.0,0.0,0.0,0.0,0.0,0.0,0.0,0.0,0.0
2025/05/19 01:45:04.877343040,1747611904,876515579,mA1/imu,0.7008227451760647,0.7133349581621428,0.0002719084417365697,0.0008021056651645895,0.0,0.0,0.0,0.0,0.0,0.0,0.0,0.0,0.0,-0.00014926663452362419,-0.002531907410546018,0.002254025619049577,0.0,0.0,0.0,0.0,0.0,0.0,0.0,0.0,0.0,0.011599132183677929,0.603615623023301,9.799543344165691,0.0,0.0,0.0,0.0,0.0,0.0,0.0,0.0,0.0
2025/05/19 01:45:04.928667723,1747611904,927909244,mA1/imu,0.7008633986270816,0.7132949683783864,0.00023331288735971886,0.0008544682965282858,0.0,0.0,0.0,0.0,0.0,0.0,0.0,0.0,0.0,-0.0016654951964826079,-0.002585250581927035,0.0022958032903207014,0.0,0.0,0.0,0.0,0.0,0.0,0.0,0.0,0.0,0.010692037710744775,0.5042861456387767,9.79785088106708,0.0,0.0,0.0,0.0,0.0,0.0,0.0,0.0,0.0
2025/05/19 01:45:04.979701781,1747611904,978140568,mA1/imu,0.7009047834316479,0.713254258019451,0.00019007804889828927,0.0009010272429331893,0.0,0.0,0.0,0.0,0.0,0.0,0.0,0.0,0.0,1.7958840262604287e-05,-0.002493769974693242,0.0023361350455294977,0.0,0.0,0.0,0.0,0.0,0.0,0.0,0.0,0.0,0.009604795754452276,-0.6314989955762409,9.796153196874629,0.0,0.0,0.0,0.0,0.0,0.0,0.0,0.0,0.0
2025/05/19 01:45:05.22574387,1747611905,21430352,mA1/imu,0.7009468730998395,0.7132128548435239,0.00014571686501068,0.0009399702673013532,0.0,0.0,0.0,0.0,0.0,0.0,0.0,0.0,0.0,0.0014363692890363817,-0.0022491898780941555,0.0023753088497315234,0.0,0.0,0.0,0.0,0.0,0.0,0.0,0.0,0.0,0.008651986328135804,-0.5323508213699438,9.796427992188454,0.0,0.0,0.0,0.0,0.0,0.0,0.0,0.0,0.0
2025/05/19 01:45:05.72665128,1747611905,71154723,mA1/imu,0.700989636973054,0.7131707758194771,0.00011384493702041345,0.000980006510826546,0.0,0.0,0.0,0.0,0.0,0.0,0.0,0.0,0.0,-0.00033445911410069217,-0.0018804219721865185,0.002413935708744902,0.0,0.0,0.0,0.0,0.0,0.0,0.0,0.0,0.0,0.009477739829949126,0.6034406174484761,9.800146242511131,0.0,0.0,0.0,0.0,0.0,0.0,0.0,0.0,0.0
2025/05/19 01:45:05.125757725,1747611905,123778372,mA1/imu,0.7010327079125369,0.713128388126795,9.593524357288903e-05,0.0010174875546371115,0.0,0.0,0.0,0.0,0.0,0.0,0.0,0.0,0.0,-0.0018309678003347607,-0.001360743334037494,0.002401325366397013,0.0,0.0,0.0,0.0,0.0,0.0,0.0,0.0,0.0,0.00886354864771025,0.5027254316242352,9.802214606143574,0.0,0.0,0.0,0.0,0.0,0.0,0.0,0.0,0.0
2025/05/19 01:45:05.175229442,1747611905,173686385,mA1/imu,0.701075046852416,0.7130867345050371,8.195384883322886e-05,0.0010397294802433736,0.0,0.0,0.0,0.0,0.0,0.0,0.0,0.0,0.0,-0.00012515917103870852,-0.0007998048518608814,0.0023579806937220767,0.0,0.0,0.0,0.0,0.0,0.0,0.0,0.0,0.0,0.007935457979061842,-0.6332509549198971,9.802906896762586,0.0,0.0,0.0,0.0,0.0,0.0,0.0,0.0,0.0
2025/05/19 01:45:05.228640698,1747611905,227787635,mA1/imu,0.7011148875898671,0.7130475513260763,7.278590413006705e-05,0.0010481650379113216,0.0,0.0,0.0,0.0,0.0,0.0,0.0,0.0,0.0,0.0012671669475607132,-0.00035307472888239415,0.0020715106475064204,0.0,0.0,0.0,0.0,0.0,0.0,0.0,0.0,0.0,0.015909641903041952,-0.5447375766713406,9.806463236021806,0.0,0.0,0.0,0.0,0.0,0.0,0.0,0.0,0.0
2025/05/19 01:45:05.279705058,1747611905,278363507,mA1/imu,0.7011471242818725,0.7130158378932062,7.790732810326287e-05,0.0010578067675492164,0.0,0.0,0.0,0.0,0.0,0.0,0.0,0.0,0.0,-0.0005588251684013788,1.960375329343812e-05,0.0016367654619917637,0.0,0.0,0.0,0.0,0.0,0.0,0.0,0.0,0.0,0.016322236327691322,0.5923698835920166,9.811710123944886,0.0,0.0,0.0,0.0,0.0,0.0,0.0,0.0,0.0
2025/05/19 01:45:05.323721063,1747611905,320897633,mA1/imu,0.7011717482624074,0.7129916065710141,9.623223031499399e-05,0.0010673037437133773,0.0,0.0,0.0,0.0,0.0,0.0,0.0,0.0,0.0,-0.002092818883120744,0.00039330533556394316,0.001215533398462506,0.0,0.0,0.0,0.0,0.0,0.0,0.0,0.0,0.0,0.016642360454590176,0.49311071623499525,9.814828294474447,0.0,0.0,0.0,0.0,0.0,0.0,0.0,0.0,0.0
2025/05/19 01:45:05.373807740,1747611905,373009533,mA1/imu,0.7011896312945082,0.7129740209850067,0.00011632974940582183,0.001064346246439914,0.0,0.0,0.0,0.0,0.0,0.0,0.0,0.0,0.0,-0.00037965503841886494,0.0008728837089307444,0.0009223564739108016,0.0,0.0,0.0,0.0,0.0,0.0,0.0,0.0,0.0,0.005839389281313105,-0.634352837595512,9.815736806202823,0.0,0.0,0.0,0.0,0.0,0.0,0.0,0.0,0.0
2025/05/19 01:45:05.425748123,1747611905,424683310,mA1/imu,0.7012048099022617,0.7129591166548792,0.00014108794306959922,0.001045295565736347,0.0,0.0,0.0,0.0,0.0,0.0,0.0,0.0,0.0,0.0011273727388181748,0.0014660288825510536,0.0008052193479861319,0.0,0.0,0.0,0.0,0.0,0.0,0.0,0.0,0.0,0.006541383613347041,-0.534838167686615,9.818336583806746,0.0,0.0,0.0,0.0,0.0,0.0,0.0,0.0,0.0
2025/05/19 01:45:05.476923364,1747611905,475772372,mA1/imu,0.7012179018490271,0.7129462656293554,0.00018036301069650543,0.0010217244195612576,0.0,0.0,0.0,0.0,0.0,0.0,0.0,0.0,0.0,-0.0005377395502307398,0.0019625099987603148,0.0006896035044408142,0.0,0.0,0.0,0.0,0.0,0.0,0.0,0.0,0.0,0.007806740789932185,0.60088987324683,9.822011030634613,0.0,0.0,0.0,0.0,0.0,0.0,0.0,0.0,0.0
2025/05/19 01:45:05.527833766,1747611905,526751313,mA1/imu,0.7012289541846363,0.7129354189979188,0.00023068768589048762,0.0009944518966912104,0.0,0.0,0.0,0.0,0.0,0.0,0.0,0.0,0.0,-0.0019115129043129468,0.002323344029850239,0.0005769272297806941,0.0,0.0,0.0,0.0,0.0,0.0,0.0,0.0,0.0,0.008835903619452978,0.5010281829606581,9.822594416997305,0.0,0.0,0.0,0.0,0.0,0.0,0.0,0.0,0.0
2025/05/19 01:45:05.578043184,1747611905,577164809,mA1/imu,0.7012380466198351,0.7129265136014534,0.00027801132883921616,0.0009544037801025645,0.0,0.0,0.0,0.0,0.0,0.0,0.0,0.0,0.0,-7.555329859299332e-05,0.002546631127238049,0.00046787533025197586,0.0,0.0,0.0,0.0,0.0,0.0,0.0,0.0,0.0,0.00796765411635807,-0.6347842236592139,9.82144425946335,0.0,0.0,0.0,0.0,0.0,0.0,0.0,0.0,0.0
2025/05/19 01:45:05.624627810,1747611905,621163192,mA1/imu,0.7012452391477089,0.712919485556358,0.0003205201271572297,0.0009049605397994358,0.0,0.0,0.0,0.0,0.0,0.0,0.0,0.0,0.0,0.0014983784413250872,0.002616709805997978,0.00036243794475944864,0.0,0.0,0.0,0.0,0.0,0.0,0.0,0.0,0.0,0.008804652887036512,-0.5351367210372028,9.82034175112656,0.0,0.0,0.0,0.0,0.0,0.0,0.0,0.0,0.0
2025/05/19 01:45:05.675521135,1747611905,674466120,mA1/imu,0.7012505718399801,0.7129142735813784,0.0003668853100913493,0.0008598913917819685,0.0,0.0,0.0,0.0,0.0,0.0,0.0,0.0,0.0,-0.0001203412412426233,0.002545644507227064,0.00025987635319824325,0.0,0.0,0.0,0.0,0.0,0.0,0.0,0.0,0.0,0.009839067732009137,0.6008477851236476,9.821336236983035,0.0,0.0,0.0,0.0,0.0,0.0,0.0,0.0,0.0
2025/05/19 01:45:05.727931507,1747611905,726505275,mA1/imu,0.7012540975598799,0.7129108260038425,0.00041356060300691674,0.000820846894985283,0.0,0.0,0.0,0.0,0.0,0.0,0.0,0.0,0.0,-0.001469121279219193,0.0023249954346177804,0.00015963522287344402,0.0,0.0,0.0,0.0,0.0,0.0,0.0,0.0,0.0,0.010715466293996303,0.5009469856450511,9.818233519321973,0.0,0.0,0.0,0.0,0.0,0.0,0.0,0.0,0.0
2025/05/19 01:45:05.780146175,1747611905,777148410,mA1/imu,0.7012558771278105,0.7129091023158297,0.00044696443640448286,0.0007790068905863786,0.0,0.0,0.0,0.0,0.0,0.0,0.0,0.0,0.0,0.0003719521022095466,0.001984097394038459,6.180083408577736e-05,0.0,0.0,0.0,0.0,0.0,0.0,0.0,0.0,0.0,0.009683187743438453,-0.6349524624218568,9.815015709079816,0.0,0.0,0.0,0.0,0.0,0.0,0.0,0.0,0.0
2025/05/19 01:45:05.831121301,1747611905,828871829,mA1/imu,0.7012559508732055,0.7129090615958869,0.0004663165830391307,0.0007374335445771061,0.0,0.0,0.0,0.0,0.0,0.0,0.0,0.0,0.0,0.0019299413211061919,0.0015435123391202808,-3.350105299177925e-05,0.0,0.0,0.0,0.0,0.0,0.0,0.0,0.0,0.0,0.009591461903236058,-0.5350183853396173,9.81114272043392,0.0,0.0,0.0,0.0,0.0,0.0,0.0,0.0,0.0
2025/05/19 01:45:05.880904913,1747611905,878915700,mA1/imu,0.7012543397636349,0.7129106648293818,0.0004817141041173784,0.0007091450621210064,0.0,0.0,0.0,0.0,0.0,0.0,0.0,0.0,0.0,0.0002764176533626362,0.0010257745053200147,-0.0001269795748035284,0.0,0.0,0.0,0.0,0.0,0.0,0.0,0.0,0.0,0.01039398722719148,0.6009284212332717,9.81076973427413,0.0,0.0,0.0,0.0,0.0,0.0,0.0,0.0,0.0
2025/05/19 01:45:05.926912484,1747611905,921647086,mA1/imu,0.7012510893779959,0.7129138697097887,0.0004914142398007473,0.0006946464089666235,0.0,0.0,0.0,0.0,0.0,0.0,0.0,0.0,0.0,-0.001126173781952615,0.0004581163790116642,-0.00021821337014461822,0.0,0.0,0.0,0.0,0.0,0.0,0.0,0.0,0.0,0.010300828964503682,0.5009699798234994,9.806603531881876,0.0,0.0,0.0,0.0,0.0,0.0,0.0,0.0,0.0
2025/05/19 01:45:05.972847308,1747611905,972231811,mA1/imu,0.7012462578997795,0.7129186364981349,0.0004849399560482707,0.0006843598725398864,0.0,0.0,0.0,0.0,0.0,0.0,0.0,0.0,0.0,0.0005973604901510656,-0.00011908214876778806,-0.00030700672501572256,0.0,0.0,0.0,0.0,0.0,0.0,0.0,0.0,0.0,0.009141687450562513,-0.638428918664055,9.803409229355207,0.0,0.0,0.0,0.0,0.0,0.0,0.0,0.0,0.0
2025/05/19 01:45:06.28567881,1747611906,24446970,mA1/imu,0.7012398970324989,0.7129249139462391,0.0004626495897221499,0.0006781150012993319,0.0,0.0,0.0,0.0,0.0,0.0,0.0,0.0,0.0,0.0021038361145935065,-0.0006615663011138634,-0.00039183310126658226,0.0,0.0,0.0,0.0,0.0,0.0,0.0,0.0,0.0,0.008148992288584518,-0.536331860090547,9.8003235813051,0.0,0.0,0.0,0.0,0.0,0.0,0.0,0.0,0.0
2025/05/19 01:45:06.76581664,1747611906,75632129,mA1/imu,0.7012320441845289,0.712932645716452,0.00043729075383813374,0.0006867731236053264,0.0,0.0,0.0,0.0,0.0,0.0,0.0,0.0,0.0,0.00036690101057602355,-0.001145990812694836,-0.000474423990093998,0.0,0.0,0.0,0.0,0.0,0.0,0.0,0.0,0.0,0.008768996841902407,0.5997574865404433,9.801291337705017,0.0,0.0,0.0,0.0,0.0,0.0,0.0,0.0,0.0
2025/05/19 01:45:06.130971276,1747611906,126818966,mA1/imu,0.7012232731315364,0.7129412677056907,0.00040908666516054645,0.0007089915358154389,0.0,0.0,0.0,0.0,0.0,0.0,0.0,0.0,0.0,-0.0010985090336529328,-0.0016054433386919825,-0.00047994932085642733,0.0,0.0,0.0,0.0,0.0,0.0,0.0,0.0,0.0,0.01041788154785774,0.5040779739354257,9.799765895750193,0.0,0.0,0.0,0.0,0.0,0.0,0.0,0.0,0.0
2025/05/19 01:45:06.177858392,1747611906,176578674,mA1/imu,0.7012152231549418,0.7129491839672831,0.0003675309497213718,0.0007326780679972531,0.0,0.0,0.0,0.0,0.0,0.0,0.0,0.0,0.0,0.0006207725004776618,-0.001982391805701901,-0.0004355567016191773,0.0,0.0,0.0,0.0,0.0,0.0,0.0,0.0,0.0,0.009400355292113225,-0.631588340938201,9.798264797846702,0.0,0.0,0.0,0.0,0.0,0.0,0.0,0.0,0.0
2025/05/19 01:45:06.229670612,1747611906,228823668,mA1/imu,0.7012079377542114,0.7129563488356621,0.00031571560473049717,0.0007569736221117676,0.0,0.0,0.0,0.0,0.0,0.0,0.0,0.0,0.0,0.002063314001374965,-0.0022407176525516487,-0.0003940566381644941,0.0,0.0,0.0,0.0,0.0,0.0,0.0,0.0,0.0,0.008774057270474,-0.5308903066256705,9.798354290438194,0.0,0.0,0.0,0.0,0.0,0.0,0.0,0.0,0.0
2025/05/19 01:45:06.276987155,1747611906,274127653,mA1/imu,0.7012013630744194,0.7129627971694751,0.00026784485332016956,0.0007915390002517203,0.0,0.0,0.0,0.0,0.0,0.0,0.0,0.0,0.0,0.00025818515050137983,-0.0023679712315810156,-0.00035473614786214004,0.0,0.0,0.0,0.0,0.0,0.0,0.0,0.0,0.0,0.009329776143654057,0.6042215394870034,9.801607314647498,0.0,0.0,0.0,0.0,0.0,0.0,0.0,0.0,0.0
2025/05/19 01:45:06.327656775,1747611906,326836087,mA1/imu,0.7011953789279776,0.7129686494467421,0.00022587678286474462,0.0008333401571921167,0.0,0.0,0.0,0.0,0.0,0.0,0.0,0.0,0.0,-0.0012931769998738617,-0.0023477601683366688,-0.0003415242447095512,0.0,0.0,0.0,0.0,0.0,0.0,0.0,0.0,0.0,0.008000341075805896,0.5005998362307407,9.803352247688558,0.0,0.0,0.0,0.0,0.0,0.0,0.0,0.0,0.0
2025/05/19 01:45:06.378730159,1747611906,377475555,mA1/imu,0.7011883907163055,0.7129754921856793,0.00018155698502306337,0.0008690824628438454,0.0,0.0,0.0,0.0,0.0,0.0,0.0,0.0,0.0,0.0003205011328222338,-0.0021862348415000875,-0.0004270628977404743,0.0,0.0,0.0,0.0,0.0,0.0,0.0,0.0,0.0,0.006824193045297468,-0.6350472091522705,9.803953350805964,0.0,0.0,0.0,0.0,0.0,0.0,0.0,0.0,0.0
2025/05/19 01:45:06.431755545,1747611906,429568262,mA1/imu,0.7011805757725774,0.7129831534468509,0.00013962955514325228,0.0008964172067910687,0.0,0.0,0.0,0.0,0.0,0.0,0.0,0.0,0.0,0.0016589838275618632,-0.001745812372713396,-0.0004209536248439565,0.0,0.0,0.0,0.0,0.0,0.0,0.0,0.0,0.0,-6.782327550212963e-05,-0.5337886489632835,9.80682376448233,0.0,0.0,0.0,0.0,0.0,0.0,0.0,0.0,0.0
2025/05/19 01:45:06.482595109,1747611906,479396177,mA1/imu,0.7011732991607253,0.7129902808145896,0.00011546487362646687,0.0009223209092086243,0.0,0.0,0.0,0.0,0.0,0.0,0.0,0.0,0.0,-0.00019247878157437181,-0.0011909325367076857,-0.00040323544807078577,0.0,0.0,0.0,0.0,0.0,0.0,0.0,0.0,0.0,0.0020814166170017943,0.6024185366260669,9.811423705753128,0.0,0.0,0.0,0.0,0.0,0.0,0.0,0.0,0.0
2025/05/19 01:45:06.528281839,1747611906,523189652,mA1/imu,0.7011681039115747,0.712995364061954,0.0001101818314717962,0.0009427317608314612,0.0,0.0,0.0,0.0,0.0,0.0,0.0,0.0,0.0,-0.0017133392308538572,-0.0003238973186766135,-0.00013020086632602358,0.0,0.0,0.0,0.0,0.0,0.0,0.0,0.0,0.0,-0.011604935987937897,0.5131364566314,9.814223684816085,0.0,0.0,0.0,0.0,0.0,0.0,0.0,0.0,0.0
2025/05/19 01:45:06.576892763,1747611906,574332995,mA1/imu,0.7011704183504196,0.7129930915685537,0.00011705636195630199,0.0009392037167244874,0.0,0.0,0.0,0.0,0.0,0.0,0.0,0.0,0.0,4.575594447111878e-06,0.0006889023927706833,0.0002974668955636653,0.0,0.0,0.0,0.0,0.0,0.0,0.0,0.0,0.0,-0.010583149503492878,-0.6241791388034326,9.814764008050547,0.0,0.0,0.0,0.0,0.0,0.0,0.0,0.0,0.0
2025/05/19 01:45:06.631351421,1747611906,627679135,mA1/imu,0.701175642076309,0.7129879772672235,0.00013128715152907271,0.000919779839254263,0.0,0.0,0.0,0.0,0.0,0.0,0.0,0.0,0.0,0.0013833502719547378,0.001117588335262866,0.0002900987295093221,0.0,0.0,0.0,0.0,0.0,0.0,0.0,0.0,0.0,0.005694975818117119,-0.5338273891377348,9.816730922215942,0.0,0.0,0.0,0.0,0.0,0.0,0.0,0.0,0.0
2025/05/19 01:45:06.681042608,1747611906,679594590,mA1/imu,0.7011807252335897,0.7129829961108878,0.00016013697078772393,0.0009012068518136876,0.0,0.0,0.0,0.0,0.0,0.0,0.0,0.0,0.0,-0.0004476529811718859,0.0014744110358631182,0.0002830763592037845,0.0,0.0,0.0,0.0,0.0,0.0,0.0,0.0,0.0,0.006835802288646383,0.6018871116321075,9.820342613431192,0.0,0.0,0.0,0.0,0.0,0.0,0.0,0.0,0.0
2025/05/19 01:45:06.723864966,1747611906,721313598,mA1/imu,0.7011856790121128,0.7129781355445264,0.00020094756897816134,0.0008839705018138796,0.0,0.0,0.0,0.0,0.0,0.0,0.0,0.0,0.0,-0.001989416795952912,0.001731885635103477,0.0002766098144375863,0.0,0.0,0.0,0.0,0.0,0.0,0.0,0.0,0.0,0.007498999928526916,0.5023535128635129,9.820785316888804,0.0,0.0,0.0,0.0,0.0,0.0,0.0,0.0,0.0
2025/05/19 01:45:06.773369068,1747611906,772137014,mA1/imu,0.701190524871665,0.7129733889637714,0.00024023304855282193,0.000858340140202527,0.0,0.0,0.0,0.0,0.0,0.0,0.0,0.0,0.0,-0.00031523977630382757,0.0018855261978358883,0.00027048561839582884,0.0,0.0,0.0,0.0,0.0,0.0,0.0,0.0,0.0,0.006661494923826249,-0.6334680500691634,9.819424564544114,0.0,0.0,0.0,0.0,0.0,0.0,0.0,0.0,0.0
2025/05/19 01:45:06.825728303,1747611906,824424022,mA1/imu,0.7011952633146427,0.7129687527594697,0.00027662656591957843,0.0008269047453715817,0.0,0.0,0.0,0.0,0.0,0.0,0.0,0.0,0.0,0.0011093545647871434,0.0019210206116383418,0.00026427064170377035,0.0,0.0,0.0,0.0,0.0,0.0,0.0,0.0,0.0,0.007518979353240073,-0.5339740722532583,9.81846429231423,0.0,0.0,0.0,0.0,0.0,0.0,0.0,0.0,0.0
2025/05/19 01:45:06.875835826,1747611906,874815807,mA1/imu,0.7011998812002121,0.7129642211920377,0.0003191101809735253,0.0008025419190742975,0.0,0.0,0.0,0.0,0.0,0.0,0.0,0.0,0.0,-0.0006415310246562298,0.0018473146929451638,0.0002579385120431658,0.0,0.0,0.0,0.0,0.0,0.0,0.0,0.0,0.0,0.008698381467325595,0.6019291221045839,9.820024046922706,0.0,0.0,0.0,0.0,0.0,0.0,0.0,0.0,0.0
2025/05/19 01:45:06.930426147,1747611906,928428437,mA1/imu,0.7012043802872938,0.7129597931756663,0.0003643093097445946,0.000785913195214124,0.0,0.0,0.0,0.0,0.0,0.0,0.0,0.0,0.0,-0.0020964645290082865,0.0016591664370507137,0.00025158027732319414,0.0,0.0,0.0,0.0,0.0,0.0,0.0,0.0,0.0,0.009405131339581072,0.5023587500015189,9.817341416207482,0.0,0.0,0.0,0.0,0.0,0.0,0.0,0.0,0.0
2025/05/19 01:45:06.979252314,1747611906,978237400,mA1/imu,0.7012087728243153,0.7129554750390681,0.000398661291567409,0.0007671995888424443,0.0,0.0,0.0,0.0,0.0,0.0,0.0,0.0,0.0,-0.00033245377544808614,0.0013776233606995845,0.00024514668766309293,0.0,0.0,0.0,0.0,0.0,0.0,0.0,0.0,0.0,0.008568002378717571,-0.6335748597312721,9.814039328512983,0.0,0.0,0.0,0.0,0.0,0.0,0.0,0.0,0.0
2025/05/19 01:45:07.30917820,1747611907,29803196,mA1/imu,0.70121305561448,0.7129512696841435,0.00042124453042092006,0.0007484949013463952,0.0,0.0,0.0,0.0,0.0,0.0,0.0,0.0,0.0,0.0011817034205170779,0.0010156763716250591,0.00023839676053773605,0.0,0.0,0.0,0.0,0.0,0.0,0.0,0.0,0.0,0.00894652042982444,-0.5337446936995174,9.81065301959344,0.0,0.0,0.0,0.0,0.0,0.0,0.0,0.0,0.0
2025/05/19 01:45:07.73633490,1747611907,71533605,mA1/imu,0.7012172141029442,0.712947174076394,0.0004420119641580125,0.000741786770531875,0.0,0.0,0.0,0.0,0.0,0.0,0.0,0.0,0.0,-0.0004837124673793821,0.0006067184925762587,0.00023135966438944647,0.0,0.0,0.0,0.0,0.0,0.0,0.0,0.0,0.0,0.00972797993093569,0.6021209752329915,9.8110870566897,0.0,0.0,0.0,0.0,0.0,0.0,0.0,0.0,0.0
2025/05/19 01:45:07.125774318,1747611907,124369855,mA1/imu,0.7012209769619331,0.7129434573480459,0.0004586853812240168,0.0007467937388463937,0.0,0.0,0.0,0.0,0.0,0.0,0.0,0.0,0.0,-0.0018571400679073431,0.00011984336453208396,0.00018634432918453596,0.0,0.0,0.0,0.0,0.0,0.0,0.0,0.0,0.0,0.012201150532339132,0.5032029908001227,9.807486652718211,0.0,0.0,0.0,0.0,0.0,0.0,0.0,0.0,0.0
2025/05/19 01:45:07.175627965,1747611907,174297417,mA1/imu,0.7012240167385742,0.7129404611880366,0.00045907264387377324,0.0007525970482999004,0.0,0.0,0.0,0.0,0.0,0.0,0.0,0.0,0.0,-2.6560599958400807e-05,-0.0003227509717116665,0.00016873199044538067,0.0,0.0,0.0,0.0,0.0,0.0,0.0,0.0,0.0,0.008149852728937292,-0.6336565764161824,9.8042206182782,0.0,0.0,0.0,0.0,0.0,0.0,0.0,0.0,0.0
2025/05/19 01:45:07.228662606,1747611907,226382777,mA1/imu,0.7012269860091678,0.7129375428688095,0.00044542056931956,0.000758723400918537,0.0,0.0,0.0,0.0,0.0,0.0,0.0,0.0,0.0,0.0015369464546660207,-0.0007100598407508563,0.00016423403145757537,0.0,0.0,0.0,0.0,0.0,0.0,0.0,0.0,0.0,0.007585425216490491,-0.5338847120400417,9.801571985699042,0.0,0.0,0.0,0.0,0.0,0.0,0.0,0.0,0.0
2025/05/19 01:45:07.279062099,1747611907,278308280,mA1/imu,0.7012298757613993,0.7129346920488181,0.0004298775948006977,0.0007755115491964046,0.0,0.0,0.0,0.0,0.0,0.0,0.0,0.0,0.0,-9.55139821708209e-05,-0.001043304200799158,0.0001599319749550323,0.0,0.0,0.0,0.0,0.0,0.0,0.0,0.0,0.0,0.008249757980167093,0.6019929080332219,9.802898074260876,0.0,0.0,0.0,0.0,0.0,0.0,0.0,0.0,0.0
2025/05/19 01:45:07.331466122,1747611907,329699833,mA1/imu,0.7012326851433862,0.712931910925859,0.0004126350647914162,0.0008008760845907495,0.0,0.0,0.0,0.0,0.0,0.0,0.0,0.0,0.0,-0.0014595116292409342,-0.0013039813931020328,0.00015518061656290177,0.0,0.0,0.0,0.0,0.0,0.0,0.0,0.0,0.0,0.007689498345542293,0.5023879793542703,9.80142627248803,0.0,0.0,0.0,0.0,0.0,0.0,0.0,0.0,0.0
2025/05/19 01:45:07.372905111,1747611907,370885961,mA1/imu,0.7012354214389376,0.7129292112429209,0.0003837628638566871,0.0008223150045987989,0.0,0.0,0.0,0.0,0.0,0.0,0.0,0.0,0.0,0.0003667329940996461,-0.0014881380507684033,0.00015072857415178,0.0,0.0,0.0,0.0,0.0,0.0,0.0,0.0,0.0,0.0066628358294064756,-0.6333747060654998,9.799829696361446,0.0,0.0,0.0,0.0,0.0,0.0,0.0,0.0,0.0
2025/05/19 01:45:07.423250114,1747611907,422066356,mA1/imu,0.7012377844227929,0.7129268868395696,0.00034664714550450797,0.0008387817406795102,0.0,0.0,0.0,0.0,0.0,0.0,0.0,0.0,0.0,0.0018937677995685888,-0.001535843730720691,6.053975141147305e-05,0.0,0.0,0.0,0.0,0.0,0.0,0.0,0.0,0.0,0.015379400300215658,-0.5452397210220494,9.799954508610922,0.0,0.0,0.0,0.0,0.0,0.0,0.0,0.0,0.0
2025/05/19 01:45:07.475310527,1747611907,473109343,mA1/imu,0.7012342269862232,0.7129303708417626,0.00031206404964829196,0.0008647834931948584,0.0,0.0,0.0,0.0,0.0,0.0,0.0,0.0,0.0,0.00013899163201405536,-0.0018097049801172383,-0.00037294760531759335,0.0,0.0,0.0,0.0,0.0,0.0,0.0,0.0,0.0,0.015643655786811303,0.5919747968642122,9.80318133270511,0.0,0.0,0.0,0.0,0.0,0.0,0.0,0.0,0.0
2025/05/19 01:45:07.526949491,1747611907,524722224,mA1/imu,0.7012230660856977,0.7129413187804007,0.00028030763833010593,0.0008994401947714685,0.0,0.0,0.0,0.0,0.0,0.0,0.0,0.0,0.0,-0.001360831882871698,-0.0019052966234920793,-0.0007949015239216891,0.0,0.0,0.0,0.0,0.0,0.0,0.0,0.0,0.0,0.013945710419070285,0.49254950696542144,9.804407476039065,0.0,0.0,0.0,0.0,0.0,0.0,0.0,0.0,0.0
2025/05/19 01:45:07.579474562,1747611907,575800270,mA1/imu,0.701205347224408,0.7129587228101842,0.00024337941862694068,0.0009280944061981423,0.0,0.0,0.0,0.0,0.0,0.0,0.0,0.0,0.0,0.0003606488596964497,-0.0017273804326930929,-0.00105971933637801,0.0,0.0,0.0,0.0,0.0,0.0,0.0,0.0,0.0,0.0007077157243422852,-0.6331716709988836,9.804823781125581,0.0,0.0,0.0,0.0,0.0,0.0,0.0,0.0,0.0
2025/05/19 01:45:07.628194872,1747611907,627239246,mA1/imu,0.7011857995774424,0.712977938022587,0.00020815380569482453,0.0009439470304043222,0.0,0.0,0.0,0.0,0.0,0.0,0.0,0.0,0.0,0.001847326095509551,-0.0012404770850239718,-0.0011231783051325029,0.0,0.0,0.0,0.0,0.0,0.0,0.0,0.0,0.0,0.0004982600765861284,-0.5339325567088251,9.807143239377336,0.0,0.0,0.0,0.0,0.0,0.0,0.0,0.0,0.0
2025/05/19 01:45:07.679040149,1747611907,678177849,mA1/imu,0.7011653208395545,0.7129980670674667,0.00018813568720835747,0.0009559367049273697,0.0,0.0,0.0,0.0,0.0,0.0,0.0,0.0,0.0,0.00013500312854565098,-0.0006412856549722006,-0.001147883062918538,0.0,0.0,0.0,0.0,0.0,0.0,0.0,0.0,0.0,-0.0031194882752753304,0.6033694117685234,9.811120089463365,0.0,0.0,0.0,0.0,0.0,0.0,0.0,0.0,0.0
2025/05/19 01:45:07.730789248,1747611907,729790035,mA1/imu,0.7011451954213824,0.7130178525866178,0.00018485219533983008,0.0009605518962086068,0.0,0.0,0.0,0.0,0.0,0.0,0.0,0.0,0.0,-0.0013084583813772748,5.504120993751051e-05,-0.0011163739538344645,0.0,0.0,0.0,0.0,0.0,0.0,0.0,0.0,0.0,-0.0020731359955184925,0.5033946578435416,9.813411436553672,0.0,0.0,0.0,0.0,0.0,0.0,0.0,0.0,0.0
2025/05/19 01:45:07.775341024,1747611907,772206835,mA1/imu,0.7011256472696474,0.7130370925390511,0.00018703668829792757,0.0009467953589976408,0.0,0.0,0.0,0.0,0.0,0.0,0.0,0.0,0.0,0.00043357593456299016,0.0007138285921096393,-0.0010840005900900815,0.0,0.0,0.0,0.0,0.0,0.0,0.0,0.0,0.0,-0.002368756284521007,-0.6326197692730829,9.813934718845205,0.0,0.0,0.0,0.0,0.0,0.0,0.0,0.0,0.0
2025/05/19 01:45:07.828484607,1747611907,826132653,mA1/imu,0.7011066833356164,0.7130557761485365,0.00019484844384531398,0.0009169064420249016,0.0,0.0,0.0,0.0,0.0,0.0,0.0,0.0,0.0,0.001890118312922519,0.0012978077657437685,-0.0010514013474697233,0.0,0.0,0.0,0.0,0.0,0.0,0.0,0.0,0.0,-0.0012883993311369121,-0.5331101437643737,9.815547938059362,0.0,0.0,0.0,0.0,0.0,0.0,0.0,0.0,0.0
2025/05/19 01:45:07.876400088,1747611907,875185569,mA1/imu,0.701088275334789,0.7130739100277554,0.00021832878509686035,0.0008839447726365761,0.0,0.0,0.0,0.0,0.0,0.0,0.0,0.0,0.0,0.0001369058276295986,0.0017848002556828135,-0.001019921388909329,0.0,0.0,0.0,0.0,0.0,0.0,0.0,0.0,0.0,4.7245721119146614e-05,0.6026786913464262,9.818635299902798,0.0,0.0,0.0,0.0,0.0,0.0,0.0,0.0,0.0
2025/05/19 01:45:07.932632508,1747611907,929280138,mA1/imu,0.7010703986911269,0.7130915158125622,0.0002546645894681545,0.0008492945034648456,0.0,0.0,0.0,0.0,0.0,0.0,0.0,0.0,0.0,-0.0013576364185012074,0.002140107657211047,-0.0009902867645849448,0.0,0.0,0.0,0.0,0.0,0.0,0.0,0.0,0.0,0.0008026970818788186,0.5030666658025926,9.819003699653083,0.0,0.0,0.0,0.0,0.0,0.0,0.0,0.0,0.0
2025/05/19 01:45:07.980764961,1747611907,979247149,mA1/imu,0.7010530380658021,0.7131086218565656,0.0002903010196027975,0.0008043493372754187,0.0,0.0,0.0,0.0,0.0,0.0,0.0,0.0,0.0,0.0003344301364951511,0.002358022461989079,-0.000962206093737625,0.0,0.0,0.0,0.0,0.0,0.0,0.0,0.0,0.0,0.0001603861749389819,-0.6328249553206077,9.818111567316457,0.0,0.0,0.0,0.0,0.0,0.0,0.0,0.0,0.0
2025/05/19 01:45:08.25888517,1747611908,23272361,mA1/imu,0.7010361645112464,0.7131252515469851,0.00032378457019828705,0.0007528724738555515,0.0,0.0,0.0,0.0,0.0,0.0,0.0,0.0,0.0,0.0017457089515817011,0.0024198688409495543,-0.0009353796907576019,0.0,0.0,0.0,0.0,0.0,0.0,0.0,0.0,0.0,0.0017172538075910099,-0.5334387433841161,9.817260934661396,0.0,0.0,0.0,0.0,0.0,0.0,0.0,0.0,0.0
2025/05/19 01:45:08.75546074,1747611908,74523804,mA1/imu,0.7010197434683691,0.7131414195314825,0.0003640009565895493,0.0007088860752681848,0.0,0.0,0.0,0.0,0.0,0.0,0.0,0.0,0.0,-4.606095156570619e-05,0.0023380847321070285,-0.000909776236486016,0.0,0.0,0.0,0.0,0.0,0.0,0.0,0.0,0.0,0.0030340989192366597,0.6024971013820047,9.818619640769638,0.0,0.0,0.0,0.0,0.0,0.0,0.0,0.0,0.0
2025/05/19 01:45:08.129109762,1747611908,126395036,mA1/imu,0.7010037586525334,0.7131571424495182,0.00040746396883881646,0.0006741671693921182,0.0,0.0,0.0,0.0,0.0,0.0,0.0,0.0,0.0,-0.001569905443215965,0.0021072718497238577,-0.000885406459397719,0.0,0.0,0.0,0.0,0.0,0.0,0.0,0.0,0.0,0.003795611050808084,0.503054877494453,9.816431935207236,0.0,0.0,0.0,0.0,0.0,0.0,0.0,0.0,0.0
2025/05/19 01:45:08.177848056,1747611908,176022612,mA1/imu,0.7009882088809004,0.7131724388286004,0.000440484872474965,0.0006399049073925627,0.0,0.0,0.0,0.0,0.0,0.0,0.0,0.0,0.0,0.00010253551657467104,0.0017535238519217674,-0.0008616579042019147,0.0,0.0,0.0,0.0,0.0,0.0,0.0,0.0,0.0,0.00316672897123486,-0.6328414990773432,9.813796070506507,0.0,0.0,0.0,0.0,0.0,0.0,0.0,0.0,0.0
2025/05/19 01:45:08.229078732,1747611908,227586958,mA1/imu,0.7009730847081337,0.713187317683519,0.00046204947795327464,0.0006090323729018717,0.0,0.0,0.0,0.0,0.0,0.0,0.0,0.0,0.0,0.001505576688455805,0.0012953358781392118,-0.0008382407967343637,0.0,0.0,0.0,0.0,0.0,0.0,0.0,0.0,0.0,0.00405105349001569,-0.5332804529414006,9.810771864896548,0.0,0.0,0.0,0.0,0.0,0.0,0.0,0.0,0.0
2025/05/19 01:45:08.284429748,1747611908,279206422,mA1/imu,0.7009583704319655,0.7132017789720014,0.00048205131228930276,0.0005941540776601507,0.0,0.0,0.0,0.0,0.0,0.0,0.0,0.0,0.0,-0.00028365451298306503,0.000771554040511756,-0.0008152533023837942,0.0,0.0,0.0,0.0,0.0,0.0,0.0,0.0,0.0,0.004991611864882801,0.6026235698722677,9.811184990600696,0.0,0.0,0.0,0.0,0.0,0.0,0.0,0.0,0.0
2025/05/19 01:45:08.332292408,1747611908,330215053,mA1/imu,0.7009436044372667,0.7132162789447877,0.0004986820358499524,0.0005951158463652788,0.0,0.0,0.0,0.0,0.0,0.0,0.0,0.0,0.0,-0.0018062193058314693,0.00021958589361332234,-0.0008572461370580728,0.0,0.0,0.0,0.0,0.0,0.0,0.0,0.0,0.0,0.0043976486475094416,0.5002864805205506,9.808083410419782,0.0,0.0,0.0,0.0,0.0,0.0,0.0,0.0,0.0
2025/05/19 01:45:08.371989361,1747611908,370235950,mA1/imu,0.7009281988504049,0.7132314131023285,0.0005002889849792482,0.0006009420226127017,0.0,0.0,0.0,0.0,0.0,0.0,0.0,0.0,0.0,-0.00011497700559516305,-0.00034662429181015766,-0.0008534785391549978,0.0,0.0,0.0,0.0,0.0,0.0,0.0,0.0,0.0,0.003774006055386279,-0.6326185446238592,9.805272155364957,0.0,0.0,0.0,0.0,0.0,0.0,0.0,0.0,0.0
2025/05/19 01:45:08.424697164,1747611908,422426552,mA1/imu,0.7009132680386979,0.7132460854646767,0.0004875887951603,0.0006119753216677316,0.0,0.0,0.0,0.0,0.0,0.0,0.0,0.0,0.0,0.0013227245914167528,-0.0008804589349377771,-0.000827523593222357,0.0,0.0,0.0,0.0,0.0,0.0,0.0,0.0,0.0,0.003497727598493083,-0.5331082151433126,9.802722454389116,0.0,0.0,0.0,0.0,0.0,0.0,0.0,0.0,0.0
2025/05/19 01:45:08.478239899,1747611908,474086503,mA1/imu,0.7008987932989627,0.7132602966326247,0.00047264847904082414,0.0006382812964064617,0.0,0.0,0.0,0.0,0.0,0.0,0.0,0.0,0.0,-0.0004238602517371711,-0.0013511510537994812,-0.0008021267664238106,0.0,0.0,0.0,0.0,0.0,0.0,0.0,0.0,0.0,0.00414232776010515,0.6027093656978237,9.803939511086073,0.0,0.0,0.0,0.0,0.0,0.0,0.0,0.0,0.0
2025/05/19 01:45:08.526118651,1747611908,525408628,mA1/imu,0.7008853948226507,0.7132734380478251,0.0004562177980928224,0.000676583367366855,0.0,0.0,0.0,0.0,0.0,0.0,0.0,0.0,0.0,-0.0018703466708834726,-0.0015169187652216295,-0.0005996292591833687,0.0,0.0,0.0,0.0,0.0,0.0,0.0,0.0,0.0,-0.035105792892355776,0.5140595923136947,9.802429361351459,0.0,0.0,0.0,0.0,0.0,0.0,0.0,0.0,0.0
2025/05/19 01:45:08.581962526,1747611908,575592133,mA1/imu,0.700879817658312,0.7132789035972117,0.00043521577525433905,0.0007053152769932109,0.0,0.0,0.0,0.0,0.0,0.0,0.0,0.0,0.0,-7.99818681186446e-05,-0.001519486101648188,-0.00024263913707830962,0.0,0.0,0.0,0.0,0.0,0.0,0.0,0.0,0.0,0.004939108329202529,-0.630473953681247,9.801077726415178,0.0,0.0,0.0,0.0,0.0,0.0,0.0,0.0,0.0
2025/05/19 01:45:08.629325385,1747611908,628394211,mA1/imu,0.7008755726192086,0.713283065126812,0.0004035410243862711,0.0007333918721554756,0.0,0.0,0.0,0.0,0.0,0.0,0.0,0.0,0.0,0.001404466139178948,-0.0017893827688846488,-0.00023683304992507,0.0,0.0,0.0,0.0,0.0,0.0,0.0,0.0,0.0,0.003930074590721998,-0.533773234747836,9.800985419862608,0.0,0.0,0.0,0.0,0.0,0.0,0.0,0.0,0.0
2025/05/19 01:45:08.681522039,1747611908,679387130,mA1/imu,0.7008714249987978,0.7132871172438967,0.00037395582102386216,0.0007708119679856768,0.0,0.0,0.0,0.0,0.0,0.0,0.0,0.0,0.0,-0.0003021180924196179,-0.0019542074693045656,-0.00023109229839215063,0.0,0.0,0.0,0.0,0.0,0.0,0.0,0.0,0.0,0.004801388909592133,0.6022723600524715,9.803954990664499,0.0,0.0,0.0,0.0,0.0,0.0,0.0,0.0,0.0
2025/05/19 01:45:08.723920166,1747611908,722476135,mA1/imu,0.7008669022292277,0.7132915260718332,0.00034751416801125307,0.0008145106656889244,0.0,0.0,0.0,0.0,0.0,0.0,0.0,0.0,0.0,-0.0017431271427889496,-0.0019915629552824873,-0.0002915446146151801,0.0,0.0,0.0,0.0,0.0,0.0,0.0,0.0,0.0,0.0037314057174831104,0.5001247868192059,9.804982319239834,0.0,0.0,0.0,0.0,0.0,0.0,0.0,0.0,0.0
2025/05/19 01:45:08.775521770,1747611908,773777538,mA1/imu,0.7008613997263182,0.7132969049006317,0.0003148508610110748,0.0008512941798732034,0.0,0.0,0.0,0.0,0.0,0.0,0.0,0.0,0.0,2.5461237306102204e-05,-0.0019330548146306095,-0.000306254052751006,0.0,0.0,0.0,0.0,0.0,0.0,0.0,0.0,0.0,0.0031945624924043263,-0.6327600990693515,9.80503934543965,0.0,0.0,0.0,0.0,0.0,0.0,0.0,0.0,0.0
2025/05/19 01:45:08.832465695,1747611908,827216020,mA1/imu,0.7008560393386839,0.7133021521810728,0.00027844489326983997,0.0008799345341250825,0.0,0.0,0.0,0.0,0.0,0.0,0.0,0.0,0.0,0.0015325046736428488,-0.001760758046190032,-0.00029862593096253054,0.0,0.0,0.0,0.0,0.0,0.0,0.0,0.0,0.0,0.0029137430828113896,-0.5334000981533842,9.80704692615948,0.0,0.0,0.0,0.0,0.0,0.0,0.0,0.0,0.0
2025/05/19 01:45:08.884166305,1747611908,880023582,mA1/imu,0.7008507996679438,0.7133072730721328,0.0002514711266892594,0.0009096974627899655,0.0,0.0,0.0,0.0,0.0,0.0,0.0,0.0,0.0,-0.00015464493434357748,-0.0014895650360997608,-0.000291489579152461,0.0,0.0,0.0,0.0,0.0,0.0,0.0,0.0,0.0,0.0037790246981901582,0.6024534385789669,9.81100870426903,0.0,0.0,0.0,0.0,0.0,0.0,0.0,0.0,0.0
2025/05/19 01:45:08.926936982,1747611908,922573842,mA1/imu,0.7008456747698145,0.7133122775630392,0.0002345229586505691,0.0009379942722490136,0.0,0.0,0.0,0.0,0.0,0.0,0.0,0.0,0.0,-0.0015695869172772025,-0.0011335610932892534,-0.00028475698342169667,0.0,0.0,0.0,0.0,0.0,0.0,0.0,0.0,0.0,0.0032995776004100825,0.5029937743510552,9.812925064147063,0.0,0.0,0.0,0.0,0.0,0.0,0.0,0.0,0.0
2025/05/19 01:45:08.975316618,1747611908,974292580,mA1/imu,0.7008406743785903,0.7133171768382568,0.00021741914545439451,0.0009524142884832802,0.0,0.0,0.0,0.0,0.0,0.0,0.0,0.0,0.0,0.0002104726590838945,-0.0007219101750872154,-0.0002782185329944074,0.0,0.0,0.0,0.0,0.0,0.0,0.0,0.0,0.0,0.0024267664880164973,-0.6329208434294783,9.813177514971775,0.0,0.0,0.0,0.0,0.0,0.0,0.0,0.0,0.0
2025/05/19 01:45:09.30024080,1747611909,28079674,mA1/imu,0.7008357972734283,0.7133219721773132,0.00020200012843020552,0.0009531343737818009,0.0,0.0,0.0,0.0,0.0,0.0,0.0,0.0,0.0,0.0017145563758290982,-0.00027204303063170927,-0.0002712538591281758,0.0,0.0,0.0,0.0,0.0,0.0,0.0,0.0,0.0,0.002448392719870747,-0.5336105869398722,9.814723314187217,0.0,0.0,0.0,0.0,0.0,0.0,0.0,0.0,0.0
2025/05/19 01:45:09.77970585,1747611909,77171565,mA1/imu,0.70083103836086,0.7133266510083937,0.00020009272867747315,0.0009511015130307978,0.0,0.0,0.0,0.0,0.0,0.0,0.0,0.0,0.0,1.6460748215889224e-05,0.00018928686530094742,-0.0002642017036903943,0.0,0.0,0.0,0.0,0.0,0.0,0.0,0.0,0.0,0.0033503595414089834,0.602275015429848,9.81795221160333,0.0,0.0,0.0,0.0,0.0,0.0,0.0,0.0,0.0
2025/05/19 01:45:09.131424355,1747611909,129280148,mA1/imu,0.7008263950520353,0.7133312171972352,0.00021072633194609263,0.0009456028196009725,0.0,0.0,0.0,0.0,0.0,0.0,0.0,0.0,0.0,-0.001417254969271759,0.0006300885256804936,-0.0002573237277108872,0.0,0.0,0.0,0.0,0.0,0.0,0.0,0.0,0.0,0.003583245750288985,0.5029328039652029,9.818348076341277,0.0,0.0,0.0,0.0,0.0,0.0,0.0,0.0,0.0
2025/05/19 01:45:09.179332974,1747611909,178513864,mA1/imu,0.7008218795248516,0.7133356756054783,0.00022206952291228268,0.0009261602761540342,0.0,0.0,0.0,0.0,0.0,0.0,0.0,0.0,0.0,0.00033749082221692917,0.0010272358764104514,-0.0002505721800932438,0.0,0.0,0.0,0.0,0.0,0.0,0.0,0.0,0.0,0.002754736712767136,-0.632960626320829,9.817316156494906,0.0,0.0,0.0,0.0,0.0,0.0,0.0,0.0,0.0
2025/05/19 01:45:09.233438803,1747611909,229997615,mA1/imu,0.7008174842083688,0.713340029789897,0.00023425720881723583,0.0008949026548589955,0.0,0.0,0.0,0.0,0.0,0.0,0.0,0.0,0.0,0.0018105061306474886,0.0013586744491107807,-0.00024419924849499125,0.0,0.0,0.0,0.0,0.0,0.0,0.0,0.0,0.0,0.003310183436132659,-0.5337485701177613,9.816543510461942,0.0,0.0,0.0,0.0,0.0,0.0,0.0,0.0,0.0
2025/05/19 01:45:09.279306152,1747611909,271924495,mA1/imu,0.7008131883677666,0.7133442795593896,0.00025748554246118833,0.0008645986907280525,0.0,0.0,0.0,0.0,0.0,0.0,0.0,0.0,0.0,7.755904254004536e-05,0.0016089388206628273,-0.00023820169987424732,0.0,0.0,0.0,0.0,0.0,0.0,0.0,0.0,0.0,0.004534875695983094,0.6021758421923329,9.818130074892398,0.0,0.0,0.0,0.0,0.0,0.0,0.0,0.0,0.0
2025/05/19 01:45:09.325839734,1747611909,323685595,mA1/imu,0.7008089882511123,0.7133484275463193,0.0002892555401319588,0.0008362026539289788,0.0,0.0,0.0,0.0,0.0,0.0,0.0,0.0,0.0,-0.0013935158986408082,0.001750585415024529,-0.00023249548677782575,0.0,0.0,0.0,0.0,0.0,0.0,0.0,0.0,0.0,0.00558843512285808,0.5028609683255623,9.8160554449564,0.0,0.0,0.0,0.0,0.0,0.0,0.0,0.0,0.0
2025/05/19 01:45:09.379687826,1747611909,378355018,mA1/imu,0.7008048924929423,0.7133524806223434,0.00031649820270398903,0.0008005478078784982,0.0,0.0,0.0,0.0,0.0,0.0,0.0,0.0,0.0,0.0003230596987588542,0.001786673572908289,-0.0002270129384308144,0.0,0.0,0.0,0.0,0.0,0.0,0.0,0.0,0.0,0.004955391975066351,-0.6330500338280961,9.813498367802975,0.0,0.0,0.0,0.0,0.0,0.0,0.0,0.0,0.0
2025/05/19 01:45:09.422287820,1747611909,421049919,mA1/imu,0.700800887127203,0.7133564490804862,0.00033846432382354027,0.0007606568913384648,0.0,0.0,0.0,0.0,0.0,0.0,0.0,0.0,0.0,0.001758674262240163,0.0017165205964648155,-0.00022267614891078002,0.0,0.0,0.0,0.0,0.0,0.0,0.0,0.0,0.0,0.005496640415491957,-0.5337775876563053,9.810781562956096,0.0,0.0,0.0,0.0,0.0,0.0,0.0,0.0,0.0
2025/05/19 01:45:09.473863545,1747611909,473228142,mA1/imu,0.7007969447623833,0.713360341348325,0.0003649017398081665,0.0007296915996115973,0.0,0.0,0.0,0.0,0.0,0.0,0.0,0.0,0.0,-9.18214331453471e-06,0.0015508900815584044,-0.00021883624296743868,0.0,0.0,0.0,0.0,0.0,0.0,0.0,0.0,0.0,0.006574517569484503,0.6021439644665675,9.811408974146083,0.0,0.0,0.0,0.0,0.0,0.0,0.0,0.0,0.0
2025/05/19 01:45:09.525890950,1747611909,524215649,mA1/imu,0.7007933693948228,0.7133638600663975,0.00039317818758793265,0.0007085014701725778,0.0,0.0,0.0,0.0,0.0,0.0,0.0,0.0,0.0,-0.0014947688548028466,0.001336031797448619,-0.0001292523460674464,0.0,0.0,0.0,0.0,0.0,0.0,0.0,0.0,0.0,-0.006397121492571982,0.5140810028039386,9.808433993255363,0.0,0.0,0.0,0.0,0.0,0.0,0.0,0.0,0.0
2025/05/19 01:45:09.579468755,1747611909,575816034,mA1/imu,0.7007939157327043,0.7133633364032301,0.0004123571020665678,0.0006840389576748954,0.0,0.0,0.0,0.0,0.0,0.0,0.0,0.0,0.0,0.00024218957306147828,0.0010764470757957756,8.764857585847528e-05,0.0,0.0,0.0,0.0,0.0,0.0,0.0,0.0,0.0,0.009593628948896885,-0.6308683918776146,9.805658863123666,0.0,0.0,0.0,0.0,0.0,0.0,0.0,0.0,0.0
2025/05/19 01:45:09.628842673,1747611909,626988807,mA1/imu,0.7007980466551592,0.7133592956069724,0.0004202858205144071,0.0006607081554397988,0.0,0.0,0.0,0.0,0.0,0.0,0.0,0.0,0.0,0.0017202631978265742,0.0008503453314839381,0.00039321565216643255,0.0,0.0,0.0,0.0,0.0,0.0,0.0,0.0,0.0,-0.006179902311103266,-0.5228508985331677,9.803310600932384,0.0,0.0,0.0,0.0,0.0,0.0,0.0,0.0,0.0
2025/05/19 01:45:09.678907001,1747611909,676903991,mA1/imu,0.7008073350600664,0.7133501765429618,0.00042872576405372716,0.0006488037854065613,0.0,0.0,0.0,0.0,0.0,0.0,0.0,0.0,0.0,-2.71513656525725e-05,0.0003107586630990436,0.0005613890578490617,0.0,0.0,0.0,0.0,0.0,0.0,0.0,0.0,0.0,0.012734222836969351,0.6040664799347885,9.804601742930629,0.0,0.0,0.0,0.0,0.0,0.0,0.0,0.0,0.0
2025/05/19 01:45:09.730454684,1747611909,728939400,mA1/imu,0.7008183942434988,0.7133393047752343,0.0004309318557371412,0.0006548667689583157,0.0,0.0,0.0,0.0,0.0,0.0,0.0,0.0,0.0,-0.0015266250754853185,-0.0003887237839578718,0.000659215301140347,0.0,0.0,0.0,0.0,0.0,0.0,0.0,0.0,0.0,0.013666713566875219,0.5047085561465238,9.803196908624047,0.0,0.0,0.0,0.0,0.0,0.0,0.0,0.0,0.0
2025/05/19 01:45:09.772164835,1747611909,770520296,mA1/imu,0.7008311826677389,0.7133267376896061,0.00041568306336347573,0.000667761359378934,0.0,0.0,0.0,0.0,0.0,0.0,0.0,0.0,0.0,0.00016484805891406722,-0.0010621012919451057,0.0007542321476095852,0.0,0.0,0.0,0.0,0.0,0.0,0.0,0.0,0.0,0.012461008244787533,-0.6311528800279352,9.80150074470977,0.0,0.0,0.0,0.0,0.0,0.0,0.0,0.0,0.0
2025/05/19 01:45:09.824640377,1747611909,823298712,mA1/imu,0.7008456428895281,0.7133125289526017,0.00038500928621155095,0.0006874953509130939,0.0,0.0,0.0,0.0,0.0,0.0,0.0,0.0,0.0,0.0015824957379035826,-0.001655406892010965,0.0008462825495291711,0.0,0.0,0.0,0.0,0.0,0.0,0.0,0.0,0.0,0.011207180332880595,-0.5317170729570272,9.801303964195405,0.0,0.0,0.0,0.0,0.0,0.0,0.0,0.0,0.0
2025/05/19 01:45:09.875401886,1747611909,872889233,mA1/imu,0.7008614615607909,0.7132969676507588,0.000352030815423882,0.0007236804608982824,0.0,0.0,0.0,0.0,0.0,0.0,0.0,0.0,0.0,-0.00020677366772125027,-0.002139927741925323,0.0008895536955969617,0.0,0.0,0.0,0.0,0.0,0.0,0.0,0.0,0.0,0.011600354642179355,0.6010827673254918,9.80446598661854,0.0,0.0,0.0,0.0,0.0,0.0,0.0,0.0,0.0
2025/05/19 01:45:09.926060878,1747611909,924495708,mA1/imu,0.7008770577149754,0.7132816068581791,0.00031847046615087246,0.0007732161245340379,0.0,0.0,0.0,0.0,0.0,0.0,0.0,0.0,0.0,-0.0017357939655130786,-0.002476246964977597,0.0008634067208768785,0.0,0.0,0.0,0.0,0.0,0.0,0.0,0.0,0.0,0.01107797313247174,0.5018702026548872,9.805395538577692,0.0,0.0,0.0,0.0,0.0,0.0,0.0,0.0,0.0
2025/05/19 01:45:09.975170569,1747611909,974531290,mA1/imu,0.7008921946497026,0.7132666959458897,0.0002755200123413821,0.000822205740595941,0.0,0.0,0.0,0.0,0.0,0.0,0.0,0.0,0.0,-6.292543790386348e-05,-0.0026655445365597573,0.0008377207646634202,0.0,0.0,0.0,0.0,0.0,0.0,0.0,0.0,0.0,0.009886779715870018,-0.6339808303153296,9.805069194372196,0.0,0.0,0.0,0.0,0.0,0.0,0.0,0.0,0.0
2025/05/19 01:45:10.28080082,1747611910,26699904,mA1/imu,0.7009068886608284,0.7132522187887816,0.0002268767940260863,0.0008685318631974084,0.0,0.0,0.0,0.0,0.0,0.0,0.0,0.0,0.0,0.001348294458609159,-0.002680153096468075,0.0008133212140218273,0.0,0.0,0.0,0.0,0.0,0.0,0.0,0.0,0.0,0.008437469873941965,-0.5344238126639473,9.806847253083577,0.0,0.0,0.0,0.0,0.0,0.0,0.0,0.0,0.0
2025/05/19 01:45:10.79272522,1747611910,78178625,mA1/imu,0.7009211456461489,0.7132381550399224,0.00018658756431094606,0.0009203077847118831,0.0,0.0,0.0,0.0,0.0,0.0,0.0,0.0,0.0,-0.0004251799691304992,-0.0025372784855853766,0.0007899908884177702,0.0,0.0,0.0,0.0,0.0,0.0,0.0,0.0,0.0,0.009125466582918549,0.6015145333175168,9.811047681646285,0.0,0.0,0.0,0.0,0.0,0.0,0.0,0.0,0.0
2025/05/19 01:45:10.123006620,1747611910,120535818,mA1/imu,0.7009350013108417,0.713224474925139,0.00015613524211155016,0.0009736153841765786,0.0,0.0,0.0,0.0,0.0,0.0,0.0,0.0,0.0,-0.001912819109283792,-0.002246333152298066,0.0007690811197921256,0.0,0.0,0.0,0.0,0.0,0.0,0.0,0.0,0.0,0.008761977502749634,0.5021222601949653,9.812827780012439,0.0,0.0,0.0,0.0,0.0,0.0,0.0,0.0,0.0
2025/05/19 01:45:10.174057697,1747611910,171885981,mA1/imu,0.7009485039401608,0.7132111535071647,0.00012623058221160517,0.001014594929087748,0.0,0.0,0.0,0.0,0.0,0.0,0.0,0.0,0.0,-0.00018992476117402442,-0.0018342278356764654,0.0007495379010477666,0.0,0.0,0.0,0.0,0.0,0.0,0.0,0.0,0.0,0.007703946010419481,-0.6337806013461479,9.81262888963919,0.0,0.0,0.0,0.0,0.0,0.0,0.0,0.0,0.0
2025/05/19 01:45:10.225378876,1747611910,223775716,mA1/imu,0.700961263973538,0.7131985781537646,0.00010005361205770157,0.001041401624327416,0.0,0.0,0.0,0.0,0.0,0.0,0.0,0.0,0.0,0.0012747600330442232,-0.0012334035868150055,0.0006874796666404899,0.0,0.0,0.0,0.0,0.0,0.0,0.0,0.0,0.0,0.0020933981009021788,-0.535304422649733,9.81400726228137,0.0,0.0,0.0,0.0,0.0,0.0,0.0,0.0,0.0
2025/05/19 01:45:10.274979248,1747611910,273593328,mA1/imu,0.7009728788179205,0.7131871338337051,9.24144599984744e-05,0.0010614873288634441,0.0,0.0,0.0,0.0,0.0,0.0,0.0,0.0,0.0,-0.00044854830811717506,-0.0004664177630182895,0.0006405865566901286,0.0,0.0,0.0,0.0,0.0,0.0,0.0,0.0,0.0,0.0003032193510230652,0.6000120034680021,9.81759904955307,0.0,0.0,0.0,0.0,0.0,0.0,0.0,0.0,0.0
2025/05/19 01:45:10.328346861,1747611910,327190214,mA1/imu,0.7009837353348322,0.7131764458880169,0.00010365339467167484,0.0010719526745324643,0.0,0.0,0.0,0.0,0.0,0.0,0.0,0.0,0.0,-0.0018757989361928725,0.0003245964332635127,0.0005789735565855476,0.0,0.0,0.0,0.0,0.0,0.0,0.0,0.0,0.0,0.002716428896335466,0.5026043981823278,9.818002029835368,0.0,0.0,0.0,0.0,0.0,0.0,0.0,0.0,0.0
2025/05/19 01:45:10.381486269,1747611910,377842602,mA1/imu,0.700993603313067,0.7131667591962945,0.000121680887940266,0.0010615485756144934,0.0,0.0,0.0,0.0,0.0,0.0,0.0,0.0,0.0,-9.369876211053762e-05,0.001120874673938653,0.0005439378982574588,0.0,0.0,0.0,0.0,0.0,0.0,0.0,0.0,0.0,-0.00012924187651825944,-0.6337516670276071,9.816602043315276,0.0,0.0,0.0,0.0,0.0,0.0,0.0,0.0,0.0
2025/05/19 01:45:10.423237946,1747611910,421678729,mA1/imu,0.7010038389825131,0.7131567427556235,0.0001510474088558235,0.0010272188902583478,0.0,0.0,0.0,0.0,0.0,0.0,0.0,0.0,0.0,0.0014244014607907537,0.0023680099418071547,0.0006483043781068778,0.0,0.0,0.0,0.0,0.0,0.0,0.0,0.0,0.0,-0.022452746457069062,-0.536136990722152,9.815976091859746,0.0,0.0,0.0,0.0,0.0,0.0,0.0,0.0,0.0
2025/05/19 01:45:10.473977768,1747611910,472759878,mA1/imu,0.7010176992895268,0.7131431787981181,0.00020964848765553325,0.0009735830963718469,0.0,0.0,0.0,0.0,0.0,0.0,0.0,0.0,0.0,-0.00025124807671581483,0.003678984628445926,0.0008644287132027262,0.0,0.0,0.0,0.0,0.0,0.0,0.0,0.0,0.0,-0.020332457621389737,0.6004795516627126,9.818003880623145,0.0,0.0,0.0,0.0,0.0,0.0,0.0,0.0,0.0
2025/05/19 01:45:10.526076571,1747611910,524946953,mA1/imu,0.7010350741282431,0.7131261618789446,0.0002920112143522929,0.0009037783273237952,0.0,0.0,0.0,0.0,0.0,0.0,0.0,0.0,0.0,-0.0016308070323335913,0.004619093249913015,0.0010027072915508564,0.0,0.0,0.0,0.0,0.0,0.0,0.0,0.0,0.0,-0.00317934560165049,0.5079358347648456,9.816005649792684,0.0,0.0,0.0,0.0,0.0,0.0,0.0,0.0,0.0
2025/05/19 01:45:10.581749703,1747611910,577251179,mA1/imu,0.7010516216500569,0.713109960658166,0.0003751133807455728,0.0008167508103954494,0.0,0.0,0.0,0.0,0.0,0.0,0.0,0.0,0.0,0.00023035189546430368,0.004882781959734618,0.0008958802498507224,0.0,0.0,0.0,0.0,0.0,0.0,0.0,0.0,0.0,0.0004422791129412452,-0.6278802494837259,9.813264484989968,0.0,0.0,0.0,0.0,0.0,0.0,0.0,0.0,0.0
2025/05/19 01:45:10.630380276,1747611910,628420189,mA1/imu,0.7010666486969639,0.7130952453878194,0.0004499296639708198,0.0007229477096460076,0.0,0.0,0.0,0.0,0.0,0.0,0.0,0.0,0.0,0.0018287653777901672,0.004669953773479237,0.0008197431723071752,0.0,0.0,0.0,0.0,0.0,0.0,0.0,0.0,0.0,0.002178382622755209,-0.5283028630908124,9.81069044355516,0.0,0.0,0.0,0.0,0.0,0.0,0.0,0.0,0.0
2025/05/19 01:45:10.676657011,1747611910,671027878,mA1/imu,0.7010809553987617,0.7130812103242432,0.0005228606665459428,0.0006388085749326343,0.0,0.0,0.0,0.0,0.0,0.0,0.0,0.0,0.0,0.00022029219812272534,0.004258200327442079,0.0007958475889130952,0.0,0.0,0.0,0.0,0.0,0.0,0.0,0.0,0.0,0.0036882025821608835,0.6080388123929475,9.811733324991339,0.0,0.0,0.0,0.0,0.0,0.0,0.0,0.0,0.0
2025/05/19 01:45:10.725667949,1747611910,723428558,mA1/imu,0.701096980152464,0.7130654631824229,0.0005894710284196985,0.0005675926697350952,0.0,0.0,0.0,0.0,0.0,0.0,0.0,0.0,0.0,-0.0011467970409280825,0.0036785140723483603,0.001008244466164747,0.0,0.0,0.0,0.0,0.0,0.0,0.0,0.0,0.0,0.004045696487035737,0.5073041332438685,9.80887366142192,0.0,0.0,0.0,0.0,0.0,0.0,0.0,0.0,0.0
2025/05/19 01:45:10.774925618,1747611910,773537499,mA1/imu,0.701115913348292,0.7130468583078731,0.0006338766940923428,0.0005021029762063162,0.0,0.0,0.0,0.0,0.0,0.0,0.0,0.0,0.0,0.0007612991390608463,0.002687212006075879,0.001086345004610496,0.0,0.0,0.0,0.0,0.0,0.0,0.0,0.0,0.0,0.008377451428419887,-0.6208683733777832,9.805854464870354,0.0,0.0,0.0,0.0,0.0,0.0,0.0,0.0,0.0
2025/05/19 01:45:10.828693873,1747611910,826213397,mA1/imu,0.7011357540003837,0.7130273679529856,0.0006518092157541058,0.0004496188355846292,0.0,0.0,0.0,0.0,0.0,0.0,0.0,0.0,0.0,0.0022511660573866464,0.0015202079906087792,0.0011330769487245425,0.0,0.0,0.0,0.0,0.0,0.0,0.0,0.0,0.0,0.00840694595508697,-0.5241726248131157,9.803632626092773,0.0,0.0,0.0,0.0,0.0,0.0,0.0,0.0,0.0
2025/05/19 01:45:10.880785647,1747611910,876082428,mA1/imu,0.701156431558905,0.7130070481831374,0.0006538992693386262,0.00042442961446082666,0.0,0.0,0.0,0.0,0.0,0.0,0.0,0.0,0.0,0.0005475448229718056,0.00027452003697425216,0.0011779648205254543,0.0,0.0,0.0,0.0,0.0,0.0,0.0,0.0,0.0,0.009278540622735153,0.6110523147048248,9.805033290710938,0.0,0.0,0.0,0.0,0.0,0.0,0.0,0.0,0.0
2025/05/19 01:45:10.930443155,1747611910,928889976,mA1/imu,0.7011778969443873,0.7129859514444872,0.0006388094573491432,0.0004263823669370824,0.0,0.0,0.0,0.0,0.0,0.0,0.0,0.0,0.0,-0.0009354122477709118,-0.0009737289209406941,0.0012198012967919827,0.0,0.0,0.0,0.0,0.0,0.0,0.0,0.0,0.0,0.008969754513363022,0.5090398466458325,9.803774697885823,0.0,0.0,0.0,0.0,0.0,0.0,0.0,0.0,0.0
2025/05/19 01:45:10.971630559,1747611910,969832182,mA1/imu,0.7012001055251669,0.7129641353306653,0.0005968664826315979,0.00044440307563693986,0.0,0.0,0.0,0.0,0.0,0.0,0.0,0.0,0.0,0.0007939337763876087,-0.002154856091008617,0.0012599967077561727,0.0,0.0,0.0,0.0,0.0,0.0,0.0,0.0,0.0,0.007660108033820452,-0.6257534083942715,9.80218274278107,0.0,0.0,0.0,0.0,0.0,0.0,0.0,0.0,0.0
2025/05/19 01:45:11.24280852,1747611911,21786482,mA1/imu,0.7012242742831634,0.7129403951142775,0.0005328247607982209,0.0004756764900851276,0.0,0.0,0.0,0.0,0.0,0.0,0.0,0.0,0.0,0.0021990157095277026,-0.0029736809143514017,0.0014514857629006235,0.0,0.0,0.0,0.0,0.0,0.0,0.0,0.0,0.0,0.0018939289189962164,-0.526919053075321,9.801873630441452,0.0,0.0,0.0,0.0,0.0,0.0,0.0,0.0,0.0
2025/05/19 01:45:11.73662701,1747611911,72202821,mA1/imu,0.7012508976919399,0.7129142210721058,0.0004621168658871751,0.000527567439459638,0.0,0.0,0.0,0.0,0.0,0.0,0.0,0.0,0.0,0.0006866331316981574,-0.0037699782396299238,0.0014994032822692096,0.0,0.0,0.0,0.0,0.0,0.0,0.0,0.0,0.0,0.005395674541464072,0.14249879142423788,9.80311014230103,0.0,0.0,0.0,0.0,0.0,0.0,0.0,0.0,0.0
2025/05/19 01:45:11.127693508,1747611911,125616479,mA1/imu,0.7012779206791755,0.7128876316978359,0.0003841139352080407,0.0005958159344392907,0.0,0.0,0.0,0.0,0.0,0.0,0.0,0.0,0.0,-0.0006938243128192591,-0.004335158842348928,0.0015208106769606725,0.0,0.0,0.0,0.0,0.0,0.0,0.0,0.0,0.0,0.004800406689578268,0.542232355481244,9.804935117531668,0.0,0.0,0.0,0.0,0.0,0.0,0.0,0.0,0.0
2025/05/19 01:45:11.178128510,1747611911,177364795,mA1/imu,0.7013052824959145,0.7128606934555759,0.00029502258021323323,0.0006674062019236118,0.0,0.0,0.0,0.0,0.0,0.0,0.0,0.0,0.0,0.0009434018584317484,-0.004650603550292992,0.0015426070270699109,0.0,0.0,0.0,0.0,0.0,0.0,0.0,0.0,0.0,0.004394575109627467,-0.5947530717442705,9.804922634050165,0.0,0.0,0.0,0.0,0.0,0.0,0.0,0.0,0.0
2025/05/19 01:45:11.230978890,1747611911,228576235,mA1/imu,0.7013330489561959,0.712833331061455,0.0002061945503785152,0.0007443476630023434,0.0,0.0,0.0,0.0,0.0,0.0,0.0,0.0,0.0,0.0005086062969574594,-0.004686335314853373,0.001567609590721478,0.0,0.0,0.0,0.0,0.0,0.0,0.0,0.0,0.0,0.0032171429316590807,0.01006351693510627,9.807899646686739,0.0,0.0,0.0,0.0,0.0,0.0,0.0,0.0,0.0
2025/05/19 01:45:11.280760809,1747611911,279033337,mA1/imu,0.701361310488007,0.7128054572756185,0.0001227033622904949,0.0008229049318182925,0.0,0.0,0.0,0.0,0.0,0.0,0.0,0.0,0.0,-0.0004671910894779739,-0.00448386667686882,0.001597483422136849,0.0,0.0,0.0,0.0,0.0,0.0,0.0,0.0,0.0,0.003843617549100168,0.2437739332564498,9.810636951608181,0.0,0.0,0.0,0.0,0.0,0.0,0.0,0.0,0.0
2025/05/19 01:45:11.331150796,1747611911,330072382,mA1/imu,0.7013900004540521,0.7127771486191853,4.687425153270463e-05,0.000895249782620336,0.0,0.0,0.0,0.0,0.0,0.0,0.0,0.0,0.0,0.00021935541052088163,-0.00395328269043558,0.001617418778732531,0.0,0.0,0.0,0.0,0.0,0.0,0.0,0.0,0.0,-4.860177133641716e-06,-0.5240441522391689,9.812713556212024,0.0,0.0,0.0,0.0,0.0,0.0,0.0,0.0,0.0
2025/05/19 01:45:11.374479183,1747611911,372924552,mA1/imu,0.7014191074861796,0.7127484202074721,-1.0711377979080489e-05,0.0009617849605134072,0.0,0.0,0.0,0.0,0.0,0.0,0.0,0.0,0.0,0.0003075541352309854,-0.0032171784897230275,0.0016467956702236669,0.0,0.0,0.0,0.0,0.0,0.0,0.0,0.0,0.0,-0.0003858956946313462,-0.6086066252539438,9.814152450594928,0.0,0.0,0.0,0.0,0.0,0.0,0.0,0.0,0.0
2025/05/19 01:45:11.426614729,1747611911,424141443,mA1/imu,0.7014482417926446,0.7127196801490595,-6.0377556581575934e-05,0.0010089443892532751,0.0,0.0,0.0,0.0,0.0,0.0,0.0,0.0,0.0,0.0004446380358273742,-0.0024332569654237405,0.0016196947427643124,0.0,0.0,0.0,0.0,0.0,0.0,0.0,0.0,0.0,0.0048144954330581035,-0.4591883559523403,9.81455434850016,0.0,0.0,0.0,0.0,0.0,0.0,0.0,0.0,0.0
2025/05/19 01:45:11.479092120,1747611911,474655219,mA1/imu,0.7014770643077622,0.7126912487234723,-8.52816648112759e-05,0.0010511756175990016,0.0,0.0,0.0,0.0,0.0,0.0,0.0,0.0,0.0,-0.0014188600714535088,-0.0015042954554927138,0.001619680737137299,0.0,0.0,0.0,0.0,0.0,0.0,0.0,0.0,0.0,0.0012774588997925135,0.3709092070938168,9.815979725267912,0.0,0.0,0.0,0.0,0.0,0.0,0.0,0.0,0.0
2025/05/19 01:45:11.528509936,1747611911,526090728,mA1/imu,0.70150592322257,0.7126628053145104,-9.229962654418655e-05,0.0010756791719226404,0.0,0.0,0.0,0.0,0.0,0.0,0.0,0.0,0.0,-0.0014696265815825674,-0.0004703511293516126,0.001620009153871265,0.0,0.0,0.0,0.0,0.0,0.0,0.0,0.0,0.0,0.0021189744785501795,-0.19641310850423074,9.81808615657649,0.0,0.0,0.0,0.0,0.0,0.0,0.0,0.0,0.0
2025/05/19 01:45:11.578627407,1747611911,576196043,mA1/imu,0.7015349764409733,0.7126342113948445,-9.131647296530638e-05,0.0010720265449361108,0.0,0.0,0.0,0.0,0.0,0.0,0.0,0.0,0.0,-3.041553981832011e-05,0.0005656035855194152,0.0016314001950636441,0.0,0.0,0.0,0.0,0.0,0.0,0.0,0.0,0.0,0.000504707610367288,0.030659116507655945,9.814292310504225,0.0,0.0,0.0,0.0,0.0,0.0,0.0,0.0,0.0
2025/05/19 01:45:11.629592643,1747611911,628008734,mA1/imu,0.7015643347529671,0.7126053303325788,-6.30385344532544e-05,0.0010599105464235105,0.0,0.0,0.0,0.0,0.0,0.0,0.0,0.0,0.0,-0.00047370728226486656,0.0015312653782802521,0.0016495956200686178,0.0,0.0,0.0,0.0,0.0,0.0,0.0,0.0,0.0,-0.0005011823267935776,0.6337444960651066,9.815859472945462,0.0,0.0,0.0,0.0,0.0,0.0,0.0,0.0,0.0
2025/05/19 01:45:11.673561536,1747611911,672262482,mA1/imu,0.7015938089081956,0.7125763552790025,-1.7959166188340333e-05,0.0010319285108467194,0.0,0.0,0.0,0.0,0.0,0.0,0.0,0.0,0.0,9.264694757468504e-05,0.00236805941761237,0.001667602015332997,0.0,0.0,0.0,0.0,0.0,0.0,0.0,0.0,0.0,0.005262403357439311,0.4032724133091526,9.818451053190227,0.0,0.0,0.0,0.0,0.0,0.0,0.0,0.0,0.0
2025/05/19 01:45:11.725865801,1747611911,723717960,mA1/imu,0.701623690744944,0.7125469849186398,4.269301399101446e-05,0.0009945079714506959,0.0,0.0,0.0,0.0,0.0,0.0,0.0,0.0,0.0,0.0006998458351770335,0.0029958207542660595,0.0016927187893424657,0.0,0.0,0.0,0.0,0.0,0.0,0.0,0.0,0.0,0.0070147380821455425,-0.37025262903609424,9.815148287534944,0.0,0.0,0.0,0.0,0.0,0.0,0.0,0.0,0.0
2025/05/19 01:45:11.776320794,1747611911,774076424,mA1/imu,0.7016539891627039,0.7125172006901833,0.00011499874918819873,0.000951308560267252,0.0,0.0,0.0,0.0,0.0,0.0,0.0,0.0,0.0,-0.00026739800580748824,0.003396905614017419,0.0017115397889486848,0.0,0.0,0.0,0.0,0.0,0.0,0.0,0.0,0.0,0.0070113709811198835,0.012873307891793686,9.813513451422002,0.0,0.0,0.0,0.0,0.0,0.0,0.0,0.0,0.0
2025/05/19 01:45:11.830657924,1747611911,826551746,mA1/imu,0.7016846641193207,0.7124870477560696,0.00018639917128044834,0.0008967580193960209,0.0,0.0,0.0,0.0,0.0,0.0,0.0,0.0,0.0,-0.0002552201174380637,0.0036282620698363075,0.0017305905104817404,0.0,0.0,0.0,0.0,0.0,0.0,0.0,0.0,0.0,0.008171686063593201,-0.5028538875057608,9.810612600689488,0.0,0.0,0.0,0.0,0.0,0.0,0.0,0.0,0.0
2025/05/19 01:45:11.893418906,1747611911,879923080,mA1/imu,0.701715752278999,0.7124564776323382,0.00025766877144887615,0.000839100735561341,0.0,0.0,0.0,0.0,0.0,0.0,0.0,0.0,0.0,-0.0016152013810321175,0.00362926175801995,0.0017516226620246757,0.0,0.0,0.0,0.0,0.0,0.0,0.0,0.0,0.0,0.010233086133512181,0.5456988416925652,9.811392598197285,0.0,0.0,0.0,0.0,0.0,0.0,0.0,0.0,0.0
2025/05/19 01:45:11.932507577,1747611911,929740147,mA1/imu,0.7017510582808212,0.7124217423383318,0.0003294792272069756,0.0007776173879753853,0.0,0.0,0.0,0.0,0.0,0.0,0.0,0.0,0.0,-0.001696310941983698,0.0037729381557484714,0.002070906479039725,0.0,0.0,0.0,0.0,0.0,0.0,0.0,0.0,0.0,0.012624201245571013,0.537547787008918,9.808926540581872,0.0,0.0,0.0,0.0,0.0,0.0,0.0,0.0,0.0
2025/05/19 01:45:11.973672841,1747611911,971686189,mA1/imu,0.7017881277079289,0.7123852546253591,0.0003945846984122622,0.0007190990736459406,0.0,0.0,0.0,0.0,0.0,0.0,0.0,0.0,0.0,3.1908367468433524e-05,0.003288882715563613,0.0020902235892920652,0.0,0.0,0.0,0.0,0.0,0.0,0.0,0.0,0.0,0.011658313348886512,0.021675862854050633,9.807773983752801,0.0,0.0,0.0,0.0,0.0,0.0,0.0,0.0,0.0
2025/05/19 01:45:12.27442298,1747611912,25423465,mA1/imu,0.7018254351526559,0.7123485171389203,0.00044755409889907216,0.0006696253394969167,0.0,0.0,0.0,0.0,0.0,0.0,0.0,0.0,0.0,0.0017939305988264112,0.0026114419551325277,0.0021032153993108976,0.0,0.0,0.0,0.0,0.0,0.0,0.0,0.0,0.0,0.011859974735850667,-0.4927035303356124,9.804554468334146,0.0,0.0,0.0,0.0,0.0,0.0,0.0,0.0,0.0
2025/05/19 01:45:12.78478188,1747611912,76611304,mA1/imu,0.7018629836065909,0.7123115216056343,0.0004916060622217494,0.0006377728435812838,0.0,0.0,0.0,0.0,0.0,0.0,0.0,0.0,0.0,0.00038313105796762185,0.001803748516170599,0.00212123626520327,0.0,0.0,0.0,0.0,0.0,0.0,0.0,0.0,0.0,0.011540377233773916,0.024645516098467476,9.803238592032235,0.0,0.0,0.0,0.0,0.0,0.0,0.0,0.0,0.0
2025/05/19 01:45:12.131937533,1747611912,128293950,mA1/imu,0.701900828324381,0.7122742272065792,0.0005185739963881585,0.0006193026953108169,0.0,0.0,0.0,0.0,0.0,0.0,0.0,0.0,0.0,-0.0009949658590106731,0.0009187328518247787,0.0021321083688428354,0.0,0.0,0.0,0.0,0.0,0.0,0.0,0.0,0.0,0.011153530877437277,-0.0781849216236838,9.802787554344166,0.0,0.0,0.0,0.0,0.0,0.0,0.0,0.0,0.0
2025/05/19 01:45:12.179258380,1747611912,178309390,mA1/imu,0.7019389457308864,0.7122366695268257,0.000521526302784655,0.0006091451900015405,0.0,0.0,0.0,0.0,0.0,0.0,0.0,0.0,0.0,-0.0009198429861983103,5.511723192359486e-06,0.0021442461057882924,0.0,0.0,0.0,0.0,0.0,0.0,0.0,0.0,0.0,0.012493663625030975,-0.07659469098411759,9.803685040796708,0.0,0.0,0.0,0.0,0.0,0.0,0.0,0.0,0.0
2025/05/19 01:45:12.224598423,1747611912,221958395,mA1/imu,0.7019774153782122,0.7121987706128009,0.0005005884943979756,0.0006073283288060471,0.0,0.0,0.0,0.0,0.0,0.0,0.0,0.0,0.0,0.0005769215486752458,-0.0008866662006480622,0.002163594757941185,0.0,0.0,0.0,0.0,0.0,0.0,0.0,0.0,0.0,0.011792745125984749,0.01748916534477456,9.80337395301065,0.0,0.0,0.0,0.0,0.0,0.0,0.0,0.0,0.0
2025/05/19 01:45:12.276995896,1747611912,272870308,mA1/imu,0.7020160933163588,0.7121606482094877,0.00047167811305130324,0.0006272052595334823,0.0,0.0,0.0,0.0,0.0,0.0,0.0,0.0,0.0,-0.0002452424218106058,-0.0016740089610159693,0.0021704332327798226,0.0,0.0,0.0,0.0,0.0,0.0,0.0,0.0,0.0,0.009965817741409942,0.5481400744939742,9.804632573121545,0.0,0.0,0.0,0.0,0.0,0.0,0.0,0.0,0.0
2025/05/19 01:45:12.327930135,1747611912,324578329,mA1/imu,0.7020547161083999,0.7121225836464983,0.00042153667058278084,0.0006509665316229186,0.0,0.0,0.0,0.0,0.0,0.0,0.0,0.0,0.0,0.0004827703750105261,-0.0023371438278510705,0.002167804543607061,0.0,0.0,0.0,0.0,0.0,0.0,0.0,0.0,0.0,0.009577055121961438,-0.002131183104797346,9.804123758160975,0.0,0.0,0.0,0.0,0.0,0.0,0.0,0.0,0.0
2025/05/19 01:45:12.375626296,1747611912,374956889,mA1/imu,0.7020934006724808,0.7120844348618125,0.0003679839116364644,0.0006920603478762371,0.0,0.0,0.0,0.0,0.0,0.0,0.0,0.0,0.0,0.0012783975041439485,-0.0028771029171132823,0.0021743270075117588,0.0,0.0,0.0,0.0,0.0,0.0,0.0,0.0,0.0,0.009289602468946069,-0.17698361138731838,9.806603513205934,0.0,0.0,0.0,0.0,0.0,0.0,0.0,0.0,0.0
2025/05/19 01:45:12.430051655,1747611912,426527915,mA1/imu,0.7021321341727286,0.712046226110256,0.00030631837082922315,0.00073770810418178,0.0,0.0,0.0,0.0,0.0,0.0,0.0,0.0,0.0,0.0012340526760891994,-0.003142851698436366,0.002180835081595105,0.0,0.0,0.0,0.0,0.0,0.0,0.0,0.0,0.0,0.0066754749503284755,-0.5866514529370489,9.807177447143042,0.0,0.0,0.0,0.0,0.0,0.0,0.0,0.0,0.0
2025/05/19 01:45:12.478716602,1747611912,476261444,mA1/imu,0.7021710920670605,0.7120077910099328,0.000234056318399844,0.000779887265858519,0.0,0.0,0.0,0.0,0.0,0.0,0.0,0.0,0.0,0.001198908398577867,-0.0032713588152853035,0.002194913571956621,0.0,0.0,0.0,0.0,0.0,0.0,0.0,0.0,0.0,0.00739209691501694,0.1415377485300038,9.80908178336025,0.0,0.0,0.0,0.0,0.0,0.0,0.0,0.0,0.0
2025/05/19 01:45:12.529912225,1747611912,528817313,mA1/imu,0.7022095356172458,0.7119698382209091,0.0001677246007306691,0.0008303134125617679,0.0,0.0,0.0,0.0,0.0,0.0,0.0,0.0,0.0,0.001701911868624406,-0.003322317707873997,0.002110148136830726,0.0,0.0,0.0,0.0,0.0,0.0,0.0,0.0,0.0,0.009780049636350905,0.08145724605811919,9.81131618862934,0.0,0.0,0.0,0.0,0.0,0.0,0.0,0.0,0.0
2025/05/19 01:45:12.581705303,1747611912,578664407,mA1/imu,0.702246464154529,0.7119333616238022,0.00010790091741231741,0.0008834856458058617,0.0,0.0,0.0,0.0,0.0,0.0,0.0,0.0,0.0,0.001322092028774984,-0.0030983741149786096,0.0020635021946124998,0.0,0.0,0.0,0.0,0.0,0.0,0.0,0.0,0.0,0.006024514317917329,-0.5768893565558346,9.812671439211556,0.0,0.0,0.0,0.0,0.0,0.0,0.0,0.0,0.0
2025/05/19 01:45:12.626062446,1747611912,622572676,mA1/imu,0.7022828832222249,0.7118973896141246,4.9845700020161217e-05,0.0009252616279983408,0.0,0.0,0.0,0.0,0.0,0.0,0.0,0.0,0.0,-0.002215275882374403,-0.002624412824169081,0.0020259155776814783,0.0,0.0,0.0,0.0,0.0,0.0,0.0,0.0,0.0,0.0061501180813861986,0.43693698101494494,9.815922556799562,0.0,0.0,0.0,0.0,0.0,0.0,0.0,0.0,0.0
2025/05/19 01:45:12.677472160,1747611912,674027445,mA1/imu,0.7023185511775992,0.7118621645663814,-3.029418432852482e-06,0.0009546315973183499,0.0,0.0,0.0,0.0,0.0,0.0,0.0,0.0,0.0,-0.0007845712349111401,-0.0020388603097874175,0.001977839770183253,0.0,0.0,0.0,0.0,0.0,0.0,0.0,0.0,0.0,0.003210190449258429,0.5505034069858622,9.813799798137156,0.0,0.0,0.0,0.0,0.0,0.0,0.0,0.0,0.0
2025/05/19 01:45:12.726562932,1747611912,724970395,mA1/imu,0.7023542672061829,0.7118268954619819,-3.995300718902879e-05,0.0009760317514060605,0.0,0.0,0.0,0.0,0.0,0.0,0.0,0.0,0.0,-6.064927261943442e-05,-0.0013237060965015002,0.0020734605139321217,0.0,0.0,0.0,0.0,0.0,0.0,0.0,0.0,0.0,-0.0005474935400327906,0.31802401187843277,9.814699157893664,0.0,0.0,0.0,0.0,0.0,0.0,0.0,0.0,0.0
2025/05/19 01:45:12.778692851,1747611912,776344650,mA1/imu,0.7023935683498409,0.7117881013559823,-6.0066958230938665e-05,0.000985038468140372,0.0,0.0,0.0,0.0,0.0,0.0,0.0,0.0,0.0,0.0015383694294053918,-0.0005045285238301392,0.002291555697775762,0.0,0.0,0.0,0.0,0.0,0.0,0.0,0.0,0.0,0.00239601594410367,-0.5364070499598708,9.815865372890832,0.0,0.0,0.0,0.0,0.0,0.0,0.0,0.0,0.0
2025/05/19 01:45:12.830204245,1747611912,827868981,mA1/imu,0.702436775274775,0.711745465498158,-6.215005745255331e-05,0.0009824569995394799,0.0,0.0,0.0,0.0,0.0,0.0,0.0,0.0,0.0,0.0014777075671208969,0.00032355671844739697,0.0025164166907027325,0.0,0.0,0.0,0.0,0.0,0.0,0.0,0.0,0.0,0.003528938074763543,-0.5344714155778574,9.81542783235554,0.0,0.0,0.0,0.0,0.0,0.0,0.0,0.0,0.0
2025/05/19 01:45:12.880710308,1747611912,878152737,mA1/imu,0.702481947796386,0.7117008956910592,-5.0705184819324893e-05,0.000972379413601826,0.0,0.0,0.0,0.0,0.0,0.0,0.0,0.0,0.0,-0.00029935859836357966,0.0007224569710047204,0.002515286846814698,0.0,0.0,0.0,0.0,0.0,0.0,0.0,0.0,0.0,0.01839035401833759,-0.02234907736702868,9.816797432662517,0.0,0.0,0.0,0.0,0.0,0.0,0.0,0.0,0.0
2025/05/19 01:45:12.932228889,1747611912,929251115,mA1/imu,0.7025259992098941,0.7116574306153189,-3.2461495488046656e-05,0.0009595990794478589,0.0,0.0,0.0,0.0,0.0,0.0,0.0,0.0,0.0,-0.0020789364361318485,0.0009744190644173877,0.0024502073497415272,0.0,0.0,0.0,0.0,0.0,0.0,0.0,0.0,0.0,0.018920435031391833,0.4912161804571533,9.816143427436629,0.0,0.0,0.0,0.0,0.0,0.0,0.0,0.0,0.0
2025/05/19 01:45:12.980709977,1747611912,979051082,mA1/imu,0.7025689265523941,0.7116150799438085,-1.4637107345814545e-05,0.000938736032590621,0.0,0.0,0.0,0.0,0.0,0.0,0.0,0.0,0.0,-0.0006673722141556132,0.0011767919873536866,0.002387539927722063,0.0,0.0,0.0,0.0,0.0,0.0,0.0,0.0,0.0,0.01800274181169301,-0.02873038503189298,9.812485273912483,0.0,0.0,0.0,0.0,0.0,0.0,0.0,0.0,0.0
2025/05/19 01:45:13.23049563,1747611913,21104169,mA1/imu,0.7026106553921133,0.7115739062855462,9.273188429626737e-06,0.00091800708151784,0.0,0.0,0.0,0.0,0.0,0.0,0.0,0.0,0.0,-0.0010343941585481801,0.001315767202571715,0.0023007720136805493,0.0,0.0,0.0,0.0,0.0,0.0,0.0,0.0,0.0,0.01843518928483608,0.3811381159828611,9.812358849542008,0.0,0.0,0.0,0.0,0.0,0.0,0.0,0.0,0.0
2025/05/19 01:45:13.75091577,1747611913,72531455,mA1/imu,0.702650180588336,0.7115349030554039,3.6196718073849246e-05,0.0008967401595019452,0.0,0.0,0.0,0.0,0.0,0.0,0.0,0.0,0.0,0.0007928287117035618,0.001387138564477413,0.0021893806210263405,0.0,0.0,0.0,0.0,0.0,0.0,0.0,0.0,0.0,0.017642701565908886,-0.20481944991632114,9.810541802588213,0.0,0.0,0.0,0.0,0.0,0.0,0.0,0.0,0.0
2025/05/19 01:45:13.125748077,1747611913,124571088,mA1/imu,0.7026884170258805,0.7114971501361068,7.72597910048746e-05,0.0008876692996033174,0.0,0.0,0.0,0.0,0.0,0.0,0.0,0.0,0.0,-0.0008848660683001565,0.0014065081013875467,0.002126027743824723,0.0,0.0,0.0,0.0,0.0,0.0,0.0,0.0,0.0,0.01812941769336239,-0.027027074807119376,9.808643390019006,0.0,0.0,0.0,0.0,0.0,0.0,0.0,0.0,0.0
2025/05/19 01:45:13.176546141,1747611913,175185475,mA1/imu,0.7027255584986951,0.7114604883816352,0.00010575523361908547,0.00086701804636506,0.0,0.0,0.0,0.0,0.0,0.0,0.0,0.0,0.0,-0.0015533645723003816,0.001367994157321127,0.0020638096271072704,0.0,0.0,0.0,0.0,0.0,0.0,0.0,0.0,0.0,0.017728246524655315,-0.0672462512567401,9.806814518809535,0.0,0.0,0.0,0.0,0.0,0.0,0.0,0.0,0.0
2025/05/19 01:45:13.229268982,1747611913,227192713,mA1/imu,0.7027616386164344,0.7114248624443906,0.00013625014147670853,0.0008519513033216591,0.0,0.0,0.0,0.0,0.0,0.0,0.0,0.0,0.0,0.0003804574384939788,0.0012315608526406458,0.002006373250824319,0.0,0.0,0.0,0.0,0.0,0.0,0.0,0.0,0.0,0.017547705715858404,0.06888484594699652,9.805176413668374,0.0,0.0,0.0,0.0,0.0,0.0,0.0,0.0,0.0
2025/05/19 01:45:13.280525192,1747611913,277708159,mA1/imu,0.7027966972936056,0.7113902362921226,0.00016549809714839212,0.0008405901603425175,0.0,0.0,0.0,0.0,0.0,0.0,0.0,0.0,0.0,-0.00015818071250208563,0.0010671417857839721,0.0019501337760932196,0.0,0.0,0.0,0.0,0.0,0.0,0.0,0.0,0.0,0.017738532990905748,0.027564702543151527,9.80611149061092,0.0,0.0,0.0,0.0,0.0,0.0,0.0,0.0,0.0
2025/05/19 01:45:13.332472050,1747611913,328789769,mA1/imu,0.7028323664536289,0.7113549974897523,0.000195445467379296,0.0008330741958071462,0.0,0.0,0.0,0.0,0.0,0.0,0.0,0.0,0.0,0.0009312452200650455,0.00112965325461501,0.0021114932765936814,0.0,0.0,0.0,0.0,0.0,0.0,0.0,0.0,0.0,0.0020492349234938556,-0.521816304945896,9.803797227967406,0.0,0.0,0.0,0.0,0.0,0.0,0.0,0.0,0.0
2025/05/19 01:45:13.381685641,1747611913,379167675,mA1/imu,0.7028704318841094,0.7113173852741453,0.00022582103882812417,0.0008260718233064092,0.0,0.0,0.0,0.0,0.0,0.0,0.0,0.0,0.0,-0.0010785308688435694,0.0009227653227375553,0.0021209116233271,0.0,0.0,0.0,0.0,0.0,0.0,0.0,0.0,0.0,0.018443682758427966,0.3163391539753411,9.80469034090281,0.0,0.0,0.0,0.0,0.0,0.0,0.0,0.0,0.0
2025/05/19 01:45:13.434886994,1747611913,430192376,mA1/imu,0.7029080872655922,0.7112801741628831,0.00024550632331237074,0.0008212344917387566,0.0,0.0,0.0,0.0,0.0,0.0,0.0,0.0,0.0,1.1171749874766355e-05,0.0005266196908524514,0.002138883032780416,0.0,0.0,0.0,0.0,0.0,0.0,0.0,0.0,0.0,0.018345663728879302,-0.13914607187792785,9.803417549040327,0.0,0.0,0.0,0.0,0.0,0.0,0.0,0.0,0.0
2025/05/19 01:45:13.472914277,1747611913,470838679,mA1/imu,0.7029459445627383,0.7112427547251925,0.0002576468538517267,0.0008224912267369841,0.0,0.0,0.0,0.0,0.0,0.0,0.0,0.0,0.0,-0.0003643203797214721,0.00015676543119817375,0.002109604247828408,0.0,0.0,0.0,0.0,0.0,0.0,0.0,0.0,0.0,0.018280326856543155,0.14401754078268103,9.804102144169796,0.0,0.0,0.0,0.0,0.0,0.0,0.0,0.0,0.0
2025/05/19 01:45:13.525417274,1747611913,523396416,mA1/imu,0.7029829216448188,0.7112061916212844,0.0002660230754098307,0.0008331308341053779,0.0,0.0,0.0,0.0,0.0,0.0,0.0,0.0,0.0,-0.0008737120191170577,-0.0002192597621577394,0.0020609209019010408,0.0,0.0,0.0,0.0,0.0,0.0,0.0,0.0,0.0,0.018036790408236584,-0.03947271567701901,9.805734479291024,0.0,0.0,0.0,0.0,0.0,0.0,0.0,0.0,0.0
2025/05/19 01:45:13.576410113,1747611913,573807423,mA1/imu,0.7030190525860712,0.7111704635246591,0.0002631018761282432,0.0008451559069865395,0.0,0.0,0.0,0.0,0.0,0.0,0.0,0.0,0.0,8.758892156198414e-05,-0.0005626407448948717,0.002013658110425792,0.0,0.0,0.0,0.0,0.0,0.0,0.0,0.0,0.0,0.017250581388539292,-0.6087838214717773,9.805879051407555,0.0,0.0,0.0,0.0,0.0,0.0,0.0,0.0,0.0
2025/05/19 01:45:13.627729301,1747611913,626923944,mA1/imu,0.7030543780258804,0.7111355358381789,0.0002465896728173153,0.0008546346130635049,0.0,0.0,0.0,0.0,0.0,0.0,0.0,0.0,0.0,0.0011960705370999058,-0.0008446158118666682,0.001968642765128916,0.0,0.0,0.0,0.0,0.0,0.0,0.0,0.0,0.0,0.01637142273810499,-0.3786092999287265,9.806956325165427,0.0,0.0,0.0,0.0,0.0,0.0,0.0,0.0,0.0
2025/05/19 01:45:13.681036758,1747611913,678852692,mA1/imu,0.7030889158251364,0.7111013679664615,0.00023292506780044542,0.0008755946403039764,0.0,0.0,0.0,0.0,0.0,0.0,0.0,0.0,0.0,-0.0006964030395184344,-0.0010599329033852297,0.0019253469826637257,0.0,0.0,0.0,0.0,0.0,0.0,0.0,0.0,0.0,0.01654260119635146,0.45616601612534596,9.810160599378998,0.0,0.0,0.0,0.0,0.0,0.0,0.0,0.0,0.0
2025/05/19 01:45:13.731896731,1747611913,729914388,mA1/imu,0.7031227294646609,0.7110679227999107,0.00020733338433139313,0.0008907794639621254,0.0,0.0,0.0,0.0,0.0,0.0,0.0,0.0,0.0,0.000961525928771722,-0.0011993562755193826,0.0018857067115063731,0.0,0.0,0.0,0.0,0.0,0.0,0.0,0.0,0.0,0.015427919149870767,-0.5570557826840216,9.810074809586801,0.0,0.0,0.0,0.0,0.0,0.0,0.0,0.0,0.0
2025/05/19 01:45:13.775777229,1747611913,771007859,mA1/imu,0.7031558628475575,0.7110351450603773,0.00017960650802051895,0.0009070686729273473,0.0,0.0,0.0,0.0,0.0,0.0,0.0,0.0,0.0,0.0009696646429921927,-0.0012680477556126645,0.0018483396903723195,0.0,0.0,0.0,0.0,0.0,0.0,0.0,0.0,0.0,0.015617940385183783,0.04517496453387438,9.812333862119052,0.0,0.0,0.0,0.0,0.0,0.0,0.0,0.0,0.0
2025/05/19 01:45:13.828098112,1747611913,826041393,mA1/imu,0.7031882426742901,0.711003107940975,0.0001518178477535245,0.0009234794306217063,0.0,0.0,0.0,0.0,0.0,0.0,0.0,0.0,0.0,-0.0004879225448024463,-0.0012243015416792335,0.0017840958964218498,0.0,0.0,0.0,0.0,0.0,0.0,0.0,0.0,0.0,0.014218537519833782,0.5671440377040419,9.814699283358603,0.0,0.0,0.0,0.0,0.0,0.0,0.0,0.0,0.0
2025/05/19 01:45:13.879642842,1747611913,876267626,mA1/imu,0.7032187444486838,0.7109729357229141,0.00011780622024921901,0.0009317978601948498,0.0,0.0,0.0,0.0,0.0,0.0,0.0,0.0,0.0,0.001030060436733788,-0.0011491449682620892,0.0016908762155971439,0.0,0.0,0.0,0.0,0.0,0.0,0.0,0.0,0.0,0.01391404936491971,0.6696461880704353,9.816586972806462,0.0,0.0,0.0,0.0,0.0,0.0,0.0,0.0,0.0
2025/05/19 01:45:13.928087682,1747611913,927221668,mA1/imu,0.7032483772247369,0.7109436026185871,0.00010012626049378623,0.0009506846010105996,0.0,0.0,0.0,0.0,0.0,0.0,0.0,0.0,0.0,0.0010279065804176181,-0.0009622792180812103,0.001651638840922747,0.0,0.0,0.0,0.0,0.0,0.0,0.0,0.0,0.0,0.01320369025650187,-0.38725430542856354,9.815036518345801,0.0,0.0,0.0,0.0,0.0,0.0,0.0,0.0,0.0
2025/05/19 01:45:13.978443480,1747611913,977132199,mA1/imu,0.7032773531882236,0.710914946412658,6.87832549092281e-05,0.0009480129314441031,0.0,0.0,0.0,0.0,0.0,0.0,0.0,0.0,0.0,0.000936930028469918,-0.0006982587700447486,0.0016138058978802546,0.0,0.0,0.0,0.0,0.0,0.0,0.0,0.0,0.0,0.013394885753365338,0.21598500323966552,9.816080205966955,0.0,0.0,0.0,0.0,0.0,0.0,0.0,0.0,0.0
2025/05/19 01:45:14.32375297,1747611914,29819238,mA1/imu,0.703305649414329,0.7108869574012833,4.8164500031033135e-05,0.0009460332001464879,0.0,0.0,0.0,0.0,0.0,0.0,0.0,0.0,0.0,0.0012181405267328242,-0.00040789948758867726,0.0015759197954345946,0.0,0.0,0.0,0.0,0.0,0.0,0.0,0.0,0.0,0.012727543918129781,0.0442804833063417,9.815311627109262,0.0,0.0,0.0,0.0,0.0,0.0,0.0,0.0,0.0
2025/05/19 01:45:14.73331389,1747611914,71937934,mA1/imu,0.7033332686835168,0.7108596431166044,3.1985540339012086e-05,0.0009380447850474596,0.0,0.0,0.0,0.0,0.0,0.0,0.0,0.0,0.0,0.0024770586693522523,-0.00011619938949846137,0.0015384531215820749,0.0,0.0,0.0,0.0,0.0,0.0,0.0,0.0,0.0,0.012984876417403158,-0.3335158111422989,9.816600639616631,0.0,0.0,0.0,0.0,0.0,0.0,0.0,0.0,0.0
2025/05/19 01:45:14.128930084,1747611914,125541969,mA1/imu,0.7033602206413572,0.7108329804925244,3.1797871678046984e-05,0.0009342656748138052,0.0,0.0,0.0,0.0,0.0,0.0,0.0,0.0,0.0,0.00033494572257158765,0.00021556403219362899,0.0015031265051458028,0.0,0.0,0.0,0.0,0.0,0.0,0.0,0.0,0.0,0.013426836996004814,-0.6478076161477911,9.814808783884395,0.0,0.0,0.0,0.0,0.0,0.0,0.0,0.0,0.0
2025/05/19 01:45:14.179376528,1747611914,175681447,mA1/imu,0.7033866039082459,0.7108069026442969,2.3706744239754913e-05,0.0009121587777179519,0.0,0.0,0.0,0.0,0.0,0.0,0.0,0.0,0.0,-0.0016624997365472817,0.000537204129389248,0.0014703224989802363,0.0,0.0,0.0,0.0,0.0,0.0,0.0,0.0,0.0,0.012935685167359023,0.4773332628090271,9.814188624774163,0.0,0.0,0.0,0.0,0.0,0.0,0.0,0.0,0.0
2025/05/19 01:45:14.228191008,1747611914,227476332,mA1/imu,0.7034126303335024,0.710781180995298,2.120878466197639e-05,0.0008853137413290088,0.0,0.0,0.0,0.0,0.0,0.0,0.0,0.0,0.0,-0.0008357056759035259,0.0008762316934804614,0.0014974240269565902,0.0,0.0,0.0,0.0,0.0,0.0,0.0,0.0,0.0,-0.0005559482425887795,0.5389057838454059,9.811898960440612,0.0,0.0,0.0,0.0,0.0,0.0,0.0,0.0,0.0
2025/05/19 01:45:14.275905312,1747611914,271441953,mA1/imu,0.703440328309225,0.710753809285243,2.7335230738524934e-05,0.0008522602369479384,0.0,0.0,0.0,0.0,0.0,0.0,0.0,0.0,0.0,0.0008920521349042511,0.001198078977945702,0.0015559482302708442,0.0,0.0,0.0,0.0,0.0,0.0,0.0,0.0,0.0,0.013681292965789972,0.033793776827095126,9.810375772301066,0.0,0.0,0.0,0.0,0.0,0.0,0.0,0.0,0.0
2025/05/19 01:45:14.323379924,1747611914,322499217,mA1/imu,0.7034677387534934,0.7107267119222356,4.447001778249955e-05,0.0008243274056062234,0.0,0.0,0.0,0.0,0.0,0.0,0.0,0.0,0.0,0.0004419829163182913,0.0013107032161695674,0.0015334002812762689,0.0,0.0,0.0,0.0,0.0,0.0,0.0,0.0,0.0,0.014222439333455668,0.010636724681674736,9.808172337560558,0.0,0.0,0.0,0.0,0.0,0.0,0.0,0.0,0.0
2025/05/19 01:45:14.376063706,1747611914,374387966,mA1/imu,0.7034947593593233,0.7107000038392648,5.842954230315505e-05,0.0007903687906804535,0.0,0.0,0.0,0.0,0.0,0.0,0.0,0.0,0.0,0.0009702764183321217,0.0013726018108514465,0.0015114804558083127,0.0,0.0,0.0,0.0,0.0,0.0,0.0,0.0,0.0,0.014444549761699982,0.05144259804054995,9.806981830924899,0.0,0.0,0.0,0.0,0.0,0.0,0.0,0.0,0.0
2025/05/19 01:45:14.429327361,1747611914,427667545,mA1/imu,0.7035208366732223,0.7106742151524611,8.176550837534662e-05,0.0007652440423313817,0.0,0.0,0.0,0.0,0.0,0.0,0.0,0.0,0.0,-0.000514668954684137,0.00135844239110531,0.0014110964192285086,0.0,0.0,0.0,0.0,0.0,0.0,0.0,0.0,0.0,0.013634749934574246,0.4820576245903409,9.807481929045892,0.0,0.0,0.0,0.0,0.0,0.0,0.0,0.0,0.0
2025/05/19 01:45:14.484073248,1747611914,478657268,mA1/imu,0.7035452404807867,0.7106500784241889,0.00010522094956436995,0.0007413238683689183,0.0,0.0,0.0,0.0,0.0,0.0,0.0,0.0,0.0,-0.000783554156010661,0.001320826800212072,0.0013671590640085423,0.0,0.0,0.0,0.0,0.0,0.0,0.0,0.0,0.0,0.012835079779262928,0.011688797681162117,9.805490827529947,0.0,0.0,0.0,0.0,0.0,0.0,0.0,0.0,0.0
2025/05/19 01:45:14.525869283,1747611914,522823979,mA1/imu,0.7035693789217106,0.710626205678592,0.00012203856615150538,0.0007141100436112971,0.0,0.0,0.0,0.0,0.0,0.0,0.0,0.0,0.0,0.0012417244220493174,0.0011943509096166486,0.0013529417821629144,0.0,0.0,0.0,0.0,0.0,0.0,0.0,0.0,0.0,0.013019256316080224,-0.5279089720984201,9.803177869616523,0.0,0.0,0.0,0.0,0.0,0.0,0.0,0.0,0.0
2025/05/19 01:45:14.578424144,1747611914,573528521,mA1/imu,0.703593260210183,0.7106025746120607,0.00014264681332512547,0.0006962710701672205,0.0,0.0,0.0,0.0,0.0,0.0,0.0,0.0,0.0,0.0009847328526369577,0.001006375228394424,0.001339071053761876,0.0,0.0,0.0,0.0,0.0,0.0,0.0,0.0,0.0,0.013396263938946822,0.08996205612332434,9.80449051173157,0.0,0.0,0.0,0.0,0.0,0.0,0.0,0.0,0.0
2025/05/19 01:45:14.627998969,1747611914,626702590,mA1/imu,0.7036163027589276,0.7105797597600967,0.0001672574137854102,0.0006895912542375928,0.0,0.0,0.0,0.0,0.0,0.0,0.0,0.0,0.0,-0.00029151130927794217,0.0007847279553370219,0.0012405490891891182,0.0,0.0,0.0,0.0,0.0,0.0,0.0,0.0,0.0,0.012660185814304791,0.009902422153820284,9.802387250188547,0.0,0.0,0.0,0.0,0.0,0.0,0.0,0.0,0.0
2025/05/19 01:45:14.684132619,1747611914,678379631,mA1/imu,0.7036375745973602,0.7105586956427057,0.00018547426859078707,0.0006850259681699061,0.0,0.0,0.0,0.0,0.0,0.0,0.0,0.0,0.0,-0.00040772527790422145,0.0005399518097506577,0.0011891875020837866,0.0,0.0,0.0,0.0,0.0,0.0,0.0,0.0,0.0,0.012717624004821942,0.011578901502360928,9.80350738427824,0.0,0.0,0.0,0.0,0.0,0.0,0.0,0.0,0.0
2025/05/19 01:45:14.725919184,1747611914,720969385,mA1/imu,0.7036584596740023,0.7105380071997834,0.00020095473855593753,0.0006870742054975215,0.0,0.0,0.0,0.0,0.0,0.0,0.0,0.0,0.0,-0.0005986215813183388,0.0002650893318551325,0.0011677396305705765,0.0,0.0,0.0,0.0,0.0,0.0,0.0,0.0,0.0,0.012733179060835003,0.0028197029609685967,9.80627320713458,0.0,0.0,0.0,0.0,0.0,0.0,0.0,0.0,0.0
2025/05/19 01:45:14.774816596,1747611914,773104173,mA1/imu,0.7036789682942725,0.7105176885847267,0.00020996256335705264,0.0006926068493587226,0.0,0.0,0.0,0.0,0.0,0.0,0.0,0.0,0.0,-0.00032294473312090104,-2.670292376857821e-05,0.0011466584250701532,0.0,0.0,0.0,0.0,0.0,0.0,0.0,0.0,0.0,0.013061975994813827,0.021114741303533784,9.807062454617128,0.0,0.0,0.0,0.0,0.0,0.0,0.0,0.0,0.0
2025/05/19 01:45:14.830981784,1747611914,828509966,mA1/imu,0.7036991059653958,0.7104977325394526,0.00021391206691559863,0.000703250614654284,0.0,0.0,0.0,0.0,0.0,0.0,0.0,0.0,0.0,0.0004472686901370405,-0.0003060888687367533,0.0011256025393013751,0.0,0.0,0.0,0.0,0.0,0.0,0.0,0.0,0.0,0.012123279567398632,-0.5515395659482389,9.807185712027897,0.0,0.0,0.0,0.0,0.0,0.0,0.0,0.0,0.0
2025/05/19 01:45:14.877786674,1747611914,871940181,mA1/imu,0.7037188714740404,0.7104781417644724,0.00021203391386016585,0.0007176683249061927,0.0,0.0,0.0,0.0,0.0,0.0,0.0,0.0,0.0,0.001111600425775996,-0.0005599507345892717,0.0011046680141407236,0.0,0.0,0.0,0.0,0.0,0.0,0.0,0.0,0.0,0.011613277815444887,-0.5074046172862245,9.808749679408674,0.0,0.0,0.0,0.0,0.0,0.0,0.0,0.0,0.0
2025/05/19 01:45:14.928272476,1747611914,925030364,mA1/imu,0.7037382676821456,0.7104589064353968,0.00021147788592865954,0.0007403671091677605,0.0,0.0,0.0,0.0,0.0,0.0,0.0,0.0,0.0,-0.00024808979105645526,-0.0007358634431557127,0.0010848509585263768,0.0,0.0,0.0,0.0,0.0,0.0,0.0,0.0,0.0,0.011596284833061809,0.022642813722985947,9.81162109613269,0.0,0.0,0.0,0.0,0.0,0.0,0.0,0.0,0.0
2025/05/19 01:45:14.994368112,1747611914,980253617,mA1/imu,0.7037573313956078,0.7104400008845373,0.00020457725593642397,0.0007627570109116338,0.0,0.0,0.0,0.0,0.0,0.0,0.0,0.0,0.0,-0.0010503346080917564,-0.0008862984574730357,0.0010661152846345875,0.0,0.0,0.0,0.0,0.0,0.0,0.0,0.0,0.0,0.011622924534468154,0.3048837785007367,9.812395251527152,0.0,0.0,0.0,0.0,0.0,0.0,0.0,0.0,0.0
2025/05/19 01:45:15.36261659,1747611915,24198035,mA1/imu,0.7037760777783711,0.7104214112183593,0.00019153154520750934,0.0007836740866511297,0.0,0.0,0.0,0.0,0.0,0.0,0.0,0.0,0.0,-0.0005379526107006776,-0.000996507714235717,0.0010486346386174442,0.0,0.0,0.0,0.0,0.0,0.0,0.0,0.0,0.0,0.010953655500150457,0.2604235014823883,9.814135690024537,0.0,0.0,0.0,0.0,0.0,0.0,0.0,0.0,0.0
2025/05/19 01:45:15.74992793,1747611915,72338445,mA1/imu,0.7037945288517281,0.7104031163185635,0.000173721386301903,0.0008020624211263585,0.0,0.0,0.0,0.0,0.0,0.0,0.0,0.0,0.0,0.0009131424102110096,-0.0010411531730977188,0.001031940830920166,0.0,0.0,0.0,0.0,0.0,0.0,0.0,0.0,0.0,0.010595963516065041,-0.5440836097482897,9.814673788967404,0.0,0.0,0.0,0.0,0.0,0.0,0.0,0.0,0.0
2025/05/19 01:45:15.127033703,1747611915,124636284,mA1/imu,0.7038126781764367,0.7103851138041286,0.0001594402875772811,0.0008238339649550104,0.0,0.0,0.0,0.0,0.0,0.0,0.0,0.0,0.0,0.000532105173020473,-0.0010093797396951477,0.0010153145931860047,0.0,0.0,0.0,0.0,0.0,0.0,0.0,0.0,0.0,0.010089739362791218,0.052524446200297906,9.816176135741292,0.0,0.0,0.0,0.0,0.0,0.0,0.0,0.0,0.0
2025/05/19 01:45:15.176451946,1747611915,174504987,mA1/imu,0.7038305305057587,0.7103674081338871,0.00014399321093330032,0.0008420540843536242,0.0,0.0,0.0,0.0,0.0,0.0,0.0,0.0,0.0,0.0013543401088254978,-0.0009221168344927061,0.0009985522434215873,0.0,0.0,0.0,0.0,0.0,0.0,0.0,0.0,0.0,0.010277333946341217,-0.5285043085113668,9.815114941540894,0.0,0.0,0.0,0.0,0.0,0.0,0.0,0.0,0.0
2025/05/19 01:45:15.227841669,1747611915,226450510,mA1/imu,0.703848084547062,0.7103499946702778,0.0001338836865670247,0.0008608289765369569,0.0,0.0,0.0,0.0,0.0,0.0,0.0,0.0,0.0,-0.0008219113358619604,-0.0007677253308913144,0.000982326392536693,0.0,0.0,0.0,0.0,0.0,0.0,0.0,0.0,0.0,0.010825327886213022,-0.4302288287404283,9.816589181413523,0.0,0.0,0.0,0.0,0.0,0.0,0.0,0.0,0.0
2025/05/19 01:45:15.279027190,1747611915,277008433,mA1/imu,0.7038653711653036,0.7103328598981636,0.00011744683992444542,0.0008681183474772809,0.0,0.0,0.0,0.0,0.0,0.0,0.0,0.0,0.0,-0.0009222265206123677,-0.0005846028234490837,0.0009666191162955594,0.0,0.0,0.0,0.0,0.0,0.0,0.0,0.0,0.0,0.00968083453165652,-0.06426701161335774,9.815116904917895,0.0,0.0,0.0,0.0,0.0,0.0,0.0,0.0,0.0
2025/05/19 01:45:15.331280662,1747611915,328701550,mA1/imu,0.7038823674640412,0.7103160224042806,9.964216228876689e-05,0.0008666951122571806,0.0,0.0,0.0,0.0,0.0,0.0,0.0,0.0,0.0,-0.0003020970857627601,-0.0003644026207813264,0.0009495330086646333,0.0,0.0,0.0,0.0,0.0,0.0,0.0,0.0,0.0,0.00995989556363207,-0.02909011363024523,9.813826101463569,0.0,0.0,0.0,0.0,0.0,0.0,0.0,0.0,0.0
2025/05/19 01:45:15.374617138,1747611915,371418809,mA1/imu,0.7038990653904897,0.7102994813010289,8.778611576485204e-05,0.0008630755947100113,0.0,0.0,0.0,0.0,0.0,0.0,0.0,0.0,0.0,0.0012422951998987992,-0.00013912430222991527,0.0009331660255359633,0.0,0.0,0.0,0.0,0.0,0.0,0.0,0.0,0.0,0.009883227572254006,0.07432455599882512,9.81309831491422,0.0,0.0,0.0,0.0,0.0,0.0,0.0,0.0,0.0
2025/05/19 01:45:15.426645943,1747611915,423276580,mA1/imu,0.7039153999799773,0.7102832969427905,8.538641927483307e-05,0.0008605023343734412,0.0,0.0,0.0,0.0,0.0,0.0,0.0,0.0,0.0,0.0013662252571110174,7.811061724321641e-05,0.0008985073953152181,0.0,0.0,0.0,0.0,0.0,0.0,0.0,0.0,0.0,0.012774610054854146,0.06370409425525549,9.812382388831693,0.0,0.0,0.0,0.0,0.0,0.0,0.0,0.0,0.0
2025/05/19 01:45:15.476565275,1747611915,474260545,mA1/imu,0.703930748989293,0.7102680870669292,9.044673403677867e-05,0.0008584527048065094,0.0,0.0,0.0,0.0,0.0,0.0,0.0,0.0,0.0,0.00011182536118775393,0.0002856557442536712,0.0008558906111374753,0.0,0.0,0.0,0.0,0.0,0.0,0.0,0.0,0.0,0.009871990752723473,-0.004956144878171221,9.811940414783345,0.0,0.0,0.0,0.0,0.0,0.0,0.0,0.0,0.0
2025/05/19 01:45:15.527324209,1747611915,525780588,mA1/imu,0.703944464095408,0.7102545039615809,9.376040383549317e-05,0.0008498709925840865,0.0,0.0,0.0,0.0,0.0,0.0,0.0,0.0,0.0,0.00025502524252259606,0.00019401012509750497,0.0006249484686902085,0.0,0.0,0.0,0.0,0.0,0.0,0.0,0.0,0.0,0.04243864275434571,-0.6156845071119713,9.80958381338032,0.0,0.0,0.0,0.0,0.0,0.0,0.0,0.0,0.0
2025/05/19 01:45:15.580611876,1747611915,575780252,mA1/imu,0.7039485801957172,0.710250423390752,8.509503578260185e-05,0.00085162933624251,0.0,0.0,0.0,0.0,0.0,0.0,0.0,0.0,0.0,-0.0005998089141285225,-0.0006044320576180705,-3.582835138559461e-05,0.0,0.0,0.0,0.0,0.0,0.0,0.0,0.0,0.0,0.040445204586686705,-0.3189220953566493,9.805979714697731,0.0,0.0,0.0,0.0,0.0,0.0,0.0,0.0,0.0
2025/05/19 01:45:15.629861255,1747611915,627422077,mA1/imu,0.7039486746551684,0.7102503353565348,6.670872422265284e-05,0.0008486030331327889,0.0,0.0,0.0,0.0,0.0,0.0,0.0,0.0,0.0,-0.0015787562787474218,-0.00015620843974814685,0.00012444254339062855,0.0,0.0,0.0,0.0,0.0,0.0,0.0,0.0,0.0,0.003553819940649387,0.5008670965361134,9.80792064312184,0.0,0.0,0.0,0.0,0.0,0.0,0.0,0.0,0.0
2025/05/19 01:45:15.681394119,1747611915,678180133,mA1/imu,0.7039511956845987,0.710247856130327,4.631248024714317e-05,0.0008335536290275665,0.0,0.0,0.0,0.0,0.0,0.0,0.0,0.0,0.0,0.00020078025748051755,-0.00017459332612265152,0.00011011207211481329,0.0,0.0,0.0,0.0,0.0,0.0,0.0,0.0,0.0,0.021922860546720213,0.6213017868621471,9.80385272207381,0.0,0.0,0.0,0.0,0.0,0.0,0.0,0.0,0.0
2025/05/19 01:45:15.730981339,1747611915,729174105,mA1/imu,0.7039525968571958,0.7102464574972234,4.476576681237965e-05,0.0008420134686279502,0.0,0.0,0.0,0.0,0.0,0.0,0.0,0.0,0.0,-4.5262250484513544e-05,-0.0003693697163386842,7.220797654437487e-05,0.0,0.0,0.0,0.0,0.0,0.0,0.0,0.0,0.0,0.02277882055388844,-0.026824541430570767,9.804527670610245,0.0,0.0,0.0,0.0,0.0,0.0,0.0,0.0,0.0
2025/05/19 01:45:15.783200949,1747611915,779125850,mA1/imu,0.7039538749198365,0.7102451918218001,2.861719494865649e-05,0.0008418197059378182,0.0,0.0,0.0,0.0,0.0,0.0,0.0,0.0,0.0,-0.0007819250354771601,-0.0004927714114222169,7.109537778221786e-05,0.0,0.0,0.0,0.0,0.0,0.0,0.0,0.0,0.0,0.022397174104148078,-0.06951826281229923,9.802778585151275,0.0,0.0,0.0,0.0,0.0,0.0,0.0,0.0,0.0
2025/05/19 01:45:15.822138509,1747611915,820409315,mA1/imu,0.7039576534169267,0.71024144609785,1.6040227643093383e-05,0.0008427237269861011,0.0,0.0,0.0,0.0,0.0,0.0,0.0,0.0,0.0,-0.0008282856762106092,-0.00020659037426283493,0.00035518892582585266,0.0,0.0,0.0,0.0,0.0,0.0,0.0,0.0,0.0,0.021089109678223344,-0.07445143302975614,9.805265656954955,0.0,0.0,0.0,0.0,0.0,0.0,0.0,0.0,0.0
2025/05/19 01:45:15.877637286,1747611915,871348967,mA1/imu,0.7039651036934362,0.7102340655468478,2.861282273572299e-06,0.000839589482122773,0.0,0.0,0.0,0.0,0.0,0.0,0.0,0.0,0.0,-0.0010884409395553773,-0.0003217213764459907,0.000448508648131861,0.0,0.0,0.0,0.0,0.0,0.0,0.0,0.0,0.0,0.02359738834306066,0.1688347075547879,9.803637128696828,0.0,0.0,0.0,0.0,0.0,0.0,0.0,0.0,0.0
2025/05/19 01:45:15.924856671,1747611915,923937800,mA1/imu,0.7039740231693044,0.7102252217128097,-1.1573531598337418e-05,0.0008420284244622963,0.0,0.0,0.0,0.0,0.0,0.0,0.0,0.0,0.0,0.0018757002416703444,-0.0005432982651156925,0.000534664802357185,0.0,0.0,0.0,0.0,0.0,0.0,0.0,0.0,0.0,0.023265336258626104,-0.49453518751322073,9.802652915383739,0.0,0.0,0.0,0.0,0.0,0.0,0.0,0.0,0.0
2025/05/19 01:45:15.975374406,1747611915,974087082,mA1/imu,0.7039833815268154,0.7102159183958366,-1.0335180910490298e-05,0.0008646874652046526,0.0,0.0,0.0,0.0,0.0,0.0,0.0,0.0,0.0,-0.001112913636452602,-0.0006593227415597436,0.0005090436090302407,0.0,0.0,0.0,0.0,0.0,0.0,0.0,0.0,0.0,0.023713283092522346,-0.06429115239189458,9.807402393086441,0.0,0.0,0.0,0.0,0.0,0.0,0.0,0.0,0.0
2025/05/19 01:45:16.27968273,1747611916,27210242,mA1/imu,0.7039918491554049,0.7102075157303,-2.83666439632962e-05,0.0008718476258705802,0.0,0.0,0.0,0.0,0.0,0.0,0.0,0.0,0.0,-0.000507489744287773,-0.0007251476682541321,0.0004519124718205029,0.0,0.0,0.0,0.0,0.0,0.0,0.0,0.0,0.0,0.023296931764586797,0.3619065377547767,9.807554596257196,0.0,0.0,0.0,0.0,0.0,0.0,0.0,0.0,0.0
2025/05/19 01:45:16.79939295,1747611916,78814997,mA1/imu,0.7039992351988738,0.7102001606955046,-2.7593072169287546e-05,0.0008987914679557282,0.0,0.0,0.0,0.0,0.0,0.0,0.0,0.0,0.0,-0.0002758138267640686,-0.0007456301460154373,0.0003914498430564435,0.0,0.0,0.0,0.0,0.0,0.0,0.0,0.0,0.0,0.02312090813118903,0.01783085936130928,9.809768315359161,0.0,0.0,0.0,0.0,0.0,0.0,0.0,0.0,0.0
2025/05/19 01:45:16.125108589,1747611916,121420015,mA1/imu,0.7040054739826404,0.7101939429961739,-2.7337684768268076e-05,0.0009247630378531873,0.0,0.0,0.0,0.0,0.0,0.0,0.0,0.0,0.0,-0.0019179039370818948,-0.0007079142339019485,0.0003268583025507082,0.0,0.0,0.0,0.0,0.0,0.0,0.0,0.0,0.0,0.023001011401595307,0.48014957584955603,9.81408531598601,0.0,0.0,0.0,0.0,0.0,0.0,0.0,0.0,0.0
2025/05/19 01:45:16.176682236,1747611916,175671599,mA1/imu,0.7040106388000928,0.7101887994421149,-3.308727702764052e-05,0.0009426072802605912,0.0,0.0,0.0,0.0,0.0,0.0,0.0,0.0,0.0,-0.0006775649522308228,-0.0006331934273932584,0.00026754135618761374,0.0,0.0,0.0,0.0,0.0,0.0,0.0,0.0,0.0,0.02274959220226657,0.6337558838566679,9.812677793348707,0.0,0.0,0.0,0.0,0.0,0.0,0.0,0.0,0.0
2025/05/19 01:45:16.229771568,1747611916,226860909,mA1/imu,0.7040154782395123,0.7101839622487456,-2.077091796723584e-05,0.0009724877543711493,0.0,0.0,0.0,0.0,0.0,0.0,0.0,0.0,0.0,-0.0006233831388985783,-0.00041226258231479875,0.00027890203928689923,0.0,0.0,0.0,0.0,0.0,0.0,0.0,0.0,0.0,0.018584157337093322,0.015398774605157225,9.813996628864324,0.0,0.0,0.0,0.0,0.0,0.0,0.0,0.0,0.0
2025/05/19 01:45:16.281989379,1747611916,278306221,mA1/imu,0.7040205337176608,0.7101789203464575,-7.426191380481605e-06,0.0009945573346778291,0.0,0.0,0.0,0.0,0.0,0.0,0.0,0.0,0.0,-0.001457312486746769,-0.00015098538971269275,0.0002908552835019108,0.0,0.0,0.0,0.0,0.0,0.0,0.0,0.0,0.0,0.018925896048002013,-0.040313075363312086,9.815354133045803,0.0,0.0,0.0,0.0,0.0,0.0,0.0,0.0,0.0
2025/05/19 01:45:16.332047449,1747611916,329733881,mA1/imu,0.7040258075537053,0.7101736697029465,9.060800544362217e-06,0.0010104835007196987,0.0,0.0,0.0,0.0,0.0,0.0,0.0,0.0,0.0,-0.0024318433159841992,0.0001289214892159572,0.0003033841633129098,0.0,0.0,0.0,0.0,0.0,0.0,0.0,0.0,0.0,0.018875861177479806,0.5218801753441763,9.817346115264364,0.0,0.0,0.0,0.0,0.0,0.0,0.0,0.0,0.0
2025/05/19 01:45:16.373146115,1747611916,372130808,mA1/imu,0.7040313098748473,0.7101682038448204,2.709253745842579e-05,0.0010179536937748553,0.0,0.0,0.0,0.0,0.0,0.0,0.0,0.0,0.0,-0.0019124962532495796,0.00041413628793995677,0.00031597601396731964,0.0,0.0,0.0,0.0,0.0,0.0,0.0,0.0,0.0,0.0183176102015135,0.555948509012083,9.81554318075977,0.0,0.0,0.0,0.0,0.0,0.0,0.0,0.0,0.0
2025/05/19 01:45:16.428262159,1747611916,426042111,mA1/imu,0.7040375138190815,0.7101620437277468,5.467436085910377e-05,0.001023618381453709,0.0,0.0,0.0,0.0,0.0,0.0,0.0,0.0,0.0,-0.0013448702922771575,0.0007462698988553037,0.0003658560498385611,0.0,0.0,0.0,0.0,0.0,0.0,0.0,0.0,0.0,0.01782755651206967,-0.15893295701825083,9.815380329823661,0.0,0.0,0.0,0.0,0.0,0.0,0.0,0.0,0.0
2025/05/19 01:45:16.479187083,1747611916,477102744,mA1/imu,0.7040441217556803,0.7101554941994083,8.456818751139252e-05,0.0010205527366832197,0.0,0.0,0.0,0.0,0.0,0.0,0.0,0.0,0.0,-7.457197087101191e-05,0.0010357783786706784,0.0003751640595525119,0.0,0.0,0.0,0.0,0.0,0.0,0.0,0.0,0.0,0.016334521830985105,-0.5891471735832238,9.814259634650826,0.0,0.0,0.0,0.0,0.0,0.0,0.0,0.0,0.0
2025/05/19 01:45:16.531866371,1747611916,528438411,mA1/imu,0.7040491939131351,0.7101504764049987,0.0001161233942970537,0.0010099145385168435,0.0,0.0,0.0,0.0,0.0,0.0,0.0,0.0,0.0,-0.0019041539377007372,0.001220439795696574,0.00014867557610919566,0.0,0.0,0.0,0.0,0.0,0.0,0.0,0.0,0.0,0.02572592066068901,0.5276611476206121,9.817714316899577,0.0,0.0,0.0,0.0,0.0,0.0,0.0,0.0,0.0
2025/05/19 01:45:16.582405280,1747611916,579314528,mA1/imu,0.7040504572251803,0.7101492420411758,0.0001468670248849937,0.0009930455352454716,0.0,0.0,0.0,0.0,0.0,0.0,0.0,0.0,0.0,0.00010920253958575295,0.001495478688960737,7.394440372789276e-05,0.0,0.0,0.0,0.0,0.0,0.0,0.0,0.0,0.0,0.008915524640494632,0.0413991768212361,9.81341472445737,0.0,0.0,0.0,0.0,0.0,0.0,0.0,0.0,0.0
2025/05/19 01:45:16.622147291,1747611916,621432082,mA1/imu,0.704049555763728,0.7101501512784728,0.00018430136977207217,0.0009755516719766153,0.0,0.0,0.0,0.0,0.0,0.0,0.0,0.0,0.0,-0.00010674169816603907,0.0014927133794253608,-0.00022465106206669803,0.0,0.0,0.0,0.0,0.0,0.0,0.0,0.0,0.0,0.019151984067550486,0.32860319408530697,9.814068136025716,0.0,0.0,0.0,0.0,0.0,0.0,0.0,0.0,0.0
2025/05/19 01:45:16.672576274,1747611916,671894638,mA1/imu,0.7040415059181967,0.71015814041256,0.00022192606339038566,0.0009614047197316221,0.0,0.0,0.0,0.0,0.0,0.0,0.0,0.0,0.0,0.0009461907550777192,0.0015078136005617932,-0.0005227541438791556,0.0,0.0,0.0,0.0,0.0,0.0,0.0,0.0,0.0,0.006412675026335066,-0.5417875951782698,9.809625113326344,0.0,0.0,0.0,0.0,0.0,0.0,0.0,0.0,0.0
2025/05/19 01:45:16.729611114,1747611916,727666205,mA1/imu,0.704029903993058,0.7101696572200112,0.00025752700558030566,0.0009412371532512057,0.0,0.0,0.0,0.0,0.0,0.0,0.0,0.0,0.0,-0.0006776379669191611,0.0014960114027117457,-0.0008191140296495162,0.0,0.0,0.0,0.0,0.0,0.0,0.0,0.0,0.0,0.01991727338958979,-0.04615575746765174,9.809338518782756,0.0,0.0,0.0,0.0,0.0,0.0,0.0,0.0,0.0
2025/05/19 01:45:16.780013039,1747611916,777628794,mA1/imu,0.7040105546771062,0.710188864193217,0.0002813652150010353,0.00091482938153496,0.0,0.0,0.0,0.0,0.0,0.0,0.0,0.0,0.0,-0.0007019699995707532,0.0014503542133068419,-0.0012729429058240442,0.0,0.0,0.0,0.0,0.0,0.0,0.0,0.0,0.0,0.011099660454407259,0.578288208814574,9.805455933425197,0.0,0.0,0.0,0.0,0.0,0.0,0.0,0.0,0.0
2025/05/19 01:45:16.830063743,1747611916,828960574,mA1/imu,0.7039870265136152,0.7102122035258828,0.0003137721391112103,0.0008910726532206011,0.0,0.0,0.0,0.0,0.0,0.0,0.0,0.0,0.0,8.60810327839179e-06,0.0016830785127361569,-0.001359811860816461,0.0,0.0,0.0,0.0,0.0,0.0,0.0,0.0,0.0,0.0016723364058820918,0.35892814546786517,9.806409455469055,0.0,0.0,0.0,0.0,0.0,0.0,0.0,0.0,0.0
2025/05/19 01:45:16.884589953,1747611916,879873415,mA1/imu,0.7039619198238549,0.7102371196302879,0.00034236738881450327,0.0008556411371024926,0.0,0.0,0.0,0.0,0.0,0.0,0.0,0.0,0.0,0.001665895189196539,0.0018788562243248535,-0.0014505397278409711,0.0,0.0,0.0,0.0,0.0,0.0,0.0,0.0,0.0,0.001243737978083104,-0.5353517425766173,9.804711356640018,0.0,0.0,0.0,0.0,0.0,0.0,0.0,0.0,0.0
2025/05/19 01:45:16.925321681,1747611916,924203329,mA1/imu,0.7039350392096582,0.7102637950273308,0.0003718018839950545,0.0008147451319750078,0.0,0.0,0.0,0.0,0.0,0.0,0.0,0.0,0.0,0.0015201825821326122,0.0020625568958830983,-0.0015558589136584404,0.0,0.0,0.0,0.0,0.0,0.0,0.0,0.0,0.0,-0.005172541405669374,-0.4433292832050994,9.804139975708209,0.0,0.0,0.0,0.0,0.0,0.0,0.0,0.0,0.0
2025/05/19 01:45:16.976888002,1747611916,975385183,mA1/imu,0.7039068995385227,0.710291721563686,0.0004015858706685648,0.0007653685044804072,0.0,0.0,0.0,0.0,0.0,0.0,0.0,0.0,0.0,0.002085269151993226,0.0023628740107684556,-0.00156841256908885,0.0,0.0,0.0,0.0,0.0,0.0,0.0,0.0,0.0,-0.00908697029495344,-0.5274210749012779,9.803254934087057,0.0,0.0,0.0,0.0,0.0,0.0,0.0,0.0,0.0
2025/05/19 01:45:17.27692343,1747611917,26631722,mA1/imu,0.703877845197639,0.7103205408145254,0.0004387919417457187,0.00071819114479508,0.0,0.0,0.0,0.0,0.0,0.0,0.0,0.0,0.0,0.0003827151200945145,0.002279204679769257,-0.0017471099584041175,0.0,0.0,0.0,0.0,0.0,0.0,0.0,0.0,0.0,-0.00411829604460299,-0.02545014344591651,9.802758626397226,0.0,0.0,0.0,0.0,0.0,0.0,0.0,0.0,0.0
2025/05/19 01:45:17.79305754,1747611917,77038885,mA1/imu,0.703846613970158,0.7103515241563993,0.0004649139554539575,0.0006633147351294709,0.0,0.0,0.0,0.0,0.0,0.0,0.0,0.0,0.0,-0.0010648921925302214,0.0023134862208906907,-0.001754722575848859,0.0,0.0,0.0,0.0,0.0,0.0,0.0,0.0,0.0,-0.006805727788691212,0.49941515264102154,9.804174919302426,0.0,0.0,0.0,0.0,0.0,0.0,0.0,0.0,0.0
2025/05/19 01:45:17.129457932,1747611917,127927024,mA1/imu,0.7038155415911068,0.7103823445606428,0.0004883083841445039,0.0006078702682803965,0.0,0.0,0.0,0.0,0.0,0.0,0.0,0.0,0.0,0.0005326549517312274,0.002188044556997014,-0.001745245402151599,0.0,0.0,0.0,0.0,0.0,0.0,0.0,0.0,0.0,-0.005653313872151888,-0.028895450449223526,9.80643154974386,0.0,0.0,0.0,0.0,0.0,0.0,0.0,0.0,0.0
2025/05/19 01:45:17.183253557,1747611917,178672441,mA1/imu,0.7037846368220506,0.7104129988007384,0.0005033943421108559,0.0005501839080734952,0.0,0.0,0.0,0.0,0.0,0.0,0.0,0.0,0.0,0.0019054677346389088,0.0019617783323914234,-0.0017361028237565324,0.0,0.0,0.0,0.0,0.0,0.0,0.0,0.0,0.0,-0.005600135812818215,-0.37302395115261167,9.806595209533809,0.0,0.0,0.0,0.0,0.0,0.0,0.0,0.0,0.0
2025/05/19 01:45:17.224193568,1747611917,221576271,mA1/imu,0.7037577895486039,0.7104396179378235,0.0005247439329691669,0.0004975518336314082,0.0,0.0,0.0,0.0,0.0,0.0,0.0,0.0,0.0,0.00012249055342779415,0.002297802560193522,-0.0012694842437531986,0.0,0.0,0.0,0.0,0.0,0.0,0.0,0.0,0.0,-0.010302856710698331,0.565752209879409,9.80775642597341,0.0,0.0,0.0,0.0,0.0,0.0,0.0,0.0,0.0
2025/05/19 01:45:17.273037461,1747611917,271114538,mA1/imu,0.7037358899104965,0.7104613339074425,0.0005421574197927748,0.0004431023260896291,0.0,0.0,0.0,0.0,0.0,0.0,0.0,0.0,0.0,0.0003088475252229751,0.001822565631990305,-0.001226093902158208,0.0,0.0,0.0,0.0,0.0,0.0,0.0,0.0,0.0,-0.0033193127929430745,0.25706644147419044,9.80937118021581,0.0,0.0,0.0,0.0,0.0,0.0,0.0,0.0,0.0
2025/05/19 01:45:17.325696511,1747611917,324411168,mA1/imu,0.7037142393837732,0.7104828029018487,0.0005463621076398104,0.00039693538263393827,0.0,0.0,0.0,0.0,0.0,0.0,0.0,0.0,0.0,0.0011876865435002757,0.0011683539995703365,-0.0012141064886807861,0.0,0.0,0.0,0.0,0.0,0.0,0.0,0.0,0.0,-0.0026819186400155477,0.1198844215218271,9.810121704972424,0.0,0.0,0.0,0.0,0.0,0.0,0.0,0.0,0.0
2025/05/19 01:45:17.376864229,1747611917,375089870,mA1/imu,0.7036927845388129,0.7105040714422389,0.0005426464135410695,0.000367405611774747,0.0,0.0,0.0,0.0,0.0,0.0,0.0,0.0,0.0,0.0003755573636598218,0.0004442792000745193,-0.0012035733608234957,0.0,0.0,0.0,0.0,0.0,0.0,0.0,0.0,0.0,-0.0020848870111485904,0.5895220492438042,9.811845754375184,0.0,0.0,0.0,0.0,0.0,0.0,0.0,0.0,0.0
2025/05/19 01:45:17.429315495,1747611917,427487887,mA1/imu,0.7036704530769479,0.7105262055579624,0.0005257395217797671,0.0003581617546067681,0.0,0.0,0.0,0.0,0.0,0.0,0.0,0.0,0.0,0.0004032599466764199,-0.0006612685139712907,-0.0012788853881088651,0.0,0.0,0.0,0.0,0.0,0.0,0.0,0.0,0.0,0.009038818381690083,-0.027072024803346802,9.813171594236957,0.0,0.0,0.0,0.0,0.0,0.0,0.0,0.0,0.0
2025/05/19 01:45:17.482329960,1747611917,479999859,mA1/imu,0.7036477144723543,0.7105487464438296,0.00048821990923231083,0.0003667236763999558,0.0,0.0,0.0,0.0,0.0,0.0,0.0,0.0,0.0,0.0006440031188845142,-0.0017053898521148805,-0.001278130373121504,0.0,0.0,0.0,0.0,0.0,0.0,0.0,0.0,0.0,0.0077480078123978256,-0.00027323988186208487,9.814519665620686,0.0,0.0,0.0,0.0,0.0,0.0,0.0,0.0,0.0
2025/05/19 01:45:17.526960631,1747611917,523524192,mA1/imu,0.7036263814234354,0.7105698874248133,0.00044000553179582514,0.0003960368445323193,0.0,0.0,0.0,0.0,0.0,0.0,0.0,0.0,0.0,0.0004883002743326583,-0.002363150330825161,-0.0010629075669468275,0.0,0.0,0.0,0.0,0.0,0.0,0.0,0.0,0.0,-0.014400824121537335,0.005708242119336232,9.814787726042717,0.0,0.0,0.0,0.0,0.0,0.0,0.0,0.0,0.0
2025/05/19 01:45:17.576795684,1747611917,575021191,mA1/imu,0.7036130261728324,0.7105831233399758,0.0003866302932787662,0.0004298154608815826,0.0,0.0,0.0,0.0,0.0,0.0,0.0,0.0,0.0,0.0004886528371566125,-0.002701856242480294,-0.0006539689203764476,0.0,0.0,0.0,0.0,0.0,0.0,0.0,0.0,0.0,0.012593005530739177,0.010036975919762514,9.815421318970014,0.0,0.0,0.0,0.0,0.0,0.0,0.0,0.0,0.0
2025/05/19 01:45:17.628142626,1747611917,627339797,mA1/imu,0.7036053615897889,0.7105907097072137,0.0003308789201067412,0.0004784757472198379,0.0,0.0,0.0,0.0,0.0,0.0,0.0,0.0,0.0,0.0020477243670698796,-0.00287296013536369,-0.00012377581810077892,0.0,0.0,0.0,0.0,0.0,0.0,0.0,0.0,0.0,-0.02649411474010508,-0.48857463710030824,9.813827981062476,0.0,0.0,0.0,0.0,0.0,0.0,0.0,0.0,0.0
2025/05/19 01:45:17.682468136,1747611917,679163303,mA1/imu,0.7036106985179662,0.7105854096994676,0.00028521501038206284,0.0005283045500272832,0.0,0.0,0.0,0.0,0.0,0.0,0.0,0.0,0.0,-0.0003613036864086622,-0.002851106424021646,0.00043138361192013807,0.0,0.0,0.0,0.0,0.0,0.0,0.0,0.0,0.0,0.015911844443758524,-0.027219046509320367,9.816630086067619,0.0,0.0,0.0,0.0,0.0,0.0,0.0,0.0,0.0
2025/05/19 01:45:17.726303522,1747611917,723258073,mA1/imu,0.7036210616639518,0.7105751205459133,0.00023487423179706444,0.000586922609543212,0.0,0.0,0.0,0.0,0.0,0.0,0.0,0.0,0.0,-0.0012853440629443142,-0.003148700834777823,0.0007381451547776989,0.0,0.0,0.0,0.0,0.0,0.0,0.0,0.0,0.0,0.012392161149215136,-0.09434873482707888,9.814872260578072,0.0,0.0,0.0,0.0,0.0,0.0,0.0,0.0,0.0
2025/05/19 01:45:17.779473723,1747611917,777202988,mA1/imu,0.7036360037934206,0.7105602931402387,0.00017059839944195862,0.0006441073430321599,0.0,0.0,0.0,0.0,0.0,0.0,0.0,0.0,0.0,-0.0018845420716446521,-0.0035795127751772366,0.0009047067549147848,0.0,0.0,0.0,0.0,0.0,0.0,0.0,0.0,0.0,0.01578139131823986,0.5237337643522632,9.811898615695187,0.0,0.0,0.0,0.0,0.0,0.0,0.0,0.0,0.0
2025/05/19 01:45:17.829678637,1747611917,828270012,mA1/imu,0.7036531683063307,0.7105432361546138,0.00010832314120941397,0.0007187165563454737,0.0,0.0,0.0,0.0,0.0,0.0,0.0,0.0,0.0,0.00033367110563935193,-0.004026096676254208,0.0009674457900388548,0.0,0.0,0.0,0.0,0.0,0.0,0.0,0.0,0.0,0.019463093592485547,0.05707257177122186,9.813467620710208,0.0,0.0,0.0,0.0,0.0,0.0,0.0,0.0,0.0
2025/05/19 01:45:17.881956218,1747611917,879035769,mA1/imu,0.7036701406736096,0.7105263340528553,5.562340255466151e-05,0.0008115712106899458,0.0,0.0,0.0,0.0,0.0,0.0,0.0,0.0,0.0,-0.0011783289912810327,-0.004158890672927356,0.0009608596327238501,0.0,0.0,0.0,0.0,0.0,0.0,0.0,0.0,0.0,0.015882923131741576,-0.6633526977425467,9.810631181548832,0.0,0.0,0.0,0.0,0.0,0.0,0.0,0.0,0.0
2025/05/19 01:45:17.924109417,1747611917,922110299,mA1/imu,0.703687765892411,0.7105087943670291,-1.5576112239854456e-05,0.0008837521387774488,0.0,0.0,0.0,0.0,0.0,0.0,0.0,0.0,0.0,-0.00030527741314860914,-0.003911980526082486,0.0010353469146196757,0.0,0.0,0.0,0.0,0.0,0.0,0.0,0.0,0.0,0.009817943175589063,0.037628529399692495,9.809538941077582,0.0,0.0,0.0,0.0,0.0,0.0,0.0,0.0,0.0
2025/05/19 01:45:17.972976787,1747611917,970637495,mA1/imu,0.7037066074116854,0.7104900160486712,-5.883660814318001e-05,0.0009717605406976641,0.0,0.0,0.0,0.0,0.0,0.0,0.0,0.0,0.0,0.00023675609951085677,-0.003593702047219169,0.0010662361788520518,0.0,0.0,0.0,0.0,0.0,0.0,0.0,0.0,0.0,0.01603903768588747,-0.05589728334361127,9.80798043115513,0.0,0.0,0.0,0.0,0.0,0.0,0.0,0.0,0.0
2025/05/19 01:45:18.26038486,1747611918,25015079,mA1/imu,0.7037260871989933,0.7104706091395552,-9.696970966378734e-05,0.001048017814649423,0.0,0.0,0.0,0.0,0.0,0.0,0.0,0.0,0.0,-0.0024794304275685495,-0.0029533368089406354,0.0011473904703790858,0.0,0.0,0.0,0.0,0.0,0.0,0.0,0.0,0.0,0.008967853593800234,0.5308822930714717,9.80596468630063,0.0,0.0,0.0,0.0,0.0,0.0,0.0,0.0,0.0
2025/05/19 01:45:18.80563917,1747611918,79081024,mA1/imu,0.7037471062884565,0.7104496951708488,-0.00012822347436623218,0.001106607885733972,0.0,0.0,0.0,0.0,0.0,0.0,0.0,0.0,0.0,-0.0009036269734909686,-0.002268093831013508,0.001191315043868023,0.0,0.0,0.0,0.0,0.0,0.0,0.0,0.0,0.0,0.01541312042392742,0.37054913822842156,9.80706633477155,0.0,0.0,0.0,0.0,0.0,0.0,0.0,0.0,0.0
2025/05/19 01:45:18.125168789,1747611918,123876155,mA1/imu,0.7037684215534568,0.7104284889486322,-0.00013586382792411225,0.0011629511336545021,0.0,0.0,0.0,0.0,0.0,0.0,0.0,0.0,0.0,-0.0008710522520511631,-0.0015047835648995696,0.0012101377866374538,0.0,0.0,0.0,0.0,0.0,0.0,0.0,0.0,0.0,0.015175073202717635,0.012389344166642516,9.804245757857185,0.0,0.0,0.0,0.0,0.0,0.0,0.0,0.0,0.0
2025/05/19 01:45:18.178226576,1747611918,176292955,mA1/imu,0.7037900761852379,0.7104069771163181,-0.00013433943185741054,0.0011989497692975984,0.0,0.0,0.0,0.0,0.0,0.0,0.0,0.0,0.0,-0.0016167883208204074,-0.0006325064872783173,0.0012285404007379387,0.0,0.0,0.0,0.0,0.0,0.0,0.0,0.0,0.0,0.015349432125803596,-0.045588255296219,9.804538393996632,0.0,0.0,0.0,0.0,0.0,0.0,0.0,0.0,0.0
2025/05/19 01:45:18.224442859,1747611918,221523734,mA1/imu,0.7038117831539497,0.7103854489836493,-0.0001225101281405955,0.001213572093198289,0.0,0.0,0.0,0.0,0.0,0.0,0.0,0.0,0.0,-0.0014195962963266609,0.0003069384720789484,0.001202658849807798,0.0,0.0,0.0,0.0,0.0,0.0,0.0,0.0,0.0,0.011605928890474869,-0.16067729617109952,9.805201718431503,0.0,0.0,0.0,0.0,0.0,0.0,0.0,0.0,0.0
2025/05/19 01:45:18.272689654,1747611918,271608136,mA1/imu,0.7038328954898447,0.7103645392171304,-9.416833143237866e-05,0.0012115203426415317,0.0,0.0,0.0,0.0,0.0,0.0,0.0,0.0,0.0,-0.0014061421809868364,0.0012094268636003184,0.001193271873472149,0.0,0.0,0.0,0.0,0.0,0.0,0.0,0.0,0.0,0.014520758147741526,-0.046262650488555324,9.80578604204085,0.0,0.0,0.0,0.0,0.0,0.0,0.0,0.0,0.0
2025/05/19 01:45:18.325087534,1747611918,324473583,mA1/imu,0.7038541903563802,0.7103434811177475,-5.632947639370013e-05,0.0011892763661757004,0.0,0.0,0.0,0.0,0.0,0.0,0.0,0.0,0.0,-0.0023140573464012167,0.002017244462866771,0.0012043080217737335,0.0,0.0,0.0,0.0,0.0,0.0,0.0,0.0,0.0,0.015914593892689167,0.5049281219866204,9.806302858665482,0.0,0.0,0.0,0.0,0.0,0.0,0.0,0.0,0.0
2025/05/19 01:45:18.377349772,1747611918,376007063,mA1/imu,0.7038756909880933,0.7103222485821861,-1.331318993882339e-05,0.0011465722568628025,0.0,0.0,0.0,0.0,0.0,0.0,0.0,0.0,0.0,0.00019902433233700867,0.002686656928529875,0.001214902262197326,0.0,0.0,0.0,0.0,0.0,0.0,0.0,0.0,0.0,0.015205085306423864,0.0390184959361596,9.805993773455475,0.0,0.0,0.0,0.0,0.0,0.0,0.0,0.0,0.0
2025/05/19 01:45:18.428764306,1747611918,428070756,mA1/imu,0.7038973934334555,0.7103008221472857,4.156716770690723e-05,0.001095375117312712,0.0,0.0,0.0,0.0,0.0,0.0,0.0,0.0,0.0,0.0004375247939769518,0.0031802349308382052,0.001227631716270058,0.0,0.0,0.0,0.0,0.0,0.0,0.0,0.0,0.0,0.016308573383048832,0.32616381958484586,9.808216977713885,0.0,0.0,0.0,0.0,0.0,0.0,0.0,0.0,0.0
2025/05/19 01:45:18.473491719,1747611918,470457380,mA1/imu,0.7039193184050593,0.7102791759271098,0.00010266764787362787,0.0010367641084112393,0.0,0.0,0.0,0.0,0.0,0.0,0.0,0.0,0.0,0.0009737173809357821,0.003483206120141467,0.0012403158203934002,0.0,0.0,0.0,0.0,0.0,0.0,0.0,0.0,0.0,0.017327907136784105,0.054328973750540875,9.808769733133223,0.0,0.0,0.0,0.0,0.0,0.0,0.0,0.0,0.0
2025/05/19 01:45:18.524747665,1747611918,523153822,mA1/imu,0.7039413196904868,0.7102574535080182,0.00016190016699416685,0.0009705447219346668,0.0,0.0,0.0,0.0,0.0,0.0,0.0,0.0,0.0,0.0004169597994589941,0.003524961700502949,0.0012369842136530044,0.0,0.0,0.0,0.0,0.0,0.0,0.0,0.0,0.0,0.023408709456477262,-0.029152865715657512,9.809925676849279,0.0,0.0,0.0,0.0,0.0,0.0,0.0,0.0,0.0
2025/05/19 01:45:18.575398167,1747611918,573507931,mA1/imu,0.7039639905185506,0.7102350650396084,0.00021092970499636185,0.0008988604123143172,0.0,0.0,0.0,0.0,0.0,0.0,0.0,0.0,0.0,0.0005533718201504776,0.003312629246941273,0.0013147528009978383,0.0,0.0,0.0,0.0,0.0,0.0,0.0,0.0,0.0,0.022051437417589508,-0.6316885200305058,9.810875826663027,0.0,0.0,0.0,0.0,0.0,0.0,0.0,0.0,0.0
2025/05/19 01:45:18.628321357,1747611918,627000948,mA1/imu,0.7039884532280035,0.710210887743441,0.00025064576249536445,0.0008305594610275496,0.0,0.0,0.0,0.0,0.0,0.0,0.0,0.0,0.0,0.0008131828246582809,0.0028510751162090136,0.0014096246012758038,0.0,0.0,0.0,0.0,0.0,0.0,0.0,0.0,0.0,0.02367692855618659,-0.28198520324161347,9.81284315775868,0.0,0.0,0.0,0.0,0.0,0.0,0.0,0.0,0.0
2025/05/19 01:45:18.671197221,1747611918,669899549,mA1/imu,0.704013618096443,0.7101860009630905,0.0002783075859289612,0.00076949054348599,0.0,0.0,0.0,0.0,0.0,0.0,0.0,0.0,0.0,0.001183102054859305,0.0022789627129401776,0.001422238291886148,0.0,0.0,0.0,0.0,0.0,0.0,0.0,0.0,0.0,0.022693903214911722,-0.36167083123026483,9.812836256657649,0.0,0.0,0.0,0.0,0.0,0.0,0.0,0.0,0.0
2025/05/19 01:45:18.723856433,1747611918,722506921,mA1/imu,0.7040390368128423,0.710160848983415,0.00029356538717835933,0.000719050877066776,0.0,0.0,0.0,0.0,0.0,0.0,0.0,0.0,0.0,0.0017799002149103869,0.0015619879176404221,0.0014381738140424398,0.0,0.0,0.0,0.0,0.0,0.0,0.0,0.0,0.0,0.023768806249306215,-0.5734568469757862,9.813809555786298,0.0,0.0,0.0,0.0,0.0,0.0,0.0,0.0,0.0
2025/05/19 01:45:18.776425638,1747611918,773701221,mA1/imu,0.7040647531438375,0.710135387948992,0.0002959152008618084,0.0006830792309335811,0.0,0.0,0.0,0.0,0.0,0.0,0.0,0.0,0.0,0.0010516448803033845,0.000766404949807448,0.0014544317961777064,0.0,0.0,0.0,0.0,0.0,0.0,0.0,0.0,0.0,0.02360505676140448,-0.02296021325136991,9.815430371713594,0.0,0.0,0.0,0.0,0.0,0.0,0.0,0.0,0.0
2025/05/19 01:45:18.827557189,1747611918,826712842,mA1/imu,0.7040923375941173,0.7101080663672057,0.0002861481450984797,0.0006575262113241124,0.0,0.0,0.0,0.0,0.0,0.0,0.0,0.0,0.0,0.000954677009488874,0.0003141266342669825,0.0016561725534060003,0.0,0.0,0.0,0.0,0.0,0.0,0.0,0.0,0.0,0.018541111910956587,0.00044123805666260695,9.815685450045988,0.0,0.0,0.0,0.0,0.0,0.0,0.0,0.0,0.0
2025/05/19 01:45:18.877223021,1747611918,876512347,mA1/imu,0.7041221821073173,0.7100784927226764,0.000267564463715835,0.000644396135779402,0.0,0.0,0.0,0.0,0.0,0.0,0.0,0.0,0.0,0.0008580046789344076,-0.00048177198671547303,0.0016868188615748354,0.0,0.0,0.0,0.0,0.0,0.0,0.0,0.0,0.0,0.023366892802388725,0.0002301232876719926,9.815237127721073,0.0,0.0,0.0,0.0,0.0,0.0,0.0,0.0,0.0
2025/05/19 01:45:18.932840447,1747611918,931687795,mA1/imu,0.7041523340436007,0.7100486013699266,0.00023610232977908864,0.0006468456155189209,0.0,0.0,0.0,0.0,0.0,0.0,0.0,0.0,0.0,0.0007906495686667102,-0.0012642354729387804,0.0017052710740683805,0.0,0.0,0.0,0.0,0.0,0.0,0.0,0.0,0.0,0.022621242811700613,0.0035592364808270313,9.814460904597114,0.0,0.0,0.0,0.0,0.0,0.0,0.0,0.0,0.0
2025/05/19 01:45:18.980031814,1747611918,978247157,mA1/imu,0.7041828318404875,0.7100183504331621,0.00019526734546873763,0.000665777700514576,0.0,0.0,0.0,0.0,0.0,0.0,0.0,0.0,0.0,0.00015716988025685723,-0.0019551764638440147,0.0017248970484584313,0.0,0.0,0.0,0.0,0.0,0.0,0.0,0.0,0.0,0.022258458241878325,0.23721617435365197,9.813731582535238,0.0,0.0,0.0,0.0,0.0,0.0,0.0,0.0,0.0
2025/05/19 01:45:19.22856707,1747611919,22119311,mA1/imu,0.7042137137602325,0.7099877078098792,0.00014076448991639828,0.0006930340925818507,0.0,0.0,0.0,0.0,0.0,0.0,0.0,0.0,0.0,0.0006198008411958391,-0.0025157301824749747,0.0017477589319409173,0.0,0.0,0.0,0.0,0.0,0.0,0.0,0.0,0.0,0.020578911493939263,0.4038679521874756,9.812343596752786,0.0,0.0,0.0,0.0,0.0,0.0,0.0,0.0,0.0
2025/05/19 01:45:19.75960104,1747611919,73006301,mA1/imu,0.7042449935521667,0.709956644765153,8.74062630478095e-05,0.0007375436666085955,0.0,0.0,0.0,0.0,0.0,0.0,0.0,0.0,0.0,0.0007321902273041841,-0.0029120347719868403,0.0017708242888782243,0.0,0.0,0.0,0.0,0.0,0.0,0.0,0.0,0.0,0.020102355558650697,0.03422432864742874,9.808988001102817,0.0,0.0,0.0,0.0,0.0,0.0,0.0,0.0,0.0
2025/05/19 01:45:19.129704109,1747611919,128744585,mA1/imu,0.704276579388763,0.7099252624265491,3.023852595319921e-05,0.0007877681704662902,0.0,0.0,0.0,0.0,0.0,0.0,0.0,0.0,0.0,0.0009774271388347058,-0.0030749044671050463,0.001762627288783204,0.0,0.0,0.0,0.0,0.0,0.0,0.0,0.0,0.0,0.014925924055736521,0.061933644543267725,9.80699811486333,0.0,0.0,0.0,0.0,0.0,0.0,0.0,0.0,0.0
2025/05/19 01:45:19.181483564,1747611919,179336316,mA1/imu,0.7043071970274742,0.7098948192734565,-1.8350178330623637e-05,0.0008470225969835102,0.0,0.0,0.0,0.0,0.0,0.0,0.0,0.0,0.0,-0.0005876597844780806,-0.00302613292231847,0.0017246152241538726,0.0,0.0,0.0,0.0,0.0,0.0,0.0,0.0,0.0,0.017136729055824643,-0.04306192048120866,9.807522771172625,0.0,0.0,0.0,0.0,0.0,0.0,0.0,0.0,0.0
2025/05/19 01:45:19.223491371,1747611919,222053935,mA1/imu,0.7043379457000984,0.7098642442557473,-6.973549447213134e-05,0.0008989500223133349,0.0,0.0,0.0,0.0,0.0,0.0,0.0,0.0,0.0,-0.00045142708006517407,-0.002823906208452121,0.0017383197562714228,0.0,0.0,0.0,0.0,0.0,0.0,0.0,0.0,0.0,0.01675444283239637,-0.008028940778113522,9.806728986217616,0.0,0.0,0.0,0.0,0.0,0.0,0.0,0.0,0.0
2025/05/19 01:45:19.276800016,1747611919,273132473,mA1/imu,0.7043689256906905,0.7098334300074368,-0.00010971095176563354,0.0009519079401633229,0.0,0.0,0.0,0.0,0.0,0.0,0.0,0.0,0.0,-0.0002205338900439587,-0.0024695194521568093,0.0017522000487480555,0.0,0.0,0.0,0.0,0.0,0.0,0.0,0.0,0.0,0.016018897102248478,0.17002075536692585,9.806220268463969,0.0,0.0,0.0,0.0,0.0,0.0,0.0,0.0,0.0
2025/05/19 01:45:19.325549454,1747611919,324768297,mA1/imu,0.7044018905395552,0.7098006488786383,-0.00013598121266762128,0.0009984812841093492,0.0,0.0,0.0,0.0,0.0,0.0,0.0,0.0,0.0,0.0009166387168634127,-0.001682005303774654,0.0020037300861270348,0.0,0.0,0.0,0.0,0.0,0.0,0.0,0.0,0.0,-0.0006562162339801697,-0.49395529356035345,9.805342505796377,0.0,0.0,0.0,0.0,0.0,0.0,0.0,0.0,0.0
2025/05/19 01:45:19.377667322,1747611919,376558324,mA1/imu,0.7044389201239437,0.7097638452184141,-0.00014326567578202908,0.0010350412212185975,0.0,0.0,0.0,0.0,0.0,0.0,0.0,0.0,0.0,-0.0006801104975463049,-0.0010166322813184778,0.0021005391177902465,0.0,0.0,0.0,0.0,0.0,0.0,0.0,0.0,0.0,0.016732338304652674,0.009466464813273305,9.804265271289156,0.0,0.0,0.0,0.0,0.0,0.0,0.0,0.0,0.0
2025/05/19 01:45:19.431904398,1747611919,429685707,mA1/imu,0.7044761552854494,0.7097268469217897,-0.00013666532749861808,0.0010633509646590087,0.0,0.0,0.0,0.0,0.0,0.0,0.0,0.0,0.0,-0.0011223025715582137,-0.00032739707521037053,0.0020836460863952718,0.0,0.0,0.0,0.0,0.0,0.0,0.0,0.0,0.0,0.013179617171235723,-0.018242786358510517,9.804442861589884,0.0,0.0,0.0,0.0,0.0,0.0,0.0,0.0,0.0
2025/05/19 01:45:19.472043595,1747611919,470038776,mA1/imu,0.704513081488345,0.7096901815036214,-0.00012524485880103088,0.0010717289203719988,0.0,0.0,0.0,0.0,0.0,0.0,0.0,0.0,0.0,-0.0017568325594699448,0.00035512354586912485,0.0020890635703167187,0.0,0.0,0.0,0.0,0.0,0.0,0.0,0.0,0.0,0.01574077064040158,0.5742662373087528,9.806106596340474,0.0,0.0,0.0,0.0,0.0,0.0,0.0,0.0,0.0
2025/05/19 01:45:19.528126600,1747611919,526200426,mA1/imu,0.704548465005958,0.7096550496373027,-9.691680283070172e-05,0.0010777704572626156,0.0,0.0,0.0,0.0,0.0,0.0,0.0,0.0,0.0,-0.00030658781996496234,0.000717297946138511,0.0018306017882971765,0.0,0.0,0.0,0.0,0.0,0.0,0.0,0.0,0.0,0.028710967216807,0.03447419797298611,9.808073226316672,0.0,0.0,0.0,0.0,0.0,0.0,0.0,0.0,0.0
2025/05/19 01:45:19.578020636,1747611919,577326517,mA1/imu,0.7045784874663692,0.7096252495823889,-6.343990956478513e-05,0.0010752349108995916,0.0,0.0,0.0,0.0,0.0,0.0,0.0,0.0,0.0,-6.0120365340851254e-05,0.0012510016346787662,0.0016529456902840572,0.0,0.0,0.0,0.0,0.0,0.0,0.0,0.0,0.0,0.01510351337880981,0.061694782844261796,9.806105910987693,0.0,0.0,0.0,0.0,0.0,0.0,0.0,0.0,0.0
2025/05/19 01:45:19.624942763,1747611919,624029007,mA1/imu,0.7046042645374995,0.7095996736360934,-2.334688379894683e-05,0.0010644369601843645,0.0,0.0,0.0,0.0,0.0,0.0,0.0,0.0,0.0,0.0003771298812858444,0.0014498140845595816,0.0012234241233507318,0.0,0.0,0.0,0.0,0.0,0.0,0.0,0.0,0.0,0.044667309078308175,0.08386910855018437,9.810480940276587,0.0,0.0,0.0,0.0,0.0,0.0,0.0,0.0,0.0
