time,header_stamp_secs,header_stamp_nsecs,header_frame_id,orientation_x,orientation_y,orientation_z,orientation_w,orientation_covariance_0,orientation_covariance_1,orientation_covariance_2,orientation_covariance_3,orientation_covariance_4,orientation_covariance_5,orientation_covariance_6,orientation_covariance_7,orientation_covariance_8,angular_velocity_x,angular_velocity_y,angular_velocity_z,angular_velocity_covariance_0,angular_velocity_covariance_1,angular_velocity_covariance_2,angular_velocity_covariance_3,angular_velocity_covariance_4,angular_velocity_covariance_5,angular_velocity_covariance_6,angular_velocity_covariance_7,angular_velocity_covariance_8,linear_acceleration_x,linear_acceleration_y,linear_acceleration_z,linear_acceleration_covariance_0,linear_acceleration_covariance_1,linear_acceleration_covariance_2,linear_acceleration_covariance_3,linear_acceleration_covariance_4,linear_acceleration_covariance_5,linear_acceleration_covariance_6,linear_acceleration_covariance_7,linear_acceleration_covariance_8
2025/05/25 16:43:53.616744696,1748184233,614219946,mA1/imu,0.7050322087170615,-0.7091747195830912,-0.0008557321421517332,0.00026362527707373665,0.0,0.0,0.0,0.0,0.0,0.0,0.0,0.0,0.0,0.0006959683103159776,-0.0001657047566722195,1.4995869169884658e-05,0.0,0.0,0.0,0.0,0.0,0.0,0.0,0.0,0.0,0.008066663034017636,0.03179256920156227,9.811199143149288,0.0,0.0,0.0,0.0,0.0,0.0,0.0,0.0,0.0
2025/05/25 16:43:53.682460729,1748184233,666015891,mA1/imu,0.7050320985364551,-0.7091748218581125,-0.0008611115968894547,0.00026563624413051423,0.0,0.0,0.0,0.0,0.0,0.0,0.0,0.0,0.0,-0.0009091325907782167,-2.8795700720562847e-05,-4.194743171427383e-06,0.0,0.0,0.0,0.0,0.0,0.0,0.0,0.0,0.0,0.005583394953378774,0.5537104756808022,9.810285499442346,0.0,0.0,0.0,0.0,0.0,0.0,0.0,0.0,0.0
2025/05/25 16:43:53.745313295,1748184233,719224159,mA1/imu,0.7050318838361271,-0.7091750299255547,-0.0008646493212671944,0.0002684885870675647,0.0,0.0,0.0,0.0,0.0,0.0,0.0,0.0,0.0,-0.0007471372073304184,-2.763143256480918e-05,5.4513647373213146e-05,0.0,0.0,0.0,0.0,0.0,0.0,0.0,0.0,0.0,0.010398558314584359,-0.058266326182304935,9.80922519617884,0.0,0.0,0.0,0.0,0.0,0.0,0.0,0.0,0.0
2025/05/25 16:43:53.774171909,1748184233,772384932,mA1/imu,0.7050293883844192,-0.709177514268231,-0.0008632267329275288,0.00026383751160601043,0.0,0.0,0.0,0.0,0.0,0.0,0.0,0.0,0.0,0.0008810209472474699,-0.00012305591815711962,0.00019828742861205682,0.0,0.0,0.0,0.0,0.0,0.0,0.0,0.0,0.0,0.011855961326942853,-0.5822628406106909,9.811294757392332,0.0,0.0,0.0,0.0,0.0,0.0,0.0,0.0,0.0
2025/05/25 16:43:53.825698872,1748184233,823658157,mA1/imu,0.7050243790475899,-0.7091824971818125,-0.0008627448596624486,0.00025750890444680547,0.0,0.0,0.0,0.0,0.0,0.0,0.0,0.0,0.0,0.0007881645232417076,-0.00020244898931229749,0.0003371090170856981,0.0,0.0,0.0,0.0,0.0,0.0,0.0,0.0,0.0,0.0119470643537293,0.03584906675215648,9.81224068411195,0.0,0.0,0.0,0.0,0.0,0.0,0.0,0.0,0.0
2025/05/25 16:43:53.870175738,1748184233,867779854,mA1/imu,0.7050133787006807,-0.709193433373272,-0.0008613052088477993,0.0002608957991273079,0.0,0.0,0.0,0.0,0.0,0.0,0.0,0.0,0.0,-0.0007136160600316628,0.00033924888235162715,0.0008051169585438381,0.0,0.0,0.0,0.0,0.0,0.0,0.0,0.0,0.0,-0.007908921538930604,0.5676397758763679,9.80981974475472,0.0,0.0,0.0,0.0,0.0,0.0,0.0,0.0,0.0
2025/05/25 16:43:53.937676190,1748184233,926163227,mA1/imu,0.7049943047683306,-0.7092124051360301,-0.0008492416569696112,0.0002709870726599181,0.0,0.0,0.0,0.0,0.0,0.0,0.0,0.0,0.0,-0.00048738355396809896,0.0008249273886607651,0.0012576145382640438,0.0,0.0,0.0,0.0,0.0,0.0,0.0,0.0,0.0,-0.007815290473083818,-0.05055065519872331,9.80904723040771,0.0,0.0,0.0,0.0,0.0,0.0,0.0,0.0,0.0
2025/05/25 16:43:53.973816250,1748184233,968590530,mA1/imu,0.7049674646191807,-0.709239111482702,-0.0008230373166821014,0.0002813915548676752,0.0,0.0,0.0,0.0,0.0,0.0,0.0,0.0,0.0,0.0011719423236085655,0.0011742176301262261,0.0016867339846969743,0.0,0.0,0.0,0.0,0.0,0.0,0.0,0.0,0.0,-0.003283423161673485,-0.5775470036816253,9.811301237709717,0.0,0.0,0.0,0.0,0.0,0.0,0.0,0.0,0.0
2025/05/25 16:43:54.30110668,1748184234,22723185,mA1/imu,0.7049331707688571,-0.7092732305896918,-0.0007885475410855941,0.00029548502927216716,0.0,0.0,0.0,0.0,0.0,0.0,0.0,0.0,0.0,0.0012199165735823684,0.00149773037439681,0.0020958204670252552,0.0,0.0,0.0,0.0,0.0,0.0,0.0,0.0,0.0,-0.005476297303310409,0.0492749657557781,9.811894261029504,0.0,0.0,0.0,0.0,0.0,0.0,0.0,0.0,0.0
2025/05/25 16:43:54.76117373,1748184234,67089556,mA1/imu,0.7048963298410301,-0.7093098633093212,-0.0007635561420969211,0.0003145962103183366,0.0,0.0,0.0,0.0,0.0,0.0,0.0,0.0,0.0,0.00046600258730401025,0.0010563554477901278,0.002064297974526862,0.0,0.0,0.0,0.0,0.0,0.0,0.0,0.0,0.0,0.015271513561202134,-0.005124857266967757,9.809782237294321,0.0,0.0,0.0,0.0,0.0,0.0,0.0,0.0,0.0
2025/05/25 16:43:54.119998968,1748184234,116207809,mA1/imu,0.7048601808062696,-0.7093457998408771,-0.0007459120475666912,0.00032461835547948996,0.0,0.0,0.0,0.0,0.0,0.0,0.0,0.0,0.0,0.0011619764423501427,0.0005666015401385843,0.0020260060129537066,0.0,0.0,0.0,0.0,0.0,0.0,0.0,0.0,0.0,0.01629452349575003,-0.5812683759815855,9.810452321992676,0.0,0.0,0.0,0.0,0.0,0.0,0.0,0.0,0.0
2025/05/25 16:43:54.176135794,1748184234,170406473,mA1/imu,0.704824458387672,-0.7093813078078892,-0.0007339342158959416,0.00032300442774384024,0.0,0.0,0.0,0.0,0.0,0.0,0.0,0.0,0.0,0.0009285322139624943,9.46133749046296e-05,0.002006813414402772,0.0,0.0,0.0,0.0,0.0,0.0,0.0,0.0,0.0,0.01474333213267029,0.0393646444766667,9.808369279941235,0.0,0.0,0.0,0.0,0.0,0.0,0.0,0.0,0.0
2025/05/25 16:43:54.244538749,1748184234,236345839,mA1/imu,0.704789048151449,-0.7094164860197577,-0.0007378186197647692,0.0003203011668773749,0.0,0.0,0.0,0.0,0.0,0.0,0.0,0.0,0.0,-0.0007591173412793887,-0.00035983175068947214,0.0019907585768308925,0.0,0.0,0.0,0.0,0.0,0.0,0.0,0.0,0.0,0.014681015518258967,0.5566929080589272,9.80893884507035,0.0,0.0,0.0,0.0,0.0,0.0,0.0,0.0,0.0
2025/05/25 16:43:54.272618075,1748184234,267005224,mA1/imu,0.7047538900398512,-0.7094514035791928,-0.0007508827002651258,0.00031081888786385755,0.0,0.0,0.0,0.0,0.0,0.0,0.0,0.0,0.0,-0.0007232929944543974,-0.0008043413425066476,0.0019764057828836846,0.0,0.0,0.0,0.0,0.0,0.0,0.0,0.0,0.0,0.015386688735493089,-0.06603675892446298,9.811167783902546,0.0,0.0,0.0,0.0,0.0,0.0,0.0,0.0,0.0
2025/05/25 16:43:54.322258635,1748184234,318005784,mA1/imu,0.7047189593796065,-0.7094860928126632,-0.0007668480697794759,0.0002904141585410659,0.0,0.0,0.0,0.0,0.0,0.0,0.0,0.0,0.0,0.0007721704487946013,-0.0011820794417151412,0.001962315716095429,0.0,0.0,0.0,0.0,0.0,0.0,0.0,0.0,0.0,0.014445492873547724,-0.5852306883322924,9.81006845050978,0.0,0.0,0.0,0.0,0.0,0.0,0.0,0.0,0.0
2025/05/25 16:43:54.371653320,1748184234,369082408,mA1/imu,0.7046842389741423,-0.7095205620720518,-0.0007900792355809054,0.0002666705741230359,0.0,0.0,0.0,0.0,0.0,0.0,0.0,0.0,0.0,0.000562614910462518,-0.0014286551805169545,0.0019510943282962858,0.0,0.0,0.0,0.0,0.0,0.0,0.0,0.0,0.0,0.011955724056891706,0.03741538823968188,9.807789558868537,0.0,0.0,0.0,0.0,0.0,0.0,0.0,0.0,0.0
2025/05/25 16:43:54.423812525,1748184234,420518783,mA1/imu,0.7046497120960685,-0.7095548207843719,-0.0008239312604139412,0.0002463368906492698,0.0,0.0,0.0,0.0,0.0,0.0,0.0,0.0,0.0,-0.0011032080271144492,-0.0015749768461212248,0.0019412801410962463,0.0,0.0,0.0,0.0,0.0,0.0,0.0,0.0,0.0,0.01179277790152451,0.555779598277248,9.808563630917872,0.0,0.0,0.0,0.0,0.0,0.0,0.0,0.0,0.0
2025/05/25 16:43:54.475883815,1748184234,474949595,mA1/imu,0.7046206341262328,-0.7095836563530401,-0.0008640749553486182,0.00022355014607132283,0.0,0.0,0.0,0.0,0.0,0.0,0.0,0.0,0.0,-0.0011472044473298734,-0.001876053267619027,0.001439749584854783,0.0,0.0,0.0,0.0,0.0,0.0,0.0,0.0,0.0,0.020350699915012184,-0.08111136752208895,9.810944455454276,0.0,0.0,0.0,0.0,0.0,0.0,0.0,0.0,0.0
2025/05/25 16:43:54.518059244,1748184234,516036828,mA1/imu,0.7046002318300032,-0.7096038730259044,-0.0009048953699284492,0.00019456647037471088,0.0,0.0,0.0,0.0,0.0,0.0,0.0,0.0,0.0,0.00028299916221885795,-0.0020346342980464734,0.0009543777547819881,0.0,0.0,0.0,0.0,0.0,0.0,0.0,0.0,0.0,0.01870595903482978,-0.5990868694128005,9.809942932074028,0.0,0.0,0.0,0.0,0.0,0.0,0.0,0.0,0.0
2025/05/25 16:43:54.576615908,1748184234,570003504,mA1/imu,0.7045882470880152,-0.7096157220415344,-0.000949186670956159,0.00016775450374089122,0.0,0.0,0.0,0.0,0.0,0.0,0.0,0.0,0.0,3.730426405926721e-05,-0.0019941246049606145,0.0004859850601382256,0.0,0.0,0.0,0.0,0.0,0.0,0.0,0.0,0.0,0.01493550088077054,0.027217647775189563,9.807893177191422,0.0,0.0,0.0,0.0,0.0,0.0,0.0,0.0,0.0
2025/05/25 16:43:54.623709607,1748184234,621605004,mA1/imu,0.7045842211678213,-0.7096196572010021,-0.0009977027999409581,0.00014827133939833447,0.0,0.0,0.0,0.0,0.0,0.0,0.0,0.0,0.0,-0.0013998865561151174,-0.0018283960373256542,8.095188290835703e-05,0.0,0.0,0.0,0.0,0.0,0.0,0.0,0.0,0.0,0.011512040430212277,0.5467935685185954,9.808944933824296,0.0,0.0,0.0,0.0,0.0,0.0,0.0,0.0,0.0
2025/05/25 16:43:54.667366336,1748184234,665086883,mA1/imu,0.7045876009192786,-0.7096162425207305,-0.0010411881558586049,0.00013003383921387888,0.0,0.0,0.0,0.0,0.0,0.0,0.0,0.0,0.0,-0.001069212426953941,-0.0016548542001920262,-0.0003748309884827148,0.0,0.0,0.0,0.0,0.0,0.0,0.0,0.0,0.0,0.017591619414529677,-0.1937688566384124,9.811811944415771,0.0,0.0,0.0,0.0,0.0,0.0,0.0,0.0,0.0
2025/05/25 16:43:54.720576501,1748184234,717842305,mA1/imu,0.7045971480435197,-0.7096067413215281,-0.0010590595636200113,0.00010016397117751347,0.0,0.0,0.0,0.0,0.0,0.0,0.0,0.0,0.0,0.0006683557542326174,-0.0012229061211896054,-0.0007009311404977919,0.0,0.0,0.0,0.0,0.0,0.0,0.0,0.0,0.0,0.018665588673297345,-0.004578497039143965,9.811837137917808,0.0,0.0,0.0,0.0,0.0,0.0,0.0,0.0,0.0
2025/05/25 16:43:54.772701358,1748184234,770734051,mA1/imu,0.7046105755255504,-0.7095933992710537,-0.0010668839951224124,7.954272228354834e-05,0.0,0.0,0.0,0.0,0.0,0.0,0.0,0.0,0.0,0.0006190086563255261,-0.0005291475132284171,-0.0007956988778296281,0.0,0.0,0.0,0.0,0.0,0.0,0.0,0.0,0.0,0.0053217917609284255,0.032186444106241746,9.810576385025726,0.0,0.0,0.0,0.0,0.0,0.0,0.0,0.0,0.0
2025/05/25 16:43:54.826976424,1748184234,822258173,mA1/imu,0.7046256709945871,-0.709578405157921,-0.001069833529080465,7.851871916189895e-05,0.0,0.0,0.0,0.0,0.0,0.0,0.0,0.0,0.0,-0.0010245218611512415,0.00017120378513353458,-0.0008867214926770328,0.0,0.0,0.0,0.0,0.0,0.0,0.0,0.0,0.0,0.005980231563378937,0.5054907926897806,9.812107426626202,0.0,0.0,0.0,0.0,0.0,0.0,0.0,0.0,0.0
2025/05/25 16:43:54.883002849,1748184234,875382185,mA1/imu,0.7046463783540897,-0.709557867547955,-0.0010529689573391646,7.300437186602332e-05,0.0,0.0,0.0,0.0,0.0,0.0,0.0,0.0,0.0,6.35164578920622e-05,0.000454649398129651,-0.0013405157011071975,0.0,0.0,0.0,0.0,0.0,0.0,0.0,0.0,0.0,0.018550851201796656,-0.03506542972154158,9.811023842426462,0.0,0.0,0.0,0.0,0.0,0.0,0.0,0.0,0.0
2025/05/25 16:43:54.916723744,1748184234,914798175,mA1/imu,0.7046741251163169,-0.7095303277510463,-0.0010412781563641374,8.445618507581037e-05,0.0,0.0,0.0,0.0,0.0,0.0,0.0,0.0,0.0,0.001303937228810605,0.0008746009521924825,-0.0016359637294243211,0.0,0.0,0.0,0.0,0.0,0.0,0.0,0.0,0.0,0.005231938240811883,-0.31148586901791614,9.813196301517758,0.0,0.0,0.0,0.0,0.0,0.0,0.0,0.0,0.0
2025/05/25 16:43:54.969301185,1748184234,968573463,mA1/imu,0.7047077895038169,-0.7094969220179174,-0.001019148469557709,0.000101961475147338,0.0,0.0,0.0,0.0,0.0,0.0,0.0,0.0,0.0,0.0005616477243612374,0.0012386697435113317,-0.0020625028574241776,0.0,0.0,0.0,0.0,0.0,0.0,0.0,0.0,0.0,0.016512706271875288,0.0066778651547369575,9.813414608494645,0.0,0.0,0.0,0.0,0.0,0.0,0.0,0.0,0.0
2025/05/25 16:43:55.24553421,1748184235,19065472,mA1/imu,0.7047477261323738,-0.7094572830858578,-0.0009947296793879725,0.00012845445353091862,0.0,0.0,0.0,0.0,0.0,0.0,0.0,0.0,0.0,-0.0009398680389211229,0.001634676245364553,-0.0023039605216535128,0.0,0.0,0.0,0.0,0.0,0.0,0.0,0.0,0.0,0.005772547685860312,0.5412741230255825,9.814123795495808,0.0,0.0,0.0,0.0,0.0,0.0,0.0,0.0,0.0
2025/05/25 16:43:55.73400795,1748184235,72615793,mA1/imu,0.7047921250498188,-0.7094132133604591,-0.000963623541111409,0.00015686624676612584,0.0,0.0,0.0,0.0,0.0,0.0,0.0,0.0,0.0,-0.0004991324893196017,0.0018052501149180432,-0.0025617533964539542,0.0,0.0,0.0,0.0,0.0,0.0,0.0,0.0,0.0,0.007273989031689875,-0.011522095375378509,9.812295991957646,0.0,0.0,0.0,0.0,0.0,0.0,0.0,0.0,0.0
2025/05/25 16:43:55.118848178,1748184235,114856666,mA1/imu,0.7048380147872172,-0.7093676621321832,-0.0009254734450385401,0.000190606500088674,0.0,0.0,0.0,0.0,0.0,0.0,0.0,0.0,0.0,-0.0004794583311836274,0.0021742730393199323,-0.0025995167313155234,0.0,0.0,0.0,0.0,0.0,0.0,0.0,0.0,0.0,0.007292614051810847,0.26311459521143293,9.813450615488632,0.0,0.0,0.0,0.0,0.0,0.0,0.0,0.0,0.0
2025/05/25 16:43:55.177980840,1748184235,173564772,mA1/imu,0.7048872937264101,-0.709318734089559,-0.0008862218083013579,0.0002263262016944438,0.0,0.0,0.0,0.0,0.0,0.0,0.0,0.0,0.0,-7.229836792852012e-05,0.0021559994485190483,-0.00282747488864688,0.0,0.0,0.0,0.0,0.0,0.0,0.0,0.0,0.0,0.007745125075401094,0.04077632596089425,9.810809669621745,0.0,0.0,0.0,0.0,0.0,0.0,0.0,0.0,0.0
2025/05/25 16:43:55.216907258,1748184235,215357309,mA1/imu,0.7049377695456173,-0.709268603435193,-0.0008476210873355925,0.0002660594546765138,0.0,0.0,0.0,0.0,0.0,0.0,0.0,0.0,0.0,-0.00048433694236088424,0.0022378890574123933,-0.002853465334466216,0.0,0.0,0.0,0.0,0.0,0.0,0.0,0.0,0.0,0.008362867375498942,0.35256352817885434,9.811753904992916,0.0,0.0,0.0,0.0,0.0,0.0,0.0,0.0,0.0
2025/05/25 16:43:55.277575916,1748184235,271240176,mA1/imu,0.704991531457782,-0.7092151979426965,-0.0008089534052890359,0.0002986206638030401,0.0,0.0,0.0,0.0,0.0,0.0,0.0,0.0,0.0,0.0007348061344473961,0.001938390921583732,-0.0030805854542004106,0.0,0.0,0.0,0.0,0.0,0.0,0.0,0.0,0.0,0.007955312581706783,0.04094845727925493,9.80864810635654,0.0,0.0,0.0,0.0,0.0,0.0,0.0,0.0,0.0
2025/05/25 16:43:55.315187395,1748184235,314119327,mA1/imu,0.7050465119078604,-0.7091605602725034,-0.0007777886850705082,0.0003329343926089828,0.0,0.0,0.0,0.0,0.0,0.0,0.0,0.0,0.0,0.0018294059023596103,0.0017552763538487188,-0.003111949913071749,0.0,0.0,0.0,0.0,0.0,0.0,0.0,0.0,0.0,0.010396347145934827,-0.5186848398167938,9.807796306322027,0.0,0.0,0.0,0.0,0.0,0.0,0.0,0.0,0.0
2025/05/25 16:43:55.370481692,1748184235,366498646,mA1/imu,0.7051065133431069,-0.7091009140600198,-0.0007543016535980221,0.0003599296967298648,0.0,0.0,0.0,0.0,0.0,0.0,0.0,0.0,0.0,0.0005605192580513092,0.0011401165648133242,-0.0035542717046777392,0.0,0.0,0.0,0.0,0.0,0.0,0.0,0.0,0.0,0.022066678988343635,0.02140758900498245,9.809703526409328,0.0,0.0,0.0,0.0,0.0,0.0,0.0,0.0,0.0
2025/05/25 16:43:55.423247489,1748184235,419072530,mA1/imu,0.705173982856369,-0.7090338194918189,-0.000745265085430818,0.0003758979655759361,0.0,0.0,0.0,0.0,0.0,0.0,0.0,0.0,0.0,-0.0001958828233034953,0.00040216180596551086,-0.003980307014405768,0.0,0.0,0.0,0.0,0.0,0.0,0.0,0.0,0.0,0.02394296003123761,-0.030276420615323416,9.810811157977142,0.0,0.0,0.0,0.0,0.0,0.0,0.0,0.0,0.0
2025/05/25 16:43:55.478801600,1748184235,472083834,mA1/imu,0.7052489654605055,-0.7089592304542083,-0.0007501316429536834,0.0003789105195211145,0.0,0.0,0.0,0.0,0.0,0.0,0.0,0.0,0.0,-0.00023970007522042873,-0.00034264637910621853,-0.004397820315205209,0.0,0.0,0.0,0.0,0.0,0.0,0.0,0.0,0.0,0.02263925592083751,-0.025143769197040533,9.804426901090393,0.0,0.0,0.0,0.0,0.0,0.0,0.0,0.0,0.0
2025/05/25 16:43:55.526829720,1748184235,523984372,mA1/imu,0.705330269705071,-0.7088783290039825,-0.0007663481850181264,0.00037150605996110793,0.0,0.0,0.0,0.0,0.0,0.0,0.0,0.0,0.0,-0.0002421005421936337,-0.0007082739886795726,-0.0046187190039701145,0.0,0.0,0.0,0.0,0.0,0.0,0.0,0.0,0.0,-0.0025791713247101996,-0.01487809388474259,9.805174157228034,0.0,0.0,0.0,0.0,0.0,0.0,0.0,0.0,0.0
2025/05/25 16:43:55.567446353,1748184235,566005710,mA1/imu,0.7054118651724882,-0.7087971196768745,-0.0007819745557885073,0.00036349337279609564,0.0,0.0,0.0,0.0,0.0,0.0,0.0,0.0,0.0,-0.0001993198473139801,-0.0006450183723263236,-0.004606102729406614,0.0,0.0,0.0,0.0,0.0,0.0,0.0,0.0,0.0,0.0011760697054813644,-0.01577571757256282,9.80880575370297,0.0,0.0,0.0,0.0,0.0,0.0,0.0,0.0,0.0
2025/05/25 16:43:55.618432781,1748184235,616648839,mA1/imu,0.705493541499986,-0.70871581278472,-0.0007957447061345301,0.0003555292728403363,0.0,0.0,0.0,0.0,0.0,0.0,0.0,0.0,0.0,-0.00014484471019883215,-0.0005863934092252745,-0.004614204803918816,0.0,0.0,0.0,0.0,0.0,0.0,0.0,0.0,0.0,0.0015768416666495592,-0.015826380278380296,9.808551023624862,0.0,0.0,0.0,0.0,0.0,0.0,0.0,0.0,0.0
2025/05/25 16:43:55.670296991,1748184235,668637099,mA1/imu,0.7055753355017315,-0.7086343721537123,-0.0008072031118829554,0.00034778882864234693,0.0,0.0,0.0,0.0,0.0,0.0,0.0,0.0,0.0,-8.302418764724683e-05,-0.0005056315821066144,-0.0046202783663506965,0.0,0.0,0.0,0.0,0.0,0.0,0.0,0.0,0.0,0.0015001977538306984,-0.014465274298447569,9.805780007448432,0.0,0.0,0.0,0.0,0.0,0.0,0.0,0.0,0.0
2025/05/25 16:43:55.720602302,1748184235,718755961,mA1/imu,0.7056572576512747,-0.708552787711143,-0.0008159623798651716,0.00034052348691597273,0.0,0.0,0.0,0.0,0.0,0.0,0.0,0.0,0.0,-1.8703638970678645e-05,-0.0004105693832324607,-0.004627257279610811,0.0,0.0,0.0,0.0,0.0,0.0,0.0,0.0,0.0,0.001924716253737374,-0.014499995815570519,9.805823493016957,0.0,0.0,0.0,0.0,0.0,0.0,0.0,0.0,0.0
2025/05/25 16:43:55.776462510,1748184235,773027761,mA1/imu,0.7057393262647934,-0.7084710413586922,-0.0008218537101545602,0.0003338801056912855,0.0,0.0,0.0,0.0,0.0,0.0,0.0,0.0,0.0,4.420247843760612e-05,-0.00030838996672491036,-0.004637326561528556,0.0,0.0,0.0,0.0,0.0,0.0,0.0,0.0,0.0,0.0021139896067439564,-0.015888631540927803,9.81042513470134,0.0,0.0,0.0,0.0,0.0,0.0,0.0,0.0,0.0
2025/05/25 16:43:55.824815353,1748184235,822597491,mA1/imu,0.7058215475333323,-0.7083891269797046,-0.0008247320038818725,0.0003280727141022327,0.0,0.0,0.0,0.0,0.0,0.0,0.0,0.0,0.0,0.00010438128799412764,-0.000198403554822324,-0.004647317756099162,0.0,0.0,0.0,0.0,0.0,0.0,0.0,0.0,0.0,0.0023571819788435226,-0.015832785764183274,9.810668263369434,0.0,0.0,0.0,0.0,0.0,0.0,0.0,0.0,0.0
2025/05/25 16:43:55.881268138,1748184235,874584005,mA1/imu,0.7059020075867867,-0.7083089540525374,-0.0008214813122864596,0.00032628576139693454,0.0,0.0,0.0,0.0,0.0,0.0,0.0,0.0,0.0,0.00016403697460184655,0.0001576321704090531,-0.004500821176262554,0.0,0.0,0.0,0.0,0.0,0.0,0.0,0.0,0.0,0.002911235729521125,-0.014603674414239924,9.808450228425238,0.0,0.0,0.0,0.0,0.0,0.0,0.0,0.0,0.0
2025/05/25 16:43:55.915409007,1748184235,914706766,mA1/imu,0.7059818651171519,-0.7082293669011037,-0.0008145331331676824,0.0003263745464443474,0.0,0.0,0.0,0.0,0.0,0.0,0.0,0.0,0.0,0.00021071871906948585,0.00022939001424221475,-0.004514630568915839,0.0,0.0,0.0,0.0,0.0,0.0,0.0,0.0,0.0,0.003332281561831635,-0.014669130853414722,9.808727797113585,0.0,0.0,0.0,0.0,0.0,0.0,0.0,0.0,0.0
2025/05/25 16:43:55.976927171,1748184235,972302757,mA1/imu,0.7060609658631118,-0.7081505194516489,-0.0008040402760962455,0.00032833526130014994,0.0,0.0,0.0,0.0,0.0,0.0,0.0,0.0,0.0,0.0002626233531505398,0.00036059574241385095,-0.004488103828595081,0.0,0.0,0.0,0.0,0.0,0.0,0.0,0.0,0.0,0.01683339201475175,-0.014871448409808854,9.814083910458733,0.0,0.0,0.0,0.0,0.0,0.0,0.0,0.0,0.0
2025/05/25 16:43:56.23846422,1748184236,21317168,mA1/imu,0.7061386045066209,-0.7080731157062097,-0.0007903096219185444,0.0003308326526871682,0.0,0.0,0.0,0.0,0.0,0.0,0.0,0.0,0.0,0.000388845013063119,0.0009583561566024835,-0.004011727783302427,0.0,0.0,0.0,0.0,0.0,0.0,0.0,0.0,0.0,-0.052352488215291634,0.0019624524570300023,9.815896354438415,0.0,0.0,0.0,0.0,0.0,0.0,0.0,0.0,0.0
2025/05/25 16:43:56.80296766,1748184236,73299584,mA1/imu,0.7062006950635172,-0.7080112174799092,-0.0007561363437530782,0.00034996035695402587,0.0,0.0,0.0,0.0,0.0,0.0,0.0,0.0,0.0,0.0004419608304077943,0.0015161513800319348,-0.003416049769908145,0.0,0.0,0.0,0.0,0.0,0.0,0.0,0.0,0.0,0.006402085916673503,-0.012927908476165973,9.811662085203102,0.0,0.0,0.0,0.0,0.0,0.0,0.0,0.0,0.0
2025/05/25 16:43:56.122865343,1748184236,118018560,mA1/imu,0.7062602886253369,-0.7079517974174856,-0.0007234827779199071,0.00036580989230859743,0.0,0.0,0.0,0.0,0.0,0.0,0.0,0.0,0.0,0.000572946955138601,0.0012449410621836116,-0.003345742102890523,0.0,0.0,0.0,0.0,0.0,0.0,0.0,0.0,0.0,0.009841451422186794,-0.05231126396803208,9.811276845128031,0.0,0.0,0.0,0.0,0.0,0.0,0.0,0.0,0.0
2025/05/25 16:43:56.173865880,1748184236,170395116,mA1/imu,0.7063189313750865,-0.7078933130471051,-0.0006956960141482814,0.00037487518556823113,0.0,0.0,0.0,0.0,0.0,0.0,0.0,0.0,0.0,0.000502579568431736,0.0009196633794383896,-0.003276082114747931,0.0,0.0,0.0,0.0,0.0,0.0,0.0,0.0,0.0,0.006790811305415876,-0.00987593381512685,9.814100855011157,0.0,0.0,0.0,0.0,0.0,0.0,0.0,0.0,0.0
2025/05/25 16:43:56.219367184,1748184236,215515673,mA1/imu,0.7063759023710069,-0.7078364787489099,-0.0006770224498208586,0.00038150031742160626,0.0,0.0,0.0,0.0,0.0,0.0,0.0,0.0,0.0,0.00035172478239012245,0.0005766426981270163,-0.0031804881504658997,0.0,0.0,0.0,0.0,0.0,0.0,0.0,0.0,0.0,0.006904866885246733,-0.017630889836066883,9.813800969243864,0.0,0.0,0.0,0.0,0.0,0.0,0.0,0.0,0.0
2025/05/25 16:43:56.268051201,1748184236,266211005,mA1/imu,0.7064322377371446,-0.7077802655116786,-0.0006655181031109225,0.00038252263005225987,0.0,0.0,0.0,0.0,0.0,0.0,0.0,0.0,0.0,6.134580688107398e-05,0.00020521989610023392,-0.0031583755504965964,0.0,0.0,0.0,0.0,0.0,0.0,0.0,0.0,0.0,0.007106776643153243,-0.3005346466803729,9.812188943832941,0.0,0.0,0.0,0.0,0.0,0.0,0.0,0.0,0.0
2025/05/25 16:43:56.318115882,1748184236,316488021,mA1/imu,0.7064868679365808,-0.7077257504568075,-0.0006545295968558356,0.0003730476053705814,0.0,0.0,0.0,0.0,0.0,0.0,0.0,0.0,0.0,0.0015042175555214146,7.579262512348994e-06,-0.0030136428876473675,0.0,0.0,0.0,0.0,0.0,0.0,0.0,0.0,0.0,-0.004464075479215677,-0.5551305183370447,9.809944884453559,0.0,0.0,0.0,0.0,0.0,0.0,0.0,0.0,0.0
2025/05/25 16:43:56.370168625,1748184236,367717000,mA1/imu,0.7065367655080129,-0.7076759414397809,-0.000649781349692561,0.00037239359889161897,0.0,0.0,0.0,0.0,0.0,0.0,0.0,0.0,0.0,-0.00015246763304692932,0.00026748849933179225,-0.0026391481048160252,0.0,0.0,0.0,0.0,0.0,0.0,0.0,0.0,0.0,-0.018259457087752246,0.5404649221434797,9.813705593806503,0.0,0.0,0.0,0.0,0.0,0.0,0.0,0.0,0.0
2025/05/25 16:43:56.420425382,1748184236,418147477,mA1/imu,0.7065790308517552,-0.7076337469181938,-0.0006397752265039236,0.0003795665575492563,0.0,0.0,0.0,0.0,0.0,0.0,0.0,0.0,0.0,-0.0005874271324845304,0.000574817197301001,-0.002277320058150908,0.0,0.0,0.0,0.0,0.0,0.0,0.0,0.0,0.0,-0.008195726124352074,0.1035460097756102,9.811507304315365,0.0,0.0,0.0,0.0,0.0,0.0,0.0,0.0,0.0
2025/05/25 16:43:56.473032195,1748184236,470328206,mA1/imu,0.7066162349885146,-0.7075966068748468,-0.0006232911288544472,0.0003871666677920822,0.0,0.0,0.0,0.0,0.0,0.0,0.0,0.0,0.0,0.0009195319941282979,0.0008346930407473426,-0.0019321646275748574,0.0,0.0,0.0,0.0,0.0,0.0,0.0,0.0,0.0,-0.01819553261085883,-0.584707297731765,9.80799987651054,0.0,0.0,0.0,0.0,0.0,0.0,0.0,0.0,0.0
2025/05/25 16:43:56.518099726,1748184236,515211473,mA1/imu,0.7066487220559791,-0.7075641726366196,-0.0006064319423455772,0.0003968097868814844,0.0,0.0,0.0,0.0,0.0,0.0,0.0,0.0,0.0,0.00102671187984119,0.0005568812604726257,-0.0018483923929831488,0.0,0.0,0.0,0.0,0.0,0.0,0.0,0.0,0.0,0.008986604150277305,-0.09772166097093415,9.809065623361148,0.0,0.0,0.0,0.0,0.0,0.0,0.0,0.0,0.0
2025/05/25 16:43:56.573182237,1748184236,567767453,mA1/imu,0.7066815712360197,-0.7075313617229535,-0.0006038515930752982,0.0004054837938164054,0.0,0.0,0.0,0.0,0.0,0.0,0.0,0.0,0.0,-0.0005239579831352736,0.00019144201991468698,-0.001839532483972285,0.0,0.0,0.0,0.0,0.0,0.0,0.0,0.0,0.0,0.0011854847478014957,0.5906250045264606,9.809829205381057,0.0,0.0,0.0,0.0,0.0,0.0,0.0,0.0,0.0
2025/05/25 16:43:56.622712627,1748184236,618189722,mA1/imu,0.7067135452028304,-0.7074994149269623,-0.0006106859908844196,0.00041227111661848535,0.0,0.0,0.0,0.0,0.0,0.0,0.0,0.0,0.0,-0.0017388341030403146,-0.00011418805703210973,-0.00178727687491065,0.0,0.0,0.0,0.0,0.0,0.0,0.0,0.0,0.0,0.0009366651453507581,0.5157613941592746,9.808376406247286,0.0,0.0,0.0,0.0,0.0,0.0,0.0,0.0,0.0
2025/05/25 16:43:56.675244675,1748184236,673252783,mA1/imu,0.7067484649405984,-0.7074645188822036,-0.0006296468184605655,0.0004066592720856066,0.0,0.0,0.0,0.0,0.0,0.0,0.0,0.0,0.0,-0.0001096138574637227,-0.0009438435448048569,-0.002044537649903725,0.0,0.0,0.0,0.0,0.0,0.0,0.0,0.0,0.0,0.0009630476727264851,-0.6269824546780546,9.807540461320485,0.0,0.0,0.0,0.0,0.0,0.0,0.0,0.0,0.0
2025/05/25 16:43:56.716232023,1748184236,714720266,mA1/imu,0.7067838470631695,-0.7074291634818922,-0.0006498008436173627,0.00038722701350071695,0.0,0.0,0.0,0.0,0.0,0.0,0.0,0.0,0.0,0.001192937208068165,-0.0012952227962706006,-0.0019603152283150065,0.0,0.0,0.0,0.0,0.0,0.0,0.0,0.0,0.0,0.008891224296840285,-0.5310459178871365,9.808263956064499,0.0,0.0,0.0,0.0,0.0,0.0,0.0,0.0,0.0
2025/05/25 16:43:56.770212959,1748184236,767406320,mA1/imu,0.7068177734438269,-0.707395239966815,-0.0006854320453180387,0.0003738971978784428,0.0,0.0,0.0,0.0,0.0,0.0,0.0,0.0,0.0,-0.0009861726541713191,-0.001436915060238986,-0.001896584752489012,0.0,0.0,0.0,0.0,0.0,0.0,0.0,0.0,0.0,-8.14290778345314e-05,0.5818645875856028,9.808481472011671,0.0,0.0,0.0,0.0,0.0,0.0,0.0,0.0,0.0
2025/05/25 16:43:56.822450191,1748184236,820988533,mA1/imu,0.7068506679684281,-0.7073623362572826,-0.0007260813699422568,0.0003622748544429475,0.0,0.0,0.0,0.0,0.0,0.0,0.0,0.0,0.0,-0.0013578754496351801,-0.001492501986221723,-0.0018388225719653422,0.0,0.0,0.0,0.0,0.0,0.0,0.0,0.0,0.0,-0.00020889924729284356,-0.0692223145855208,9.808057965384338,0.0,0.0,0.0,0.0,0.0,0.0,0.0,0.0,0.0
2025/05/25 16:43:56.882632879,1748184236,873756529,mA1/imu,0.7068844161203897,-0.7073285852783912,-0.0007614035332527127,0.00033905584345925074,0.0,0.0,0.0,0.0,0.0,0.0,0.0,0.0,0.0,-0.0015741890953736271,-0.0018063409746339018,-0.0019991018598600994,0.0,0.0,0.0,0.0,0.0,0.0,0.0,0.0,0.0,0.02100163015856054,-0.08831769105941682,9.806659733668013,0.0,0.0,0.0,0.0,0.0,0.0,0.0,0.0,0.0
2025/05/25 16:43:56.918925787,1748184236,914788011,mA1/imu,0.7069204186096093,-0.7072925770774778,-0.0007979539545238572,0.0003089229696632015,0.0,0.0,0.0,0.0,0.0,0.0,0.0,0.0,0.0,0.0005787485392447173,-0.001819428775296546,-0.0020122753858835617,0.0,0.0,0.0,0.0,0.0,0.0,0.0,0.0,0.0,-0.0007761691874504616,0.06297713658809802,9.807600995862028,0.0,0.0,0.0,0.0,0.0,0.0,0.0,0.0,0.0
2025/05/25 16:43:56.972097134,1748184236,969154285,mA1/imu,0.7069558990499336,-0.7072570726282565,-0.0008402945838568749,0.0002896909068121636,0.0,0.0,0.0,0.0,0.0,0.0,0.0,0.0,0.0,0.00014366763766549616,-0.0017104711115834192,-0.002021239219791493,0.0,0.0,0.0,0.0,0.0,0.0,0.0,0.0,0.0,-0.0003253456260385451,0.23069249397691602,9.809095575340917,0.0,0.0,0.0,0.0,0.0,0.0,0.0,0.0,0.0
2025/05/25 16:43:57.29281555,1748184237,25389864,mA1/imu,0.7069918476838783,-0.7072210945977613,-0.0008806475058145836,0.00027408839944882674,0.0,0.0,0.0,0.0,0.0,0.0,0.0,0.0,0.0,-0.0013473414562455537,-0.0015817035760088889,-0.0021149573371960556,0.0,0.0,0.0,0.0,0.0,0.0,0.0,0.0,0.0,0.016644962877981125,0.5552496348701392,9.811067029612284,0.0,0.0,0.0,0.0,0.0,0.0,0.0,0.0,0.0
2025/05/25 16:43:57.69764953,1748184237,68297188,mA1/imu,0.7070309186190188,-0.7071819916826396,-0.0009191737802309499,0.0002566633659814161,0.0,0.0,0.0,0.0,0.0,0.0,0.0,0.0,0.0,-0.0011477320401201195,-0.0014232078860139663,-0.0022007079638593943,0.0,0.0,0.0,0.0,0.0,0.0,0.0,0.0,0.0,-0.00145075328158825,-0.06532840467454885,9.809594397361632,0.0,0.0,0.0,0.0,0.0,0.0,0.0,0.0,0.0
2025/05/25 16:43:57.133599874,1748184237,124115158,mA1/imu,0.7070690266166697,-0.7071438647427438,-0.0009427492318851244,0.00023954109668658941,0.0,0.0,0.0,0.0,0.0,0.0,0.0,0.0,0.0,0.0005493305482591715,-0.0010060773907362922,-0.0021201675467946886,0.0,0.0,0.0,0.0,0.0,0.0,0.0,0.0,0.0,0.0046100916426345595,-0.5817961866513656,9.809362188220021,0.0,0.0,0.0,0.0,0.0,0.0,0.0,0.0,0.0
2025/05/25 16:43:57.182793664,1748184237,174440787,mA1/imu,0.7071055876810244,-0.7071072898041697,-0.0009573670912207549,0.0002280884204035421,0.0,0.0,0.0,0.0,0.0,0.0,0.0,0.0,0.0,0.0005394728908442944,-0.0005206191201753462,-0.0020428701751107137,0.0,0.0,0.0,0.0,0.0,0.0,0.0,0.0,0.0,-0.002051166638106087,0.03742930084575401,9.81139910472258,0.0,0.0,0.0,0.0,0.0,0.0,0.0,0.0,0.0
2025/05/25 16:43:57.217224429,1748184237,216344977,mA1/imu,0.7071410351724137,-0.7070718286158706,-0.0009657554223058592,0.00022993381774831729,0.0,0.0,0.0,0.0,0.0,0.0,0.0,0.0,0.0,-0.0009308468799444188,4.440066695367326e-05,-0.001980742383301529,0.0,0.0,0.0,0.0,0.0,0.0,0.0,0.0,0.0,-0.0012294160528554515,0.5565029344661757,9.812557599017433,0.0,0.0,0.0,0.0,0.0,0.0,0.0,0.0,0.0
2025/05/25 16:43:57.270579434,1748184237,269795683,mA1/imu,0.7071746849498504,-0.707038176843007,-0.0009612231623859228,0.00023979705768420673,0.0,0.0,0.0,0.0,0.0,0.0,0.0,0.0,0.0,-0.0006891926964754318,0.0006390780459702003,-0.001862719925106011,0.0,0.0,0.0,0.0,0.0,0.0,0.0,0.0,0.0,-0.00012279640820776934,-0.06521119871693842,9.811735355378486,0.0,0.0,0.0,0.0,0.0,0.0,0.0,0.0,0.0
2025/05/25 16:43:57.324613243,1748184237,321376688,mA1/imu,0.707207812864832,-0.7070050640757404,-0.0009415366924255058,0.0002496053999394443,0.0,0.0,0.0,0.0,0.0,0.0,0.0,0.0,0.0,0.0009998754534071546,0.0008144274127178772,-0.0019563472783876304,0.0,0.0,0.0,0.0,0.0,0.0,0.0,0.0,0.0,0.02039538438306017,-0.5857283400129931,9.80992173077595,0.0,0.0,0.0,0.0,0.0,0.0,0.0,0.0,0.0
2025/05/25 16:43:57.376950330,1748184237,374323020,mA1/imu,0.7072422288497976,-0.7069706643625743,-0.0009170768007229822,0.00026159597168281135,0.0,0.0,0.0,0.0,0.0,0.0,0.0,0.0,0.0,0.0009768419597044752,0.001182375699958527,-0.0019243112699637887,0.0,0.0,0.0,0.0,0.0,0.0,0.0,0.0,0.0,0.00017752777516490126,0.03770965944420701,9.812786319500319,0.0,0.0,0.0,0.0,0.0,0.0,0.0,0.0,0.0
2025/05/25 16:43:57.417459938,1748184237,414669598,mA1/imu,0.7072756361966696,-0.7069372682166439,-0.0008904566958051897,0.0002834358098351529,0.0,0.0,0.0,0.0,0.0,0.0,0.0,0.0,0.0,-0.0005171915087987213,0.0014897872769271414,-0.0018644630305224273,0.0,0.0,0.0,0.0,0.0,0.0,0.0,0.0,0.0,0.0014424468944550716,0.5565830150929358,9.813502653982694,0.0,0.0,0.0,0.0,0.0,0.0,0.0,0.0,0.0
2025/05/25 16:43:57.474399228,1748184237,471522479,mA1/imu,0.7073087723945609,-0.7069041449648067,-0.0008572980402048178,0.0003088127995488615,0.0,0.0,0.0,0.0,0.0,0.0,0.0,0.0,0.0,-0.000350670719791887,0.001743503349651235,-0.0018896223112544947,0.0,0.0,0.0,0.0,0.0,0.0,0.0,0.0,0.0,0.0036821835221721036,-0.06946517849823915,9.811802450940615,0.0,0.0,0.0,0.0,0.0,0.0,0.0,0.0,0.0
2025/05/25 16:43:57.524513382,1748184237,522957908,mA1/imu,0.7073431404546597,-0.7068697950549271,-0.0008157902082770838,0.0003301167687544615,0.0,0.0,0.0,0.0,0.0,0.0,0.0,0.0,0.0,0.0012657180154251053,0.001771393478387505,-0.0019776465601941927,0.0,0.0,0.0,0.0,0.0,0.0,0.0,0.0,0.0,0.0043205645668034955,-0.5878673493420185,9.810601229507173,0.0,0.0,0.0,0.0,0.0,0.0,0.0,0.0,0.0
2025/05/25 16:43:57.583770029,1748184237,574882578,mA1/imu,0.7073790119980032,-0.7068339334726083,-0.0007750341347322058,0.0003509963808842983,0.0,0.0,0.0,0.0,0.0,0.0,0.0,0.0,0.0,0.0011457929126164866,0.0017029393361848966,-0.002061273711106483,0.0,0.0,0.0,0.0,0.0,0.0,0.0,0.0,0.0,0.00389992298372014,0.03512295933947216,9.811928518058266,0.0,0.0,0.0,0.0,0.0,0.0,0.0,0.0,0.0
2025/05/25 16:43:57.616677149,1748184237,615887191,mA1/imu,0.7074163391723447,-0.7067965982173002,-0.0007424148551736574,0.0003750208437657371,0.0,0.0,0.0,0.0,0.0,0.0,0.0,0.0,0.0,-0.0004473682357933735,0.0015317446443782693,-0.00214250071035085,0.0,0.0,0.0,0.0,0.0,0.0,0.0,0.0,0.0,0.005150011555372135,0.5541058490342471,9.812179114225897,0.0,0.0,0.0,0.0,0.0,0.0,0.0,0.0,0.0
2025/05/25 16:43:57.669692475,1748184237,667976602,mA1/imu,0.7074649904664808,-0.7067479098440602,-0.0007320586746902567,0.0003785305948129005,0.0,0.0,0.0,0.0,0.0,0.0,0.0,0.0,0.0,-0.00040840311399168583,-7.188048218348574e-05,-0.0030184185847290006,0.0,0.0,0.0,0.0,0.0,0.0,0.0,0.0,0.0,0.0049283436823455914,-0.06858654326516792,9.80992819016,0.0,0.0,0.0,0.0,0.0,0.0,0.0,0.0,0.0
2025/05/25 16:43:57.721112377,1748184237,719125790,mA1/imu,0.7075189194456918,-0.706693933296623,-0.0007270891085218548,0.00036689177873899044,0.0,0.0,0.0,0.0,0.0,0.0,0.0,0.0,0.0,0.0011368180429760617,-0.00027179674538750507,-0.0030753746882337197,0.0,0.0,0.0,0.0,0.0,0.0,0.0,0.0,0.0,0.004648133075222604,-0.5873426937617497,9.80851400318672,0.0,0.0,0.0,0.0,0.0,0.0,0.0,0.0,0.0
2025/05/25 16:43:57.771122967,1748184237,770188368,mA1/imu,0.7075738265665265,-0.7066389652355914,-0.000726499216456773,0.0003535076582274622,0.0,0.0,0.0,0.0,0.0,0.0,0.0,0.0,0.0,0.0009561203772806845,-0.0004258856382241651,-0.0031303800557189302,0.0,0.0,0.0,0.0,0.0,0.0,0.0,0.0,0.0,0.002828978676070763,0.03522319460212032,9.809600735844846,0.0,0.0,0.0,0.0,0.0,0.0,0.0,0.0,0.0
2025/05/25 16:43:57.826876103,1748184237,823881501,mA1/imu,0.7076294396011579,-0.7065832698916424,-0.0007352379548037451,0.00034401182471945893,0.0,0.0,0.0,0.0,0.0,0.0,0.0,0.0,0.0,-0.0006864718753866133,-0.0005607079666298912,-0.003137160043208539,0.0,0.0,0.0,0.0,0.0,0.0,0.0,0.0,0.0,0.0032643281339220713,0.5565192428487767,9.809718926626596,0.0,0.0,0.0,0.0,0.0,0.0,0.0,0.0,0.0
2025/05/25 16:43:57.868625886,1748184237,866664461,mA1/imu,0.7076835062681,-0.7065291119212861,-0.0007480472225695057,0.00033074032069585035,0.0,0.0,0.0,0.0,0.0,0.0,0.0,0.0,0.0,-0.0005815973503321046,-0.0008104161744285805,-0.003016891470585999,0.0,0.0,0.0,0.0,0.0,0.0,0.0,0.0,0.0,0.003288761981057241,-0.0652447194934755,9.807962403709142,0.0,0.0,0.0,0.0,0.0,0.0,0.0,0.0,0.0
2025/05/25 16:43:57.918496167,1748184237,917671115,mA1/imu,0.7077358511403035,-0.7064766765361278,-0.0007576536586382007,0.00031061569716669447,0.0,0.0,0.0,0.0,0.0,0.0,0.0,0.0,0.0,0.0009695846127628341,-0.0008553302896612948,-0.002929886456460316,0.0,0.0,0.0,0.0,0.0,0.0,0.0,0.0,0.0,0.002855872729270275,-0.5837809662117556,9.806764035392717,0.0,0.0,0.0,0.0,0.0,0.0,0.0,0.0,0.0
2025/05/25 16:43:57.971915925,1748184237,970098315,mA1/imu,0.7077866648836176,-0.7064257647685906,-0.0007686629893889334,0.00029161832335748917,0.0,0.0,0.0,0.0,0.0,0.0,0.0,0.0,0.0,0.0007899060687392886,-0.000839368319956463,-0.0028440140246325306,0.0,0.0,0.0,0.0,0.0,0.0,0.0,0.0,0.0,0.002443524584068089,0.03764019322329812,9.808062468225256,0.0,0.0,0.0,0.0,0.0,0.0,0.0,0.0,0.0
2025/05/25 16:43:58.24820048,1748184238,21900305,mA1/imu,0.7078359811654689,-0.7063763363232815,-0.0007854844236900665,0.0002797574604806678,0.0,0.0,0.0,0.0,0.0,0.0,0.0,0.0,0.0,-0.0008481598568712306,-0.0007791679051224367,-0.0027598357719398597,0.0,0.0,0.0,0.0,0.0,0.0,0.0,0.0,0.0,0.002858432153840999,0.5564955068562943,9.808734053708433,0.0,0.0,0.0,0.0,0.0,0.0,0.0,0.0,0.0
2025/05/25 16:43:58.67248165,1748184238,66509840,mA1/imu,0.7078827756939524,-0.7063294280876933,-0.000801439057844269,0.00026942266823260674,0.0,0.0,0.0,0.0,0.0,0.0,0.0,0.0,0.0,-0.000760043657591201,-0.0006987099646056407,-0.0026050164739573355,0.0,0.0,0.0,0.0,0.0,0.0,0.0,0.0,0.0,0.0029559894827956394,-0.06559574356491014,9.807598630422161,0.0,0.0,0.0,0.0,0.0,0.0,0.0,0.0,0.0
2025/05/25 16:43:58.126883843,1748184238,124860236,mA1/imu,0.7079279389406227,-0.706284157111009,-0.0008105671403093497,0.0002562463360408728,0.0,0.0,0.0,0.0,0.0,0.0,0.0,0.0,0.0,0.00078467088306105,-0.000582460892614512,-0.002527721090106075,0.0,0.0,0.0,0.0,0.0,0.0,0.0,0.0,0.0,0.0026781703778784123,-0.5840464337905641,9.806843941767895,0.0,0.0,0.0,0.0,0.0,0.0,0.0,0.0,0.0
2025/05/25 16:43:58.168064710,1748184238,167329061,mA1/imu,0.7079710639328352,-0.706240923989217,-0.0008176040779995849,0.00024787141427708826,0.0,0.0,0.0,0.0,0.0,0.0,0.0,0.0,0.0,0.0005986786817347618,-0.00035407972932151245,-0.0023946207538993788,0.0,0.0,0.0,0.0,0.0,0.0,0.0,0.0,0.0,0.0028554066166937894,0.037841517056736704,9.808915525571072,0.0,0.0,0.0,0.0,0.0,0.0,0.0,0.0,0.0
2025/05/25 16:43:58.219242941,1748184238,217957148,mA1/imu,0.7080125519521124,-0.7061993193856494,-0.0008280048549283081,0.00024896879972302247,0.0,0.0,0.0,0.0,0.0,0.0,0.0,0.0,0.0,-0.0010286645447432955,-0.00019515179110680953,-0.0023208259871907743,0.0,0.0,0.0,0.0,0.0,0.0,0.0,0.0,0.0,0.0034279710810973503,0.5567306946682855,9.810085171806087,0.0,0.0,0.0,0.0,0.0,0.0,0.0,0.0,0.0
2025/05/25 16:43:58.278098629,1748184238,274631522,mA1/imu,0.708053093027156,-0.706158659118531,-0.0008385764358899402,0.00024979222749551227,0.0,0.0,0.0,0.0,0.0,0.0,0.0,0.0,0.0,-0.0009094571150079064,-0.00027424685544982444,-0.002278472472437299,0.0,0.0,0.0,0.0,0.0,0.0,0.0,0.0,0.0,0.003370291421352479,-0.0658266455611248,9.809419551222948,0.0,0.0,0.0,0.0,0.0,0.0,0.0,0.0,0.0
2025/05/25 16:43:58.320639528,1748184238,317119576,mA1/imu,0.7080925777337308,-0.7061190631674892,-0.000841976725043917,0.00024711345986232837,0.0,0.0,0.0,0.0,0.0,0.0,0.0,0.0,0.0,0.0006597706163288471,-0.00010483883792144551,-0.002209529718171392,0.0,0.0,0.0,0.0,0.0,0.0,0.0,0.0,0.0,0.0031110733811844623,-0.5842620500062297,9.808846656461125,0.0,0.0,0.0,0.0,0.0,0.0,0.0,0.0,0.0
2025/05/25 16:43:58.378366147,1748184238,374347883,mA1/imu,0.7081297848397897,-0.7060817491496006,-0.0008424291934401706,0.00024830152539140343,0.0,0.0,0.0,0.0,0.0,0.0,0.0,0.0,0.0,0.0005323833329424119,8.82134387335402e-05,-0.002067767076464977,0.0,0.0,0.0,0.0,0.0,0.0,0.0,0.0,0.0,0.0033854108622629452,0.03741761542023564,9.811194927699706,0.0,0.0,0.0,0.0,0.0,0.0,0.0,0.0,0.0
2025/05/25 16:43:58.418639513,1748184238,415628863,mA1/imu,0.7081652986776182,-0.7060461232001192,-0.0008456221773584707,0.0002580427386034106,0.0,0.0,0.0,0.0,0.0,0.0,0.0,0.0,0.0,-0.0010428184180870678,0.0002625360892306381,-0.0019450943243506603,0.0,0.0,0.0,0.0,0.0,0.0,0.0,0.0,0.0,0.0033219144479481894,0.5606555299147284,9.812546439862526,0.0,0.0,0.0,0.0,0.0,0.0,0.0,0.0,0.0
2025/05/25 16:43:58.474383250,1748184238,470764217,mA1/imu,0.7081987585732725,-0.7060125571243584,-0.0008455511993434395,0.0002694089261446101,0.0,0.0,0.0,0.0,0.0,0.0,0.0,0.0,0.0,-0.0008723400627173269,0.0003695104618077399,-0.0018704103302692285,0.0,0.0,0.0,0.0,0.0,0.0,0.0,0.0,0.0,0.004556786736528048,-0.08014773709594705,9.811462007432823,0.0,0.0,0.0,0.0,0.0,0.0,0.0,0.0,0.0
2025/05/25 16:43:58.521442998,1748184238,520548567,mA1/imu,0.7082311786025929,-0.705980041774224,-0.0008377393292935062,0.0002765220843406937,0.0,0.0,0.0,0.0,0.0,0.0,0.0,0.0,0.0,0.0007037915254206464,0.00044835378713505773,-0.0018140597624463385,0.0,0.0,0.0,0.0,0.0,0.0,0.0,0.0,0.0,0.004988595919872382,-0.5832004082076061,9.810673513303643,0.0,0.0,0.0,0.0,0.0,0.0,0.0,0.0,0.0
2025/05/25 16:43:58.576579528,1748184238,572703633,mA1/imu,0.7082626184580091,-0.7059485065370078,-0.0008295349288567029,0.0002851051986572799,0.0,0.0,0.0,0.0,0.0,0.0,0.0,0.0,0.0,0.0005730790611452652,0.0004856153780356688,-0.0017591891835081423,0.0,0.0,0.0,0.0,0.0,0.0,0.0,0.0,0.0,0.005390167645061341,0.03784576123997736,9.812584119311918,0.0,0.0,0.0,0.0,0.0,0.0,0.0,0.0,0.0
2025/05/25 16:43:58.628775717,1748184238,623428824,mA1/imu,0.7082931096390885,-0.7059179116693177,-0.0008265676559990832,0.0002993461696675514,0.0,0.0,0.0,0.0,0.0,0.0,0.0,0.0,0.0,-0.0010024709372148965,0.0004841206676733655,-0.001706053357141126,0.0,0.0,0.0,0.0,0.0,0.0,0.0,0.0,0.0,0.006485835564998814,0.5563971992778021,9.813309593942186,0.0,0.0,0.0,0.0,0.0,0.0,0.0,0.0,0.0
2025/05/25 16:43:58.666613022,1748184238,665092573,mA1/imu,0.7083216336829379,-0.7058892885987017,-0.0008235433992769144,0.0003118887983562926,0.0,0.0,0.0,0.0,0.0,0.0,0.0,0.0,0.0,-0.0008426225435600095,0.0004215699193559992,-0.001582693559400921,0.0,0.0,0.0,0.0,0.0,0.0,0.0,0.0,0.0,0.006638569081077109,-0.06603383824147867,9.811736949548406,0.0,0.0,0.0,0.0,0.0,0.0,0.0,0.0,0.0
2025/05/25 16:43:58.717331705,1748184238,716615486,mA1/imu,0.7083466331595405,-0.7058642112183867,-0.0008124198764940889,0.00032029132451588443,0.0,0.0,0.0,0.0,0.0,0.0,0.0,0.0,0.0,0.0007743605399510961,0.0009342015384142253,-0.001074017575439711,0.0,0.0,0.0,0.0,0.0,0.0,0.0,0.0,0.0,-0.044322764138144434,-0.5741397767954068,9.808401461191528,0.0,0.0,0.0,0.0,0.0,0.0,0.0,0.0,0.0
2025/05/25 16:43:58.770664791,1748184238,769701517,mA1/imu,0.708357910965502,-0.7058529157955655,-0.000782628469070201,0.0003445695393857152,0.0,0.0,0.0,0.0,0.0,0.0,0.0,0.0,0.0,0.0007562840400051399,0.0015234451954672307,-0.0005843257121257178,0.0,0.0,0.0,0.0,0.0,0.0,0.0,0.0,0.0,0.00873987172217008,0.03625093697300555,9.811839700388827,0.0,0.0,0.0,0.0,0.0,0.0,0.0,0.0,0.0
2025/05/25 16:43:58.822958779,1748184238,820495914,mA1/imu,0.7083681088456153,-0.7058426934049533,-0.0007599410341915307,0.00037017151746323673,0.0,0.0,0.0,0.0,0.0,0.0,0.0,0.0,0.0,-0.0007789985442892583,0.001249870344050711,-0.0005712148950983881,0.0,0.0,0.0,0.0,0.0,0.0,0.0,0.0,0.0,0.009818253327136178,0.5576315554146345,9.812132361810695,0.0,0.0,0.0,0.0,0.0,0.0,0.0,0.0,0.0
2025/05/25 16:43:58.875522837,1748184238,871465338,mA1/imu,0.7083796152870753,-0.7058311525813266,-0.0007436038473979869,0.0003895443097677683,0.0,0.0,0.0,0.0,0.0,0.0,0.0,0.0,0.0,-0.0006843057550726083,0.0008521212094878716,-0.0007036368660486182,0.0,0.0,0.0,0.0,0.0,0.0,0.0,0.0,0.0,0.01110957085435943,-0.06965463672573141,9.809976663250216,0.0,0.0,0.0,0.0,0.0,0.0,0.0,0.0,0.0
2025/05/25 16:43:58.925564303,1748184238,923448373,mA1/imu,0.7083934074456059,-0.7058173211817723,-0.0007295990521369985,0.00039634910624318124,0.0,0.0,0.0,0.0,0.0,0.0,0.0,0.0,0.0,0.0008783837717866399,0.0003961574736714798,-0.0008321055987585094,0.0,0.0,0.0,0.0,0.0,0.0,0.0,0.0,0.0,0.011224674777947067,-0.5884260373192626,9.808555826025481,0.0,0.0,0.0,0.0,0.0,0.0,0.0,0.0,0.0
2025/05/25 16:43:58.966765417,1748184238,965259107,mA1/imu,0.7084113212413945,-0.705799345912322,-0.0007272477967047157,0.00039288344625411934,0.0,0.0,0.0,0.0,0.0,0.0,0.0,0.0,0.0,0.0007384704594759003,-0.00026385196786472267,-0.001091043097364329,0.0,0.0,0.0,0.0,0.0,0.0,0.0,0.0,0.0,0.009698950689121457,0.034411960506694206,9.809646134361177,0.0,0.0,0.0,0.0,0.0,0.0,0.0,0.0,0.0
2025/05/25 16:43:59.18387399,1748184239,15047947,mA1/imu,0.7084317770244675,-0.7057788043573942,-0.000739713095017817,0.0003865829011862319,0.0,0.0,0.0,0.0,0.0,0.0,0.0,0.0,0.0,-0.0008654316930916345,-0.0006953038311369955,-0.0012050129937364697,0.0,0.0,0.0,0.0,0.0,0.0,0.0,0.0,0.0,0.010297626001478676,0.5533436183295745,9.809948343446242,0.0,0.0,0.0,0.0,0.0,0.0,0.0,0.0,0.0
2025/05/25 16:43:59.73007363,1748184239,67893799,mA1/imu,0.7084541994764378,-0.7057562832361974,-0.0007596281369353154,0.0003726686483035912,0.0,0.0,0.0,0.0,0.0,0.0,0.0,0.0,0.0,-0.0007601524946684273,-0.001110137698676606,-0.001315622842689305,0.0,0.0,0.0,0.0,0.0,0.0,0.0,0.0,0.0,0.010977166567548425,-0.0700442269846012,9.80794375814278,0.0,0.0,0.0,0.0,0.0,0.0,0.0,0.0,0.0
2025/05/25 16:43:59.121277977,1748184239,119589564,mA1/imu,0.708478547186887,-0.705731831786491,-0.0007805766611243574,0.00034710130819908176,0.0,0.0,0.0,0.0,0.0,0.0,0.0,0.0,0.0,0.0008141193391401112,-0.0014443925294876287,-0.0014298910032005837,0.0,0.0,0.0,0.0,0.0,0.0,0.0,0.0,0.0,0.009307869811075512,-0.586878908937021,9.806749184351979,0.0,0.0,0.0,0.0,0.0,0.0,0.0,0.0,0.0
2025/05/25 16:43:59.172979978,1748184239,171071093,mA1/imu,0.7085040161694495,-0.7057062492949886,-0.0008040378798048397,0.0003198450374133938,0.0,0.0,0.0,0.0,0.0,0.0,0.0,0.0,0.0,0.0006997056277592637,-0.0014062467962801639,-0.0014464992052276354,0.0,0.0,0.0,0.0,0.0,0.0,0.0,0.0,0.0,-0.0015439136136613215,0.03641997237240543,9.808153585078793,0.0,0.0,0.0,0.0,0.0,0.0,0.0,0.0,0.0
2025/05/25 16:43:59.224771456,1748184239,223046186,mA1/imu,0.7085293106945718,-0.7056808318936363,-0.0008300681653448288,0.00030061839777046403,0.0,0.0,0.0,0.0,0.0,0.0,0.0,0.0,0.0,-0.0008598895475066327,-0.0011434174201786528,-0.0014542494419730286,0.0,0.0,0.0,0.0,0.0,0.0,0.0,0.0,0.0,-0.006261079850740586,0.5595546459301273,9.808841292985896,0.0,0.0,0.0,0.0,0.0,0.0,0.0,0.0,0.0
2025/05/25 16:43:59.275228101,1748184239,274538171,mA1/imu,0.7085565929045213,-0.705653421990446,-0.0008492181562253232,0.0002855052242877791,0.0,0.0,0.0,0.0,0.0,0.0,0.0,0.0,0.0,-0.0006732510012027595,-0.0008406092157249145,-0.001609436803400021,0.0,0.0,0.0,0.0,0.0,0.0,0.0,0.0,0.0,-0.002900326308614835,-0.06248921602304187,9.8080135350029,0.0,0.0,0.0,0.0,0.0,0.0,0.0,0.0,0.0
2025/05/25 16:43:59.321141949,1748184239,316126052,mA1/imu,0.7085873045446857,-0.7056225835966409,-0.0008529798079741181,0.0002716283226210736,0.0,0.0,0.0,0.0,0.0,0.0,0.0,0.0,0.0,0.0010185750845624606,-0.00024112066737342318,-0.0018528080171314348,0.0,0.0,0.0,0.0,0.0,0.0,0.0,0.0,0.0,-0.011213908321755586,-0.5755384122647635,9.807278382381519,0.0,0.0,0.0,0.0,0.0,0.0,0.0,0.0,0.0
2025/05/25 16:43:59.369359679,1748184239,367767390,mA1/imu,0.7086212986253868,-0.7055884586657618,-0.0008424876611976257,0.0002689733915458212,0.0,0.0,0.0,0.0,0.0,0.0,0.0,0.0,0.0,0.001003248417209569,0.0005978625696713747,-0.0018996641100188507,0.0,0.0,0.0,0.0,0.0,0.0,0.0,0.0,0.0,-0.02370135374774783,0.050044169795382114,9.809938702331813,0.0,0.0,0.0,0.0,0.0,0.0,0.0,0.0,0.0
2025/05/25 16:43:59.425842156,1748184239,420554325,mA1/imu,0.7086536896209145,-0.705555948089988,-0.0008188079625174036,0.0002861031686943673,0.0,0.0,0.0,0.0,0.0,0.0,0.0,0.0,0.0,-0.0004433298290734116,0.0015321682275694654,-0.0017901288738346008,0.0,0.0,0.0,0.0,0.0,0.0,0.0,0.0,0.0,-0.022853086315497324,0.572121091522382,9.811121235090198,0.0,0.0,0.0,0.0,0.0,0.0,0.0,0.0,0.0
2025/05/25 16:43:59.472606622,1748184239,471528838,mA1/imu,0.7086796297816018,-0.705529932113123,-0.000770727525419373,0.0003212540202607509,0.0,0.0,0.0,0.0,0.0,0.0,0.0,0.0,0.0,-4.1617026755166045e-06,0.002761177451387701,-0.0013556070689051017,0.0,0.0,0.0,0.0,0.0,0.0,0.0,0.0,0.0,-0.017652886668261286,-0.12776872322285177,9.808483106066092,0.0,0.0,0.0,0.0,0.0,0.0,0.0,0.0,0.0
2025/05/25 16:43:59.530066471,1748184239,522810841,mA1/imu,0.7087025174164825,-0.7055069919314618,-0.0007027305480595504,0.0003637487280135622,0.0,0.0,0.0,0.0,0.0,0.0,0.0,0.0,0.0,0.0007157371502891832,0.0033277063992829693,-0.001253529817413187,0.0,0.0,0.0,0.0,0.0,0.0,0.0,0.0,0.0,-0.016858516352338003,-0.26029842361760797,9.808508692712135,0.0,0.0,0.0,0.0,0.0,0.0,0.0,0.0,0.0
2025/05/25 16:43:59.585153310,1748184239,574959049,mA1/imu,0.708726826987791,-0.7054826142096453,-0.0006297661801956312,0.00041127886066306637,0.0,0.0,0.0,0.0,0.0,0.0,0.0,0.0,0.0,0.0007193623250612075,0.0034778798932578623,-0.0014120987822459866,0.0,0.0,0.0,0.0,0.0,0.0,0.0,0.0,0.0,-0.017401486920230528,0.003203585799784187,9.81312924552287,0.0,0.0,0.0,0.0,0.0,0.0,0.0,0.0,0.0
2025/05/25 16:43:59.618371881,1748184239,615847835,mA1/imu,0.7087506026735104,-0.7054587628933564,-0.0005524104077147475,0.0004603364556869629,0.0,0.0,0.0,0.0,0.0,0.0,0.0,0.0,0.0,0.0010306048979306665,0.003614578849900866,-0.0013009478764238215,0.0,0.0,0.0,0.0,0.0,0.0,0.0,0.0,0.0,-0.016079271099400022,-0.09880872966603248,9.813103774388447,0.0,0.0,0.0,0.0,0.0,0.0,0.0,0.0,0.0
2025/05/25 16:43:59.670429584,1748184239,667569996,mA1/imu,0.7087758177979628,-0.70543345192756,-0.0004780059501577016,0.0005064747844870881,0.0,0.0,0.0,0.0,0.0,0.0,0.0,0.0,0.0,0.0007269674727557093,0.0032746367944154796,-0.0014609358374079817,0.0,0.0,0.0,0.0,0.0,0.0,0.0,0.0,0.0,-0.014033035631030255,0.0016244157476186499,9.809771903718454,0.0,0.0,0.0,0.0,0.0,0.0,0.0,0.0,0.0
2025/05/25 16:43:59.722512166,1748184239,720702277,mA1/imu,0.7088004084685855,-0.7054087541901436,-0.0004112735687390828,0.0005489268873259748,0.0,0.0,0.0,0.0,0.0,0.0,0.0,0.0,0.0,0.0006655014832090671,0.002936940382276747,-0.001344842589279825,0.0,0.0,0.0,0.0,0.0,0.0,0.0,0.0,0.0,-0.013057033807860802,-0.0003914344562304488,9.809561449147596,0.0,0.0,0.0,0.0,0.0,0.0,0.0,0.0,0.0
2025/05/25 16:43:59.776206205,1748184239,772869046,mA1/imu,0.7088229504603285,-0.705386106376882,-0.0003531953176011066,0.0005840241813023513,0.0,0.0,0.0,0.0,0.0,0.0,0.0,0.0,0.0,0.0006200658874264849,0.0024126298434646383,-0.001229269778461064,0.0,0.0,0.0,0.0,0.0,0.0,0.0,0.0,0.0,-0.011369003108079692,-0.000975742612831329,9.814453587397862,0.0,0.0,0.0,0.0,0.0,0.0,0.0,0.0,0.0
2025/05/25 16:43:59.824884048,1748184239,822954957,mA1/imu,0.7088433958062568,-0.7053655637503733,-0.00030501143466361825,0.0006071778959213074,0.0,0.0,0.0,0.0,0.0,0.0,0.0,0.0,0.0,0.0009866535391634772,0.001746061577222865,-0.0011115556755483687,0.0,0.0,0.0,0.0,0.0,0.0,0.0,0.0,0.0,-0.011090393998714546,-0.12456254022469963,9.813868642768597,0.0,0.0,0.0,0.0,0.0,0.0,0.0,0.0,0.0
2025/05/25 16:43:59.872268097,1748184239,867647843,mA1/imu,0.7088648546234466,-0.7053440047861644,-0.0002729756869433828,0.0006150415995862284,0.0,0.0,0.0,0.0,0.0,0.0,0.0,0.0,0.0,0.0009251053781291754,0.0007467833042061366,-0.0012308242993263189,0.0,0.0,0.0,0.0,0.0,0.0,0.0,0.0,0.0,-0.011689691509548635,0.23006999057323368,9.811993117211605,0.0,0.0,0.0,0.0,0.0,0.0,0.0,0.0,0.0
2025/05/25 16:43:59.921619300,1748184239,919798203,mA1/imu,0.7088854991546215,-0.7053232607624567,-0.0002638793972662935,0.0006142339801771231,0.0,0.0,0.0,0.0,0.0,0.0,0.0,0.0,0.0,-0.00043417036690606667,-9.522287874406726e-05,-0.001130057533732472,0.0,0.0,0.0,0.0,0.0,0.0,0.0,0.0,0.0,-0.010375728585263727,0.5812297706367947,9.81200857403858,0.0,0.0,0.0,0.0,0.0,0.0,0.0,0.0,0.0
2025/05/25 16:43:59.975031331,1748184239,972930803,mA1/imu,0.7089002693470885,-0.7053084211215048,-0.00026674227862341654,0.0006066821840175268,0.0,0.0,0.0,0.0,0.0,0.0,0.0,0.0,0.0,0.0006633551445065542,-0.0005558308273601653,-0.0007337453289136062,0.0,0.0,0.0,0.0,0.0,0.0,0.0,0.0,0.0,-0.0060744417210183595,-0.5935171977202752,9.8109832235871,0.0,0.0,0.0,0.0,0.0,0.0,0.0,0.0,0.0
2025/05/25 16:44:00.27638156,1748184240,22729628,mA1/imu,0.7089113011704229,-0.7052973462240507,-0.00028815418806637475,0.0005809038935901494,0.0,0.0,0.0,0.0,0.0,0.0,0.0,0.0,0.0,0.001077047378158689,-0.001928877581801591,-0.0005410698126579194,0.0,0.0,0.0,0.0,0.0,0.0,0.0,0.0,0.0,0.011951095209464052,-0.5543303417377103,9.81116084797266,0.0,0.0,0.0,0.0,0.0,0.0,0.0,0.0,0.0
2025/05/25 16:44:00.67383944,1748184240,65754638,mA1/imu,0.708918327406161,-0.7052902952706853,-0.00033938714753938763,0.0005378484960463585,0.0,0.0,0.0,0.0,0.0,0.0,0.0,0.0,0.0,-4.795060737416224e-06,-0.0031604634673535457,-0.00030659780257090403,0.0,0.0,0.0,0.0,0.0,0.0,0.0,0.0,0.0,0.0078039992566626415,0.014376775977830727,9.808766804222032,0.0,0.0,0.0,0.0,0.0,0.0,0.0,0.0,0.0
2025/05/25 16:44:00.125225268,1748184240,115761165,mA1/imu,0.7089213650903212,-0.7052872452050771,-0.0004126192331468366,0.0004791814659817559,0.0,0.0,0.0,0.0,0.0,0.0,0.0,0.0,0.0,-0.0004587370458171126,-0.003958336156480075,-0.00010605345110921137,0.0,0.0,0.0,0.0,0.0,0.0,0.0,0.0,0.0,-0.011187991897824068,-0.0010046722667687875,9.807505714561122,0.0,0.0,0.0,0.0,0.0,0.0,0.0,0.0,0.0
2025/05/25 16:44:00.170797150,1748184240,169058795,mA1/imu,0.7089221698843423,-0.7052864264961813,-0.0004911992265844477,0.0004151747129690393,0.0,0.0,0.0,0.0,0.0,0.0,0.0,0.0,0.0,-0.00026413254935694105,-0.004074374016985345,-3.838108978112128e-06,0.0,0.0,0.0,0.0,0.0,0.0,0.0,0.0,0.0,-0.013080146556670069,0.023095620404821427,9.811088222774535,0.0,0.0,0.0,0.0,0.0,0.0,0.0,0.0,0.0
2025/05/25 16:44:00.220621769,1748184240,219388562,mA1/imu,0.7089207819893095,-0.7052877903473559,-0.0005755318315354629,0.0003555470728069833,0.0,0.0,0.0,0.0,0.0,0.0,0.0,0.0,0.0,-0.0008592267974548855,-0.004034069157294881,0.0001285291599448392,0.0,0.0,0.0,0.0,0.0,0.0,0.0,0.0,0.0,-0.012386590817472285,0.15987577984045795,9.810921114041548,0.0,0.0,0.0,0.0,0.0,0.0,0.0,0.0,0.0
2025/05/25 16:44:00.277158589,1748184240,273008023,mA1/imu,0.7089170290756293,-0.7052915164478079,-0.0006577003754603243,0.00030023915668420684,0.0,0.0,0.0,0.0,0.0,0.0,0.0,0.0,0.0,-0.0014351341638427757,-0.0037549173708461706,0.0002657917001044675,0.0,0.0,0.0,0.0,0.0,0.0,0.0,0.0,0.0,-0.010807312467364088,0.14193866269952518,9.807178478774745,0.0,0.0,0.0,0.0,0.0,0.0,0.0,0.0,0.0
2025/05/25 16:44:00.325419260,1748184240,323875404,mA1/imu,0.7089109665910165,-0.7052975580916849,-0.0007307584444701427,0.00024897588770594973,0.0,0.0,0.0,0.0,0.0,0.0,0.0,0.0,0.0,-0.0009742945480607669,-0.0033458424000860154,0.0003818616761322805,0.0,0.0,0.0,0.0,0.0,0.0,0.0,0.0,0.0,-0.008881912760680451,0.11104879251441804,9.807789989172555,0.0,0.0,0.0,0.0,0.0,0.0,0.0,0.0,0.0
2025/05/25 16:44:00.366158554,1748184240,364779591,mA1/imu,0.7089029621933972,-0.7053055435050658,-0.0007982881903849959,0.00020791925261786194,0.0,0.0,0.0,0.0,0.0,0.0,0.0,0.0,0.0,-0.0009229361562737035,-0.0028733081843327255,0.0004998939591516279,0.0,0.0,0.0,0.0,0.0,0.0,0.0,0.0,0.0,-0.009363504865049424,-0.08068059682548451,9.806808620789406,0.0,0.0,0.0,0.0,0.0,0.0,0.0,0.0,0.0
2025/05/25 16:44:00.418377134,1748184240,417063658,mA1/imu,0.7088925431223586,-0.7053159680671629,-0.0008476451552646945,0.00017027238972274557,0.0,0.0,0.0,0.0,0.0,0.0,0.0,0.0,0.0,0.0010644990498898347,-0.0022037572642587865,0.0006493615358521762,0.0,0.0,0.0,0.0,0.0,0.0,0.0,0.0,0.0,-0.008316075911292145,-0.5112602333950635,9.806228407490545,0.0,0.0,0.0,0.0,0.0,0.0,0.0,0.0,0.0
2025/05/25 16:44:00.472531373,1748184240,467998005,mA1/imu,0.7088792126117368,-0.7053293089488613,-0.0008958447828055214,0.0001591439948347012,0.0,0.0,0.0,0.0,0.0,0.0,0.0,0.0,0.0,-0.0002823593066398401,-0.0013792309844549864,0.0008196743012624677,0.0,0.0,0.0,0.0,0.0,0.0,0.0,0.0,0.0,-0.010540074413505076,0.026446408882238526,9.809631589034824,0.0,0.0,0.0,0.0,0.0,0.0,0.0,0.0,0.0
2025/05/25 16:44:00.522443813,1748184240,520587574,mA1/imu,0.7088629435480456,-0.7053456245827386,-0.0009234896693549405,0.00015592696126238872,0.0,0.0,0.0,0.0,0.0,0.0,0.0,0.0,0.0,-0.0014247982235938551,-0.0005360486232182737,0.000987255140893129,0.0,0.0,0.0,0.0,0.0,0.0,0.0,0.0,0.0,-0.009261382852312147,-0.057784806879211045,9.8099582787613,0.0,0.0,0.0,0.0,0.0,0.0,0.0,0.0,0.0
2025/05/25 16:44:00.574706343,1748184240,573252330,mA1/imu,0.7088377069955684,-0.7053709797215071,-0.0009256758620398377,0.00017097422170460049,0.0,0.0,0.0,0.0,0.0,0.0,0.0,0.0,0.0,-0.0016275509064313514,0.0008030114067635634,0.00159678038388556,0.0,0.0,0.0,0.0,0.0,0.0,0.0,0.0,0.0,-0.0032597121068243806,-0.09058731105782762,9.808365411643596,0.0,0.0,0.0,0.0,0.0,0.0,0.0,0.0,0.0
2025/05/25 16:44:00.625716502,1748184240,624531425,mA1/imu,0.7088078485023573,-0.7054010004364131,-0.0009081280873646691,0.00019439172818514145,0.0,0.0,0.0,0.0,0.0,0.0,0.0,0.0,0.0,-0.0007773357669240143,0.0013973832250182324,0.0017564490681710827,0.0,0.0,0.0,0.0,0.0,0.0,0.0,0.0,0.0,-0.004452843238687512,-0.03152591223376833,9.807206788238796,0.0,0.0,0.0,0.0,0.0,0.0,0.0,0.0,0.0
2025/05/25 16:44:00.670598045,1748184240,666326875,mA1/imu,0.7087756912567307,-0.7054333431834315,-0.0008769851274330585,0.00022069362585347494,0.0,0.0,0.0,0.0,0.0,0.0,0.0,0.0,0.0,0.0001587685593590666,0.001782725947616709,0.0018758856501824455,0.0,0.0,0.0,0.0,0.0,0.0,0.0,0.0,0.0,-0.0023130086174187395,0.20167663428979787,9.810060614621724,0.0,0.0,0.0,0.0,0.0,0.0,0.0,0.0,0.0
2025/05/25 16:44:00.721696733,1748184240,719146892,mA1/imu,0.7087418369521566,-0.7054673863316947,-0.0008429299860514977,0.00025464690992210156,0.0,0.0,0.0,0.0,0.0,0.0,0.0,0.0,0.0,-9.109715442058224e-05,0.0019562127373933895,0.0018843349729035605,0.0,0.0,0.0,0.0,0.0,0.0,0.0,0.0,0.0,0.00731504952572486,0.3820046021000622,9.810066622353265,0.0,0.0,0.0,0.0,0.0,0.0,0.0,0.0,0.0
2025/05/25 16:44:00.775723175,1748184240,774095356,mA1/imu,0.7087090474604362,-0.7055003551990741,-0.0008077526830810229,0.0002870493067884988,0.0,0.0,0.0,0.0,0.0,0.0,0.0,0.0,0.0,0.0015689478129645882,0.0019191389150720398,0.0019102617248844577,0.0,0.0,0.0,0.0,0.0,0.0,0.0,0.0,0.0,0.0004510351740453396,-0.4834932301875442,9.809311029068498,0.0,0.0,0.0,0.0,0.0,0.0,0.0,0.0,0.0
2025/05/25 16:44:00.819395239,1748184240,815690453,mA1/imu,0.7086737894957159,-0.7055357911705075,-0.0007764527785659692,0.00032338872965073596,0.0,0.0,0.0,0.0,0.0,0.0,0.0,0.0,0.0,0.0003951497664890633,0.0018662379940905056,0.0020632115393555248,0.0,0.0,0.0,0.0,0.0,0.0,0.0,0.0,0.0,0.0032664321121941772,0.012071176907754182,9.81253242009438,0.0,0.0,0.0,0.0,0.0,0.0,0.0,0.0,0.0
2025/05/25 16:44:00.874885983,1748184240,872989590,mA1/imu,0.7086359184677833,-0.7055738570880833,-0.0007385887468853063,0.0003489094860334444,0.0,0.0,0.0,0.0,0.0,0.0,0.0,0.0,0.0,0.0003304229446493235,0.0017487896470033055,0.002217339510511135,0.0,0.0,0.0,0.0,0.0,0.0,0.0,0.0,0.0,-0.0013337366907612445,0.004728406472991352,9.816314626458725,0.0,0.0,0.0,0.0,0.0,0.0,0.0,0.0,0.0
2025/05/25 16:44:00.926078141,1748184240,923763963,mA1/imu,0.7085948743483285,-0.7056150955364351,-0.0007072735226020384,0.0003751833528198165,0.0,0.0,0.0,0.0,0.0,0.0,0.0,0.0,0.0,0.00013999478198099843,0.0014969280851907334,0.0023968601517089156,0.0,0.0,0.0,0.0,0.0,0.0,0.0,0.0,0.0,0.0037000158221557177,-0.06244631368039634,9.810622949980703,0.0,0.0,0.0,0.0,0.0,0.0,0.0,0.0,0.0
2025/05/25 16:44:00.967065218,1748184240,966012699,mA1/imu,0.7085505676657713,-0.7056596159772578,-0.0006714072755602716,0.0003855536442674793,0.0,0.0,0.0,0.0,0.0,0.0,0.0,0.0,0.0,-0.00010784381401860186,0.0011747028047357916,0.0025885007518802942,0.0,0.0,0.0,0.0,0.0,0.0,0.0,0.0,0.0,0.0020322049778893213,0.5947635527580851,9.814043991316776,0.0,0.0,0.0,0.0,0.0,0.0,0.0,0.0,0.0
2025/05/25 16:44:01.19628509,1748184241,17309357,mA1/imu,0.7085028035796372,-0.7057075899367081,-0.0006475908339938956,0.00039427354563566165,0.0,0.0,0.0,0.0,0.0,0.0,0.0,0.0,0.0,-4.829644086335637e-05,0.0007631694001298417,0.002787894069803643,0.0,0.0,0.0,0.0,0.0,0.0,0.0,0.0,0.0,0.002184041163833296,0.596586197315209,9.814010069721814,0.0,0.0,0.0,0.0,0.0,0.0,0.0,0.0,0.0
2025/05/25 16:44:01.72065331,1748184241,71062967,mA1/imu,0.70845377197953,-0.7057568254344915,-0.0006352653485080125,0.000390843372593108,0.0,0.0,0.0,0.0,0.0,0.0,0.0,0.0,0.0,0.0017296526808003375,-2.881228040850673e-05,0.0028173455106833404,0.0,0.0,0.0,0.0,0.0,0.0,0.0,0.0,0.0,0.004760915125698556,-0.5438994395482768,9.809119357852815,0.0,0.0,0.0,0.0,0.0,0.0,0.0,0.0,0.0
2025/05/25 16:44:01.123959546,1748184241,121818170,mA1/imu,0.7084018909121279,-0.7058089088158568,-0.0006341395036339008,0.00037822662668670205,0.0,0.0,0.0,0.0,0.0,0.0,0.0,0.0,0.0,0.001759182831236918,-0.0005595802444417323,0.0030275047000485195,0.0,0.0,0.0,0.0,0.0,0.0,0.0,0.0,0.0,0.0063620181004385035,-0.5467451542296388,9.810207286467971,0.0,0.0,0.0,0.0,0.0,0.0,0.0,0.0,0.0
2025/05/25 16:44:01.176796653,1748184241,174129982,mA1/imu,0.7083462933524899,-0.705864708659031,-0.0006429960305512402,0.00035821724456548134,0.0,0.0,0.0,0.0,0.0,0.0,0.0,0.0,0.0,9.2311677693527e-05,-0.0010213869393206356,0.0032337486378492602,0.0,0.0,0.0,0.0,0.0,0.0,0.0,0.0,0.0,0.005442259225252136,-0.025758066633555093,9.81393993591113,0.0,0.0,0.0,0.0,0.0,0.0,0.0,0.0,0.0
2025/05/25 16:44:01.218816534,1748184241,216499685,mA1/imu,0.7082870352629204,-0.7059241696006608,-0.0006591284531305809,0.00032863621581144563,0.0,0.0,0.0,0.0,0.0,0.0,0.0,0.0,0.0,-0.0015274979030309344,-0.0014379045255831756,0.0034380471329319554,0.0,0.0,0.0,0.0,0.0,0.0,0.0,0.0,0.0,0.004286013387981476,0.4999833479697456,9.812251687808832,0.0,0.0,0.0,0.0,0.0,0.0,0.0,0.0,0.0
2025/05/25 16:44:01.270262666,1748184241,268587564,mA1/imu,0.7082270463110139,-0.7059843499140183,-0.0006828724937312393,0.0002867668308421887,0.0,0.0,0.0,0.0,0.0,0.0,0.0,0.0,0.0,-0.00024090174192417912,-0.0020539984614843815,0.003427461899300245,0.0,0.0,0.0,0.0,0.0,0.0,0.0,0.0,0.0,0.005989107857205152,-0.03773023694174334,9.807818402343493,0.0,0.0,0.0,0.0,0.0,0.0,0.0,0.0,0.0
2025/05/25 16:44:01.324822654,1748184241,320163573,mA1/imu,0.7081641898304807,-0.7060473863268699,-0.0007148563721096107,0.0002397563387025669,0.0,0.0,0.0,0.0,0.0,0.0,0.0,0.0,0.0,0.0011805216275678002,-0.0023435726190636674,0.00364709824098047,0.0,0.0,0.0,0.0,0.0,0.0,0.0,0.0,0.0,0.006114583165254531,0.06742817703811206,9.807559658680157,0.0,0.0,0.0,0.0,0.0,0.0,0.0,0.0,0.0
2025/05/25 16:44:01.372397038,1748184241,371387662,mA1/imu,0.7080974347129084,-0.706114306114938,-0.0007559447280642583,0.00019544919053484917,0.0,0.0,0.0,0.0,0.0,0.0,0.0,0.0,0.0,0.0012278345455422836,-0.002463481142278931,0.0038716300545492137,0.0,0.0,0.0,0.0,0.0,0.0,0.0,0.0,0.0,0.003120029563167582,0.0834526575791536,9.809439549660043,0.0,0.0,0.0,0.0,0.0,0.0,0.0,0.0,0.0
2025/05/25 16:44:01.422990474,1748184241,421454744,mA1/imu,0.7080266780293539,-0.7061852110783833,-0.0008040454732324482,0.0001560889924996205,0.0,0.0,0.0,0.0,0.0,0.0,0.0,0.0,0.0,-1.5568881786948188e-05,-0.0024907325123207868,0.00409285827433762,0.0,0.0,0.0,0.0,0.0,0.0,0.0,0.0,0.0,0.006733157937221172,-0.000873796440413261,9.810295510082433,0.0,0.0,0.0,0.0,0.0,0.0,0.0,0.0,0.0
2025/05/25 16:44:01.473778126,1748184241,472732372,mA1/imu,0.707946537521793,-0.7062655132055868,-0.0008425573410787931,0.0001223293929644872,0.0,0.0,0.0,0.0,0.0,0.0,0.0,0.0,0.0,-0.0007210276256369057,-0.0019346925538458587,0.004700159600533272,0.0,0.0,0.0,0.0,0.0,0.0,0.0,0.0,0.0,0.009328995532797117,-0.04426799435210474,9.809943182229741,0.0,0.0,0.0,0.0,0.0,0.0,0.0,0.0,0.0
2025/05/25 16:44:01.515612733,1748184241,514287084,mA1/imu,0.7078616014972947,-0.706350603519883,-0.0008775218157472356,8.93769826529782e-05,0.0,0.0,0.0,0.0,0.0,0.0,0.0,0.0,0.0,-0.000544543090878717,-0.0019082939752625258,0.0048842673140005,0.0,0.0,0.0,0.0,0.0,0.0,0.0,0.0,0.0,0.009474670826524935,-0.022681902063907883,9.805871088689516,0.0,0.0,0.0,0.0,0.0,0.0,0.0,0.0,0.0
2025/05/25 16:44:01.578647586,1748184241,569560678,mA1/imu,0.7077653486067585,-0.7064470237730337,-0.0008995653653102037,6.852685670310908e-05,0.0,0.0,0.0,0.0,0.0,0.0,0.0,0.0,0.0,-0.0009592580344105188,-0.0009121619346290528,0.0057118362858189125,0.0,0.0,0.0,0.0,0.0,0.0,0.0,0.0,0.0,0.010056755229265541,0.5807870418959519,9.808881298238868,0.0,0.0,0.0,0.0,0.0,0.0,0.0,0.0,0.0
2025/05/25 16:44:01.619942952,1748184241,617351474,mA1/imu,0.7076629951045634,-0.7065495231376776,-0.0009236793455820555,5.941401836053107e-05,0.0,0.0,0.0,0.0,0.0,0.0,0.0,0.0,0.0,-0.0008779277486824328,-0.001076439882388006,0.005770378271601967,0.0,0.0,0.0,0.0,0.0,0.0,0.0,0.0,0.0,0.03051404246382328,0.593987713847323,9.808518308077996,0.0,0.0,0.0,0.0,0.0,0.0,0.0,0.0,0.0
2025/05/25 16:44:01.672521137,1748184241,669950424,mA1/imu,0.7075593215064393,-0.7066533094187428,-0.0009511073068317027,4.724168302273771e-05,0.0,0.0,0.0,0.0,0.0,0.0,0.0,0.0,0.0,0.0008346171046546308,-0.0012647068191041079,0.0058401247074016185,0.0,0.0,0.0,0.0,0.0,0.0,0.0,0.0,0.0,0.029653862157087124,-0.5436417532191129,9.806219558261086,0.0,0.0,0.0,0.0,0.0,0.0,0.0,0.0,0.0
2025/05/25 16:44:01.721887290,1748184241,720497982,mA1/imu,0.7074576501020727,-0.7067550483038768,-0.0009869324867793996,3.119782855301727e-05,0.0,0.0,0.0,0.0,0.0,0.0,0.0,0.0,0.0,0.0007953988948206374,-0.0015806283841695928,0.0057214309679210875,0.0,0.0,0.0,0.0,0.0,0.0,0.0,0.0,0.0,0.024003509775368404,-0.5442238814100151,9.807826773475451,0.0,0.0,0.0,0.0,0.0,0.0,0.0,0.0,0.0
2025/05/25 16:44:01.773902710,1748184241,773174724,mA1/imu,0.7073584703016288,-0.706854260661463,-0.0010240262450068593,6.8939056876380625e-06,0.0,0.0,0.0,0.0,0.0,0.0,0.0,0.0,0.0,-0.00018425720226533714,-0.0018526514381754064,0.0055316076241494275,0.0,0.0,0.0,0.0,0.0,0.0,0.0,0.0,0.0,0.028176493179468697,0.022913753068305467,9.809722971765192,0.0,0.0,0.0,0.0,0.0,0.0,0.0,0.0,0.0
2025/05/25 16:44:01.822473957,1748184241,817840997,mA1/imu,0.7072620332898241,-0.7069506787938936,-0.0010742050431673997,-1.015489575615367e-05,0.0,0.0,0.0,0.0,0.0,0.0,0.0,0.0,0.0,-0.0014578716495284433,-0.0018770686134270786,0.005427470832237006,0.0,0.0,0.0,0.0,0.0,0.0,0.0,0.0,0.0,0.02108882040567121,-0.058715869942901344,9.810447402965481,0.0,0.0,0.0,0.0,0.0,0.0,0.0,0.0,0.0
2025/05/25 16:44:01.867765287,1748184241,866536826,mA1/imu,0.7071668868098016,-0.7070457927039193,-0.001113559980548238,-3.469278545873203e-05,0.0,0.0,0.0,0.0,0.0,0.0,0.0,0.0,0.0,-0.0016275574974034515,-0.0017783198845581468,0.005327257187105733,0.0,0.0,0.0,0.0,0.0,0.0,0.0,0.0,0.0,0.027005470165928407,-0.07812035373734777,9.81032327681761,0.0,0.0,0.0,0.0,0.0,0.0,0.0,0.0,0.0
2025/05/25 16:44:01.922909104,1748184241,916782846,mA1/imu,0.7070741181789605,-0.7071385035080748,-0.0011510616331252927,-5.7575364110478886e-05,0.0,0.0,0.0,0.0,0.0,0.0,0.0,0.0,0.0,4.823481952427375e-05,-0.0016530532874107831,0.005190854213448801,0.0,0.0,0.0,0.0,0.0,0.0,0.0,0.0,0.0,0.02630986316416946,-0.1664003691761656,9.81036827060029,0.0,0.0,0.0,0.0,0.0,0.0,0.0,0.0,0.0
2025/05/25 16:44:01.974985701,1748184241,968986782,mA1/imu,0.7069845261774386,-0.7072280201037601,-0.0011836046211490744,-8.003673551344986e-05,0.0,0.0,0.0,0.0,0.0,0.0,0.0,0.0,0.0,-0.0005202290708524544,-0.001468848611517235,0.004993644499345489,0.0,0.0,0.0,0.0,0.0,0.0,0.0,0.0,0.0,0.024914281851874873,0.6267974722365048,9.812188461457527,0.0,0.0,0.0,0.0,0.0,0.0,0.0,0.0,0.0
2025/05/25 16:44:02.22587293,1748184242,20178014,mA1/imu,0.7068975565181899,-0.7073148835954114,-0.001221731284225608,-8.605632605471832e-05,0.0,0.0,0.0,0.0,0.0,0.0,0.0,0.0,0.0,-0.0021659910941533634,-0.0010904043651074216,0.004865217221011708,0.0,0.0,0.0,0.0,0.0,0.0,0.0,0.0,0.0,0.024555397745823725,0.5100920677289741,9.81200697800054,0.0,0.0,0.0,0.0,0.0,0.0,0.0,0.0,0.0
2025/05/25 16:44:02.82205654,1748184242,76404582,mA1/imu,0.7068127926004344,-0.7073995470606939,-0.0012443334885944,-9.310676434328335e-05,0.0,0.0,0.0,0.0,0.0,0.0,0.0,0.0,0.0,-0.0002395420858412039,-0.0006601389480787906,0.004742989170170523,0.0,0.0,0.0,0.0,0.0,0.0,0.0,0.0,0.0,0.02362745726262724,-0.6262280779274029,9.811876288197979,0.0,0.0,0.0,0.0,0.0,0.0,0.0,0.0,0.0
2025/05/25 16:44:02.125101452,1748184242,122201828,mA1/imu,0.7067301651391354,-0.7074820841291022,-0.0012507710524365806,-9.945112814474218e-05,0.0,0.0,0.0,0.0,0.0,0.0,0.0,0.0,0.0,0.0002504712931359185,-0.000166743886391271,0.004624146795509802,0.0,0.0,0.0,0.0,0.0,0.0,0.0,0.0,0.0,0.023706702005924667,0.028384247088565955,9.81227251119962,0.0,0.0,0.0,0.0,0.0,0.0,0.0,0.0,0.0
2025/05/25 16:44:02.179308798,1748184242,174491514,mA1/imu,0.7066496065438276,-0.7075625515890093,-0.0012489891283845203,-9.584602921907997e-05,0.0,0.0,0.0,0.0,0.0,0.0,0.0,0.0,0.0,0.00018217999774426568,0.0003573342947170342,0.004509051846125294,0.0,0.0,0.0,0.0,0.0,0.0,0.0,0.0,0.0,0.02305398222943316,0.040350771635414937,9.81340320382155,0.0,0.0,0.0,0.0,0.0,0.0,0.0,0.0,0.0
2025/05/25 16:44:02.231782763,1748184242,224746990,mA1/imu,0.7065710441743003,-0.7076410247524636,-0.001238002448474787,-8.349646581808014e-05,0.0,0.0,0.0,0.0,0.0,0.0,0.0,0.0,0.0,0.001230867749144061,0.0008533210811398154,0.00439824560073078,0.0,0.0,0.0,0.0,0.0,0.0,0.0,0.0,0.0,0.022591882701764262,-0.3671138872261626,9.811443901902772,0.0,0.0,0.0,0.0,0.0,0.0,0.0,0.0,0.0
2025/05/25 16:44:02.272481608,1748184242,266765779,mA1/imu,0.7064953398893251,-0.7077166350942528,-0.0012229208101122563,-5.991850455801663e-05,0.0,0.0,0.0,0.0,0.0,0.0,0.0,0.0,0.0,0.00015358041502146224,0.0012394330545979178,0.004220486017976301,0.0,0.0,0.0,0.0,0.0,0.0,0.0,0.0,0.0,0.02278567399499492,-0.2725377362568979,9.811090290154826,0.0,0.0,0.0,0.0,0.0,0.0,0.0,0.0,0.0
2025/05/25 16:44:02.321114079,1748184242,317529288,mA1/imu,0.7064210173114012,-0.7077908880957853,-0.001184554540686813,-4.312592031778756e-05,0.0,0.0,0.0,0.0,0.0,0.0,0.0,0.0,0.0,0.0011975070852097475,0.0018638688528250544,0.004266247392799171,0.0,0.0,0.0,0.0,0.0,0.0,0.0,0.0,0.0,0.0049201095301629385,0.06095769040285823,9.810427258278606,0.0,0.0,0.0,0.0,0.0,0.0,0.0,0.0,0.0
2025/05/25 16:44:02.375591056,1748184242,371098894,mA1/imu,0.70634426053393,-0.7078675562827841,-0.0011438365326820507,-3.316918902794737e-06,0.0,0.0,0.0,0.0,0.0,0.0,0.0,0.0,0.0,0.0010124874320652651,0.00237717649763357,0.004315450443779005,0.0,0.0,0.0,0.0,0.0,0.0,0.0,0.0,0.0,0.024476788887119297,0.04360114572093588,9.810304653951242,0.0,0.0,0.0,0.0,0.0,0.0,0.0,0.0,0.0
2025/05/25 16:44:02.421452396,1748184242,418209061,mA1/imu,0.7062690646393815,-0.7079426494799363,-0.0011007733034605499,4.097408297622641e-05,0.0,0.0,0.0,0.0,0.0,0.0,0.0,0.0,0.0,-0.0008246111669957213,0.002505721127706268,0.004212290305841512,0.0,0.0,0.0,0.0,0.0,0.0,0.0,0.0,0.0,0.02437810565596784,-0.08892813217590208,9.811439094322004,0.0,0.0,0.0,0.0,0.0,0.0,0.0,0.0,0.0
2025/05/25 16:44:02.467620061,1748184242,466445912,mA1/imu,0.7061956396246548,-0.7080159858638607,-0.00103819116759886,6.704811291784239e-05,0.0,0.0,0.0,0.0,0.0,0.0,0.0,0.0,0.0,0.00017164694404982206,0.0024968273681771273,0.004111698553110271,0.0,0.0,0.0,0.0,0.0,0.0,0.0,0.0,0.0,0.024788733052139217,-0.027383274505965498,9.808354738404539,0.0,0.0,0.0,0.0,0.0,0.0,0.0,0.0,0.0
2025/05/25 16:44:02.520285214,1748184242,519083835,mA1/imu,0.7061239297875189,-0.7080875638146921,-0.0009930695211892164,0.00010754223129065522,0.0,0.0,0.0,0.0,0.0,0.0,0.0,0.0,0.0,0.0014097280711505274,0.0023444872674139375,0.0040161643114508296,0.0,0.0,0.0,0.0,0.0,0.0,0.0,0.0,0.0,0.024400534730000305,-0.5713605390334058,9.80823441684712,0.0,0.0,0.0,0.0,0.0,0.0,0.0,0.0,0.0
2025/05/25 16:44:02.575289567,1748184242,570652174,mA1/imu,0.7060546540106999,-0.7081567046379503,-0.0009430287476157105,0.0001338765504805515,0.0,0.0,0.0,0.0,0.0,0.0,0.0,0.0,0.0,0.0006775844755731014,0.0020215147008809174,0.0038610363933122838,0.0,0.0,0.0,0.0,0.0,0.0,0.0,0.0,0.0,0.024510559087109723,-0.39336876530084947,9.808901294233255,0.0,0.0,0.0,0.0,0.0,0.0,0.0,0.0,0.0
2025/05/25 16:44:02.628223087,1748184242,623015497,mA1/imu,0.7059873383898403,-0.7082238647135186,-0.0009005980125583397,0.00015622642764861441,0.0,0.0,0.0,0.0,0.0,0.0,0.0,0.0,0.0,0.0004395842196581258,0.0016849351579171937,0.003766349290081479,0.0,0.0,0.0,0.0,0.0,0.0,0.0,0.0,0.0,0.02399402781885311,-0.6387127190720674,9.807481573044953,0.0,0.0,0.0,0.0,0.0,0.0,0.0,0.0,0.0
2025/05/25 16:44:02.667274384,1748184242,665322277,mA1/imu,0.7059216853446215,-0.7082893486779487,-0.0008625875594762745,0.00016926983957095708,0.0,0.0,0.0,0.0,0.0,0.0,0.0,0.0,0.0,0.0006939707766220687,0.0012711452560005988,0.003672630957073845,0.0,0.0,0.0,0.0,0.0,0.0,0.0,0.0,0.0,0.024048672840123714,-0.03195436769963771,9.807834289609165,0.0,0.0,0.0,0.0,0.0,0.0,0.0,0.0,0.0
2025/05/25 16:44:02.716248166,1748184242,715303856,mA1/imu,0.7058578159866347,-0.7083530332659739,-0.0008327209822251945,0.00017449710106368636,0.0,0.0,0.0,0.0,0.0,0.0,0.0,0.0,0.0,0.0015849080535593554,0.000777323360561336,0.0035505791549433783,0.0,0.0,0.0,0.0,0.0,0.0,0.0,0.0,0.0,0.02627071423840206,-0.5541108573915114,9.806171154219907,0.0,0.0,0.0,0.0,0.0,0.0,0.0,0.0,0.0
2025/05/25 16:44:02.768734997,1748184242,767164187,mA1/imu,0.7057965024272743,-0.7084141481169711,-0.0008138293174627445,0.00017202027408492711,0.0,0.0,0.0,0.0,0.0,0.0,0.0,0.0,0.0,0.0018404755368270464,0.00026291753783272735,0.003423569435989684,0.0,0.0,0.0,0.0,0.0,0.0,0.0,0.0,0.0,0.02263634955684761,-0.39290830298462354,9.807751510684282,0.0,0.0,0.0,0.0,0.0,0.0,0.0,0.0,0.0
2025/05/25 16:44:02.820719555,1748184242,817474563,mA1/imu,0.7057368008647708,-0.7084736254606573,-0.0008129130796054374,0.0001705992853080167,0.0,0.0,0.0,0.0,0.0,0.0,0.0,0.0,0.0,0.0003270443974559298,-0.00021453370690117173,0.0033355565027536173,0.0,0.0,0.0,0.0,0.0,0.0,0.0,0.0,0.0,0.0230347213631076,-0.23123006127661594,9.80720279015325,0.0,0.0,0.0,0.0,0.0,0.0,0.0,0.0,0.0
2025/05/25 16:44:02.872234410,1748184242,871444548,mA1/imu,0.7056786497768747,-0.7085315536707896,-0.0008108848713734027,0.00015220929509594003,0.0,0.0,0.0,0.0,0.0,0.0,0.0,0.0,0.0,-0.0002253985310397755,-0.0006259697939270605,0.00324773507337074,0.0,0.0,0.0,0.0,0.0,0.0,0.0,0.0,0.0,0.02201256216083852,-0.039975892600882586,9.80791198345525,0.0,0.0,0.0,0.0,0.0,0.0,0.0,0.0,0.0
2025/05/25 16:44:02.922938500,1748184242,921837849,mA1/imu,0.705622016823003,-0.7085879448949508,-0.0008221844797306928,0.0001331798388364945,0.0,0.0,0.0,0.0,0.0,0.0,0.0,0.0,0.0,0.0007989528759007884,-0.0010048044936672679,0.0031611723017209003,0.0,0.0,0.0,0.0,0.0,0.0,0.0,0.0,0.0,0.021069758689331634,-0.5875781375181496,9.807857404470456,0.0,0.0,0.0,0.0,0.0,0.0,0.0,0.0,0.0
2025/05/25 16:44:02.972580697,1748184242,967473354,mA1/imu,0.705567461474174,-0.7086422477714518,-0.0008424721120734731,0.00011055792467935425,0.0,0.0,0.0,0.0,0.0,0.0,0.0,0.0,0.0,0.0008959099442548277,-0.0013355950453708826,0.003037577706402955,0.0,0.0,0.0,0.0,0.0,0.0,0.0,0.0,0.0,0.020228925427890558,-0.5772371263212066,9.808449948727688,0.0,0.0,0.0,0.0,0.0,0.0,0.0,0.0,0.0
2025/05/25 16:44:03.29150580,1748184243,17960455,mA1/imu,0.7055145087550017,-0.7086949453299057,-0.0008636353885838294,8.083282769313801e-05,0.0,0.0,0.0,0.0,0.0,0.0,0.0,0.0,0.0,0.0006575906582881361,-0.0015108667072596296,0.0029542604777672778,0.0,0.0,0.0,0.0,0.0,0.0,0.0,0.0,0.0,0.01995142451211151,-0.5871922062323306,9.809373207033923,0.0,0.0,0.0,0.0,0.0,0.0,0.0,0.0,0.0
2025/05/25 16:44:03.70957390,1748184243,69705848,mA1/imu,0.7054629853598327,-0.708746203221861,-0.0008904537164347525,5.289582229446897e-05,0.0,0.0,0.0,0.0,0.0,0.0,0.0,0.0,0.0,-0.0013002240641720759,-0.0015644283397704781,0.002874313919746065,0.0,0.0,0.0,0.0,0.0,0.0,0.0,0.0,0.0,0.01926919993201676,0.5416583122859755,9.81018099765229,0.0,0.0,0.0,0.0,0.0,0.0,0.0,0.0,0.0
2025/05/25 16:44:03.124156630,1748184243,122723507,mA1/imu,0.7054137711261482,-0.708795154157906,-0.0009167440325982816,2.2983371760714084e-05,0.0,0.0,0.0,0.0,0.0,0.0,0.0,0.0,0.0,-0.00037388406660608756,-0.0016449760138877165,0.0026220231328379943,0.0,0.0,0.0,0.0,0.0,0.0,0.0,0.0,0.0,0.030056810534819817,-0.016889505112133663,9.811875467044013,0.0,0.0,0.0,0.0,0.0,0.0,0.0,0.0,0.0
2025/05/25 16:44:03.168556725,1748184243,166122246,mA1/imu,0.7053703135817337,-0.70883836376421,-0.000945891655693404,-7.915789439637462e-06,0.0,0.0,0.0,0.0,0.0,0.0,0.0,0.0,0.0,0.0005404626657923854,-0.0016309511420775182,0.0024055458519839667,0.0,0.0,0.0,0.0,0.0,0.0,0.0,0.0,0.0,0.016340909641171016,0.049540252715608225,9.812413001145282,0.0,0.0,0.0,0.0,0.0,0.0,0.0,0.0,0.0
2025/05/25 16:44:03.223540112,1748184243,218380460,mA1/imu,0.7053284528998234,-0.7088799806859546,-0.000972316773494902,-3.33573747603178e-05,0.0,0.0,0.0,0.0,0.0,0.0,0.0,0.0,0.0,0.0012742246804231725,-0.0013535283733281385,0.0023302732541940806,0.0,0.0,0.0,0.0,0.0,0.0,0.0,0.0,0.0,0.016261501554811056,-0.28437517133123774,9.81157871806006,0.0,0.0,0.0,0.0,0.0,0.0,0.0,0.0,0.0
2025/05/25 16:44:03.277005083,1748184243,271596716,mA1/imu,0.7052879196488121,-0.7089202667339051,-0.0010019710576328845,-4.319003786778467e-05,0.0,0.0,0.0,0.0,0.0,0.0,0.0,0.0,0.0,-0.0007544816397626689,-0.0009655166821195496,0.002256152719321807,0.0,0.0,0.0,0.0,0.0,0.0,0.0,0.0,0.0,0.015991830789616135,-0.03465925792541063,9.811517601908777,0.0,0.0,0.0,0.0,0.0,0.0,0.0,0.0,0.0
2025/05/25 16:44:03.326166286,1748184243,323735774,mA1/imu,0.7052487918263886,-0.7089591746294146,-0.001013442382901235,-5.719034002776369e-05,0.0,0.0,0.0,0.0,0.0,0.0,0.0,0.0,0.0,0.000723165471254621,-0.0005820027063131212,0.002160908335341459,0.0,0.0,0.0,0.0,0.0,0.0,0.0,0.0,0.0,0.01879264461533659,-0.5597336598661437,9.810656956055471,0.0,0.0,0.0,0.0,0.0,0.0,0.0,0.0,0.0
2025/05/25 16:44:03.368660108,1748184243,365772369,mA1/imu,0.7052116714365319,-0.7089960873546342,-0.001021217499215731,-6.083035665340836e-05,0.0,0.0,0.0,0.0,0.0,0.0,0.0,0.0,0.0,0.0001791697445306596,-0.0001372829184049206,0.0020680073674008595,0.0,0.0,0.0,0.0,0.0,0.0,0.0,0.0,0.0,0.014659738315112159,0.030776572433098268,9.812915131662695,0.0,0.0,0.0,0.0,0.0,0.0,0.0,0.0,0.0
2025/05/25 16:44:03.423108701,1748184243,417326462,mA1/imu,0.7051757567611784,-0.7090318021919549,-0.0010261441158193668,-5.084271418643319e-05,0.0,0.0,0.0,0.0,0.0,0.0,0.0,0.0,0.0,-0.001384992710414872,0.0003154215519029755,0.0019833277345993683,0.0,0.0,0.0,0.0,0.0,0.0,0.0,0.0,0.0,0.018341015549847017,0.5532404780086838,9.813774424086835,0.0,0.0,0.0,0.0,0.0,0.0,0.0,0.0,0.0
2025/05/25 16:44:03.473949576,1748184243,470176960,mA1/imu,0.7051415984977814,-0.7090657871826472,-0.001016779731079239,-4.0914850717842384e-05,0.0,0.0,0.0,0.0,0.0,0.0,0.0,0.0,0.0,0.00047733336545221746,0.0007255652621841302,0.0019060314387925365,0.0,0.0,0.0,0.0,0.0,0.0,0.0,0.0,0.0,0.014587376085482065,-0.5789001905616985,9.810879199510675,0.0,0.0,0.0,0.0,0.0,0.0,0.0,0.0,0.0
2025/05/25 16:44:03.525514136,1748184243,522950336,mA1/imu,0.7051083211780884,-0.7090988993774245,-0.0010029555637614312,-1.9679428369921226e-05,0.0,0.0,0.0,0.0,0.0,0.0,0.0,0.0,0.0,0.00024793099497317334,0.0011549365913864397,0.0018610017754269305,0.0,0.0,0.0,0.0,0.0,0.0,0.0,0.0,0.0,0.014779928954746498,-0.3172879073462442,9.810976825832652,0.0,0.0,0.0,0.0,0.0,0.0,0.0,0.0,0.0
2025/05/25 16:44:03.575800662,1748184243,574183116,mA1/imu,0.7050765212131217,-0.70913054923112,-0.0009814983249477232,6.496977037725397e-06,0.0,0.0,0.0,0.0,0.0,0.0,0.0,0.0,0.0,-0.0013764514882663628,0.001476321746739187,0.001759510547602977,0.0,0.0,0.0,0.0,0.0,0.0,0.0,0.0,0.0,0.015217116463886755,0.5475938660509352,9.81055214031055,0.0,0.0,0.0,0.0,0.0,0.0,0.0,0.0,0.0
2025/05/25 16:44:03.615081927,1748184243,614016811,mA1/imu,0.7050461547084751,-0.709160779877886,-0.000952193387601586,3.662696055688528e-05,0.0,0.0,0.0,0.0,0.0,0.0,0.0,0.0,0.0,-0.0013784418397047545,0.0018537340011101598,0.0016499648469069537,0.0,0.0,0.0,0.0,0.0,0.0,0.0,0.0,0.0,0.011655577526967015,0.5439303718313084,9.809375388485352,0.0,0.0,0.0,0.0,0.0,0.0,0.0,0.0,0.0
2025/05/25 16:44:03.669408215,1748184243,667278473,mA1/imu,0.7050185980995127,-0.7091882202183988,-0.0009163774188865,6.992627455001846e-05,0.0,0.0,0.0,0.0,0.0,0.0,0.0,0.0,0.0,0.0006619562889273662,0.002029244757738227,0.0015315909410372824,0.0,0.0,0.0,0.0,0.0,0.0,0.0,0.0,0.0,0.014751649114986283,-0.5761143538539384,9.809414634423115,0.0,0.0,0.0,0.0,0.0,0.0,0.0,0.0,0.0
2025/05/25 16:44:03.720694313,1748184243,717072800,mA1/imu,0.7049919613044036,-0.7092147497593988,-0.0008734874105319606,0.00010119104355564866,0.0,0.0,0.0,0.0,0.0,0.0,0.0,0.0,0.0,0.002163346683103297,0.002119012337076715,0.0014875320549922527,0.0,0.0,0.0,0.0,0.0,0.0,0.0,0.0,0.0,0.014818404160179606,-0.4773217790029467,9.809087530794196,0.0,0.0,0.0,0.0,0.0,0.0,0.0,0.0,0.0
2025/05/25 16:44:03.770557983,1748184243,768883897,mA1/imu,0.7049669339077786,-0.7092396641405498,-0.0008375285898893457,0.0001394715990727143,0.0,0.0,0.0,0.0,0.0,0.0,0.0,0.0,0.0,0.0006447680727130533,0.002069620998638466,0.0013887352278139859,0.0,0.0,0.0,0.0,0.0,0.0,0.0,0.0,0.0,0.015068788024377543,0.04284965577392784,9.807665163257782,0.0,0.0,0.0,0.0,0.0,0.0,0.0,0.0,0.0
2025/05/25 16:44:03.823590990,1748184243,822091752,mA1/imu,0.704942788143059,-0.7092636976085276,-0.0008014960834738325,0.00017407985905940743,0.0,0.0,0.0,0.0,0.0,0.0,0.0,0.0,0.0,-0.00022547790964423127,0.0019364059066650826,0.001347977463271316,0.0,0.0,0.0,0.0,0.0,0.0,0.0,0.0,0.0,0.015229401937317142,0.2489058278531232,9.807505106362834,0.0,0.0,0.0,0.0,0.0,0.0,0.0,0.0,0.0
2025/05/25 16:44:03.875293774,1748184243,873337498,mA1/imu,0.7049200320473721,-0.709286348972273,-0.0007641942478908624,0.00019896498817086755,0.0,0.0,0.0,0.0,0.0,0.0,0.0,0.0,0.0,0.00038812286246969215,0.0016438246094661296,0.0012509636862775236,0.0,0.0,0.0,0.0,0.0,0.0,0.0,0.0,0.0,0.015343301500577368,0.014847789559585258,9.808062062278678,0.0,0.0,0.0,0.0,0.0,0.0,0.0,0.0,0.0
2025/05/25 16:44:03.928610289,1748184243,923794779,mA1/imu,0.7048984452911156,-0.7093078271077774,-0.0007344495002946442,0.00022093832404627436,0.0,0.0,0.0,0.0,0.0,0.0,0.0,0.0,0.0,-0.0003515162579415863,0.0013169671063658597,0.0011807960170699603,0.0,0.0,0.0,0.0,0.0,0.0,0.0,0.0,0.0,0.018323545068145215,0.06413614875005413,9.807400473808094,0.0,0.0,0.0,0.0,0.0,0.0,0.0,0.0,0.0
2025/05/25 16:44:03.969203155,1748184243,967851908,mA1/imu,0.7048782543764595,-0.7093279147924371,-0.0007083674605670742,0.00023241976971909815,0.0,0.0,0.0,0.0,0.0,0.0,0.0,0.0,0.0,-0.0001343860260090833,0.0009044784178593995,0.0011241505505495415,0.0,0.0,0.0,0.0,0.0,0.0,0.0,0.0,0.0,0.015488647793095837,-0.028033240019978797,9.80741640344093,0.0,0.0,0.0,0.0,0.0,0.0,0.0,0.0,0.0
2025/05/25 16:44:04.18699881,1748184244,17704045,mA1/imu,0.7048588418690084,-0.7093472237523054,-0.0006883646370336323,0.00023526177616568452,0.0,0.0,0.0,0.0,0.0,0.0,0.0,0.0,0.0,0.001185137050335981,0.00043219789953674034,0.0010610738435017566,0.0,0.0,0.0,0.0,0.0,0.0,0.0,0.0,0.0,0.018901577671726413,-0.5656090935414398,9.806315513672509,0.0,0.0,0.0,0.0,0.0,0.0,0.0,0.0,0.0
2025/05/25 16:44:04.73098604,1748184244,71419389,mA1/imu,0.7048409159244645,-0.7093650480417588,-0.0006775000298508481,0.0002298895056498595,0.0,0.0,0.0,0.0,0.0,0.0,0.0,0.0,0.0,-7.336737390447673e-05,-1.4555999720042407e-05,0.0009956307824790299,0.0,0.0,0.0,0.0,0.0,0.0,0.0,0.0,0.0,0.014613470010997633,0.6058182195374004,9.808935445826073,0.0,0.0,0.0,0.0,0.0,0.0,0.0,0.0,0.0
2025/05/25 16:44:04.119320970,1748184244,115923273,mA1/imu,0.7048233097560299,-0.7093825447778921,-0.0006768670419922978,0.0002214497795626844,0.0,0.0,0.0,0.0,0.0,0.0,0.0,0.0,0.0,-0.0001949281688690138,-0.0003110649917026526,0.00101512223255663,0.0,0.0,0.0,0.0,0.0,0.0,0.0,0.0,0.0,0.007760317485913733,0.03733717598869031,9.808613313459011,0.0,0.0,0.0,0.0,0.0,0.0,0.0,0.0,0.0
2025/05/25 16:44:04.175624038,1748184244,170483323,mA1/imu,0.7048047587669808,-0.7094009763167207,-0.000680794591438319,0.0002081802716811627,0.0,0.0,0.0,0.0,0.0,0.0,0.0,0.0,0.0,-7.370576778573828e-05,-0.0006320711706499419,0.0010435518887558003,0.0,0.0,0.0,0.0,0.0,0.0,0.0,0.0,0.0,0.01490749697661911,-0.020812561704919574,9.808556692051758,0.0,0.0,0.0,0.0,0.0,0.0,0.0,0.0,0.0
2025/05/25 16:44:04.229518815,1748184244,224656302,mA1/imu,0.7047864091454014,-0.7094192048558642,-0.0006888050255356647,0.00018658306754768304,0.0,0.0,0.0,0.0,0.0,0.0,0.0,0.0,0.0,-0.00038633296188068846,-0.0009687699903951941,0.0010275631226129278,0.0,0.0,0.0,0.0,0.0,0.0,0.0,0.0,0.0,0.014717124792229424,0.389243898465014,9.809870731001336,0.0,0.0,0.0,0.0,0.0,0.0,0.0,0.0,0.0
2025/05/25 16:44:04.270774274,1748184244,267400766,mA1/imu,0.7047683260355854,-0.7094371597640514,-0.0007048682243952001,0.00016162828111017505,0.0,0.0,0.0,0.0,0.0,0.0,0.0,0.0,0.0,0.0007503657504274622,-0.0012824147093375804,0.001012565755879389,0.0,0.0,0.0,0.0,0.0,0.0,0.0,0.0,0.0,0.013775207632240898,-0.5813251316129938,9.809944799480078,0.0,0.0,0.0,0.0,0.0,0.0,0.0,0.0,0.0
2025/05/25 16:44:04.318185905,1748184244,316197601,mA1/imu,0.7047513488476776,-0.7094540059153068,-0.0007292724163984705,0.00013397703303930894,0.0,0.0,0.0,0.0,0.0,0.0,0.0,0.0,0.0,0.00030447840911433015,-0.0016939618886603952,0.0008378154930784253,0.0,0.0,0.0,0.0,0.0,0.0,0.0,0.0,0.0,0.028600740974368655,0.020982530012514426,9.80905340726521,0.0,0.0,0.0,0.0,0.0,0.0,0.0,0.0,0.0
2025/05/25 16:44:04.371537986,1748184244,367970693,mA1/imu,0.7047391634619135,-0.709466080287533,-0.0007629414830119666,0.000101610726048829,0.0,0.0,0.0,0.0,0.0,0.0,0.0,0.0,0.0,0.0001295220745207171,-0.0018942592143959206,0.0006613011218874245,0.0,0.0,0.0,0.0,0.0,0.0,0.0,0.0,0.0,0.011518031495674099,-0.09483802169769438,9.811669965735156,0.0,0.0,0.0,0.0,0.0,0.0,0.0,0.0,0.0
2025/05/25 16:44:04.426031339,1748184244,420248885,mA1/imu,0.7047277857422647,-0.7094773438118107,-0.0008008640219919834,7.236961233078647e-05,0.0,0.0,0.0,0.0,0.0,0.0,0.0,0.0,0.0,-0.0006620161019179994,-0.0019249782000519892,0.0006223456691241951,0.0,0.0,0.0,0.0,0.0,0.0,0.0,0.0,0.0,0.017372780935742765,0.4524028223820468,9.813046406307173,0.0,0.0,0.0,0.0,0.0,0.0,0.0,0.0,0.0
2025/05/25 16:44:04.474091621,1748184244,472325104,mA1/imu,0.7047164691970375,-0.7094885433752155,-0.0008385408565596149,4.136433071229046e-05,0.0,0.0,0.0,0.0,0.0,0.0,0.0,0.0,0.0,-2.6600237331274763e-05,-0.001918237715298456,0.0006577816479726212,0.0,0.0,0.0,0.0,0.0,0.0,0.0,0.0,0.0,0.015461131155255327,-0.12223668660221644,9.813322515947975,0.0,0.0,0.0,0.0,0.0,0.0,0.0,0.0,0.0
2025/05/25 16:44:04.524724200,1748184244,523617835,mA1/imu,0.7047038928819553,-0.7095009893088513,-0.0008771274354319757,1.3200033207452734e-05,0.0,0.0,0.0,0.0,0.0,0.0,0.0,0.0,0.0,0.00029008791386829063,-0.001914943760770252,0.0007327042773235682,0.0,0.0,0.0,0.0,0.0,0.0,0.0,0.0,0.0,0.02287881340710384,-0.5791984050003631,9.812962032430086,0.0,0.0,0.0,0.0,0.0,0.0,0.0,0.0,0.0
2025/05/25 16:44:04.574602775,1748184244,566854181,mA1/imu,0.7046890692635035,-0.7095156687306159,-0.000911753089925096,-1.3877570962924214e-05,0.0,0.0,0.0,0.0,0.0,0.0,0.0,0.0,0.0,-0.0015053643189893969,-0.0015043971980736642,0.0009764085888120319,0.0,0.0,0.0,0.0,0.0,0.0,0.0,0.0,0.0,0.00233437349365336,0.5528572956851872,9.8151658396786,0.0,0.0,0.0,0.0,0.0,0.0,0.0,0.0,0.0
2025/05/25 16:44:04.622894167,1748184244,619271035,mA1/imu,0.704669687715812,-0.7095348852989363,-0.0009363377424126168,-3.20929512080958e-05,0.0,0.0,0.0,0.0,0.0,0.0,0.0,0.0,0.0,-0.0015864054160434737,-0.001029847777707647,0.0011248695786005738,0.0,0.0,0.0,0.0,0.0,0.0,0.0,0.0,0.0,0.011928835909031854,0.5462145175299404,9.81235872830141,0.0,0.0,0.0,0.0,0.0,0.0,0.0,0.0,0.0
2025/05/25 16:44:04.674256869,1748184244,672489802,mA1/imu,0.7046467529498445,-0.7095576453702903,-0.0009483091087534739,-4.651499222288523e-05,0.0,0.0,0.0,0.0,0.0,0.0,0.0,0.0,0.0,-0.0007014387213759709,-0.0005960967393876318,0.0013177041236782166,0.0,0.0,0.0,0.0,0.0,0.0,0.0,0.0,0.0,0.016330847022690845,0.6074046676209282,9.811824844919283,0.0,0.0,0.0,0.0,0.0,0.0,0.0,0.0,0.0
2025/05/25 16:44:04.717278174,1748184244,714285291,mA1/imu,0.7046235165212379,-0.7095807016907575,-0.0009620143926784225,-4.7766149243747e-05,0.0,0.0,0.0,0.0,0.0,0.0,0.0,0.0,0.0,0.00023413667441221558,-0.00031991275614109683,0.0012877794499669957,0.0,0.0,0.0,0.0,0.0,0.0,0.0,0.0,0.0,0.019816023940455056,0.4672410156712528,9.813481363763678,0.0,0.0,0.0,0.0,0.0,0.0,0.0,0.0,0.0
2025/05/25 16:44:04.770337598,1748184244,767652112,mA1/imu,0.7046008233337194,-0.7096032234839605,-0.0009711747906661584,-4.2404517800724345e-05,0.0,0.0,0.0,0.0,0.0,0.0,0.0,0.0,0.0,0.00022977944051462223,3.336399762587559e-05,0.0012765272685691272,0.0,0.0,0.0,0.0,0.0,0.0,0.0,0.0,0.0,0.016309772723988824,-0.3951997429532647,9.810273496739383,0.0,0.0,0.0,0.0,0.0,0.0,0.0,0.0,0.0
2025/05/25 16:44:04.821577975,1748184244,819521084,mA1/imu,0.7045782506509594,-0.7096256342845161,-0.0009730586383080515,-3.2137493500714205e-05,0.0,0.0,0.0,0.0,0.0,0.0,0.0,0.0,0.0,0.0007289125332674133,0.0003670089071377538,0.0012692715182799832,0.0,0.0,0.0,0.0,0.0,0.0,0.0,0.0,0.0,0.016308830021624185,-0.5521059359641876,9.808870572708239,0.0,0.0,0.0,0.0,0.0,0.0,0.0,0.0,0.0
2025/05/25 16:44:04.875556842,1748184244,867164255,mA1/imu,0.7045551194764598,-0.7096486046492942,-0.0009701972595591744,-1.6003087095654964e-05,0.0,0.0,0.0,0.0,0.0,0.0,0.0,0.0,0.0,-0.00011234775057036825,0.0006412116773697262,0.0013194984496967812,0.0,0.0,0.0,0.0,0.0,0.0,0.0,0.0,0.0,0.017076904643869708,-0.3681099313053944,9.808763856718516,0.0,0.0,0.0,0.0,0.0,0.0,0.0,0.0,0.0
2025/05/25 16:44:04.917422654,1748184244,916432851,mA1/imu,0.7045317862117333,-0.7096717839817387,-0.000959808985208214,2.0476105181728302e-06,0.0,0.0,0.0,0.0,0.0,0.0,0.0,0.0,0.0,-0.00026313969566915804,0.0009106452185721455,0.0013132554211391554,0.0,0.0,0.0,0.0,0.0,0.0,0.0,0.0,0.0,0.01720160546769514,0.00606837671305922,9.80956552455299,0.0,0.0,0.0,0.0,0.0,0.0,0.0,0.0,0.0
2025/05/25 16:44:04.969449702,1748184244,967707738,mA1/imu,0.704507455938966,-0.7096959559767727,-0.0009454242608667484,2.77414420948538e-05,0.0,0.0,0.0,0.0,0.0,0.0,0.0,0.0,0.0,-0.00033742921714571855,0.001222368773678023,0.001385033246396275,0.0,0.0,0.0,0.0,0.0,0.0,0.0,0.0,0.0,0.018173137911464445,0.0018321600708167598,9.80870358397925,0.0,0.0,0.0,0.0,0.0,0.0,0.0,0.0,0.0
2025/05/25 16:44:05.24959553,1748184245,22222346,mA1/imu,0.7044827865998559,-0.7097204689016818,-0.0009255338621063756,5.2854035825070794e-05,0.0,0.0,0.0,0.0,0.0,0.0,0.0,0.0,0.0,0.0006501227179623602,0.0012651199256838675,0.0014120908702781876,0.0,0.0,0.0,0.0,0.0,0.0,0.0,0.0,0.0,0.022504118109447892,0.07026221442885505,9.810288103860772,0.0,0.0,0.0,0.0,0.0,0.0,0.0,0.0,0.0
2025/05/25 16:44:05.74695511,1748184245,73279967,mA1/imu,0.7044575787828421,-0.7097455053867734,-0.000911204869120099,8.3572579022596e-05,0.0,0.0,0.0,0.0,0.0,0.0,0.0,0.0,0.0,0.0007246531920539596,0.0012664691557808974,0.0014242901584297168,0.0,0.0,0.0,0.0,0.0,0.0,0.0,0.0,0.0,0.018476927542979152,0.0755203643696123,9.807562227470852,0.0,0.0,0.0,0.0,0.0,0.0,0.0,0.0,0.0
2025/05/25 16:44:05.125558363,1748184245,123227289,mA1/imu,0.7044325199350522,-0.7097703855136569,-0.0009006083312510507,0.00011666353623894987,0.0,0.0,0.0,0.0,0.0,0.0,0.0,0.0,0.0,-0.0015128083827269333,0.0011858379665549976,0.001391566208540707,0.0,0.0,0.0,0.0,0.0,0.0,0.0,0.0,0.0,0.02245244997288772,0.5486325547248834,9.807720988915744,0.0,0.0,0.0,0.0,0.0,0.0,0.0,0.0,0.0
2025/05/25 16:44:05.166107699,1748184245,164976813,mA1/imu,0.7044080193720037,-0.709794715408372,-0.0008857063549410121,0.00014052406146682067,0.0,0.0,0.0,0.0,0.0,0.0,0.0,0.0,0.0,0.00021349428472261815,0.0010387910551556646,0.0013789017754098608,0.0,0.0,0.0,0.0,0.0,0.0,0.0,0.0,0.0,0.019286324519567726,-0.5928021084212283,9.80761476144291,0.0,0.0,0.0,0.0,0.0,0.0,0.0,0.0,0.0
2025/05/25 16:44:05.215560640,1748184245,214876623,mA1/imu,0.70438364362691,-0.7098189172018023,-0.0008726780234025846,0.0001606437264606144,0.0,0.0,0.0,0.0,0.0,0.0,0.0,0.0,0.0,0.0008563600274751805,0.000861354173985886,0.0013711796238259778,0.0,0.0,0.0,0.0,0.0,0.0,0.0,0.0,0.0,0.019093745424847958,-0.5507868405848351,9.807740909959765,0.0,0.0,0.0,0.0,0.0,0.0,0.0,0.0,0.0
2025/05/25 16:44:05.272198692,1748184245,266488320,mA1/imu,0.7043581791282174,-0.7098441960548254,-0.0008606564218414623,0.00017914514820456415,0.0,0.0,0.0,0.0,0.0,0.0,0.0,0.0,0.0,0.00017725424730328498,0.0008102186169073584,0.0014627231226950266,0.0,0.0,0.0,0.0,0.0,0.0,0.0,0.0,0.0,0.01989671076059521,0.02789962479842344,9.807292525282048,0.0,0.0,0.0,0.0,0.0,0.0,0.0,0.0,0.0
2025/05/25 16:44:05.317263351,1748184245,316272816,mA1/imu,0.704332107251726,-0.7098700691534257,-0.0008540412448029764,0.00019551983517479337,0.0,0.0,0.0,0.0,0.0,0.0,0.0,0.0,0.0,0.0012146716120072223,0.0005575733341561445,0.0014861231647435337,0.0,0.0,0.0,0.0,0.0,0.0,0.0,0.0,0.0,0.016474314321146113,-0.531815054489406,9.80771276607788,0.0,0.0,0.0,0.0,0.0,0.0,0.0,0.0,0.0
2025/05/25 16:44:05.374741656,1748184245,368687651,mA1/imu,0.70430506879875,-0.7098968983405131,-0.0008496708471184873,0.00020457360248664005,0.0,0.0,0.0,0.0,0.0,0.0,0.0,0.0,0.0,0.0012537472760716132,0.00024107630466919347,0.0015165054279771032,0.0,0.0,0.0,0.0,0.0,0.0,0.0,0.0,0.0,0.02129577915520653,-0.5374874610161525,9.80837118685986,0.0,0.0,0.0,0.0,0.0,0.0,0.0,0.0,0.0
2025/05/25 16:44:05.424628154,1748184245,422127708,mA1/imu,0.7042798277790422,-0.7099219322717819,-0.0008546350381865623,0.0002094325033653332,0.0,0.0,0.0,0.0,0.0,0.0,0.0,0.0,0.0,-0.001058323278985517,-0.00021368847707224243,0.001281942347816222,0.0,0.0,0.0,0.0,0.0,0.0,0.0,0.0,0.0,0.031300016245596904,0.5539398991868439,9.809217671794016,0.0,0.0,0.0,0.0,0.0,0.0,0.0,0.0,0.0
2025/05/25 16:44:05.477544816,1748184245,474516352,mA1/imu,0.7042611053167568,-0.709940492396654,-0.0008673279460619649,0.00020133516901534254,0.0,0.0,0.0,0.0,0.0,0.0,0.0,0.0,0.0,-0.0008512115681939168,-0.0007057977205020073,0.0009900726264466444,0.0,0.0,0.0,0.0,0.0,0.0,0.0,0.0,0.0,0.019525634061487225,0.09424483163898743,9.811043197036703,0.0,0.0,0.0,0.0,0.0,0.0,0.0,0.0,0.0
2025/05/25 16:44:05.518256581,1748184245,516762886,mA1/imu,0.7042448659743517,-0.7099565914338962,-0.0008792444270041826,0.0001842757953509525,0.0,0.0,0.0,0.0,0.0,0.0,0.0,0.0,0.0,0.0008898271027792989,-0.0008970921507425162,0.0008601148074193166,0.0,0.0,0.0,0.0,0.0,0.0,0.0,0.0,0.0,0.01800377798670945,-0.573681864313762,9.810993520323628,0.0,0.0,0.0,0.0,0.0,0.0,0.0,0.0,0.0
2025/05/25 16:44:05.574303214,1748184245,570860252,mA1/imu,0.7042288781228676,-0.7099724436980048,-0.0008881560654109299,0.00016609062011951528,0.0,0.0,0.0,0.0,0.0,0.0,0.0,0.0,0.0,0.0008980232546891224,-0.0006805501926659054,0.0009280361770580232,0.0,0.0,0.0,0.0,0.0,0.0,0.0,0.0,0.0,0.00703721283105849,0.05104786674945198,9.810857136730633,0.0,0.0,0.0,0.0,0.0,0.0,0.0,0.0,0.0
2025/05/25 16:44:05.621886636,1748184245,619856482,mA1/imu,0.7042119428028796,-0.7099892372621665,-0.0008938601570241673,0.0001536219400002596,0.0,0.0,0.0,0.0,0.0,0.0,0.0,0.0,0.0,-0.0002987661708523144,-0.00037379600678071154,0.0009388485949310783,0.0,0.0,0.0,0.0,0.0,0.0,0.0,0.0,0.0,0.004611991730589223,0.585333758691248,9.811265856435329,0.0,0.0,0.0,0.0,0.0,0.0,0.0,0.0,0.0
2025/05/25 16:44:05.676649494,1748184245,672914049,mA1/imu,0.704195583620691,-0.7100054637585567,-0.0008942994735171671,0.0001472092482787412,0.0,0.0,0.0,0.0,0.0,0.0,0.0,0.0,0.0,-0.0007587393809304179,-6.699353597421656e-05,0.0009413263239489724,0.0,0.0,0.0,0.0,0.0,0.0,0.0,0.0,0.0,0.006091755310749127,0.43556976665302677,9.81253196678665,0.0,0.0,0.0,0.0,0.0,0.0,0.0,0.0,0.0
2025/05/25 16:44:05.729122649,1748184245,723360476,mA1/imu,0.7041785458569984,-0.7100223805047097,-0.0008807892532200104,0.00013764970074520047,0.0,0.0,0.0,0.0,0.0,0.0,0.0,0.0,0.0,0.0011759440007773636,0.00017830279705583364,0.0009364085395302404,0.0,0.0,0.0,0.0,0.0,0.0,0.0,0.0,0.0,0.01261009816406212,-0.5782238442792038,9.810729083410163,0.0,0.0,0.0,0.0,0.0,0.0,0.0,0.0,0.0
2025/05/25 16:44:05.767979825,1748184245,765012045,mA1/imu,0.7041617205397293,-0.7100390768959525,-0.0008720957753138134,0.000141620021337848,0.0,0.0,0.0,0.0,0.0,0.0,0.0,0.0,0.0,-0.0001876622928888397,0.000481482163987377,0.000980172433844657,0.0,0.0,0.0,0.0,0.0,0.0,0.0,0.0,0.0,0.003762252474561573,-0.32049261656075967,9.810968070239648,0.0,0.0,0.0,0.0,0.0,0.0,0.0,0.0,0.0
2025/05/25 16:44:05.816027660,1748184245,814928534,mA1/imu,0.704143363020428,-0.710057321924288,-0.0008401385877480514,0.00013439919344894935,0.0,0.0,0.0,0.0,0.0,0.0,0.0,0.0,0.0,-0.00016697819452156194,0.0008686846018164815,0.0010710298128648302,0.0,0.0,0.0,0.0,0.0,0.0,0.0,0.0,0.0,0.0021234442628414165,0.5807456748794744,9.814177700382222,0.0,0.0,0.0,0.0,0.0,0.0,0.0,0.0,0.0
2025/05/25 16:44:05.872874464,1748184245,868057761,mA1/imu,0.7041232340623735,-0.7100773023641694,-0.0008204938628954658,0.00015070032797083948,0.0,0.0,0.0,0.0,0.0,0.0,0.0,0.0,0.0,0.001169024499898567,0.0011027468569861402,0.0011795274129713163,0.0,0.0,0.0,0.0,0.0,0.0,0.0,0.0,0.0,0.0044005243447979995,-0.2756249403205387,9.811365062526807,0.0,0.0,0.0,0.0,0.0,0.0,0.0,0.0,0.0
2025/05/25 16:44:05.921100711,1748184245,918719368,mA1/imu,0.7041013926612653,-0.7100989925154971,-0.000789013212226573,0.00016473947240647782,0.0,0.0,0.0,0.0,0.0,0.0,0.0,0.0,0.0,-0.0005165886633252102,0.001385839125382187,0.001267280020222644,0.0,0.0,0.0,0.0,0.0,0.0,0.0,0.0,0.0,0.004149639984311753,0.2076932002032672,9.812243333587267,0.0,0.0,0.0,0.0,0.0,0.0,0.0,0.0,0.0
2025/05/25 16:44:05.977556565,1748184245,973626943,mA1/imu,0.7040827777614522,-0.7101174766896592,-0.0007614504519665177,0.00017763118577075927,0.0,0.0,0.0,0.0,0.0,0.0,0.0,0.0,0.0,0.0009091346633575202,0.0011641347488269601,0.0010250145478833787,0.0,0.0,0.0,0.0,0.0,0.0,0.0,0.0,0.0,0.0025811172500762192,-0.5891852938508049,9.81009139753276,0.0,0.0,0.0,0.0,0.0,0.0,0.0,0.0,0.0
2025/05/25 16:44:06.25359094,1748184246,23708773,mA1/imu,0.7040641151965521,-0.7101360014327192,-0.0007365711718239382,0.0001965313066318542,0.0,0.0,0.0,0.0,0.0,0.0,0.0,0.0,0.0,0.000651258186875294,0.0012732078560057638,0.0010821396867945667,0.0,0.0,0.0,0.0,0.0,0.0,0.0,0.0,0.0,0.0021222595893067176,-0.6018753451431551,9.809785823619611,0.0,0.0,0.0,0.0,0.0,0.0,0.0,0.0,0.0
2025/05/25 16:44:06.71356710,1748184246,68034264,mA1/imu,0.7040444108636205,-0.7101555579786798,-0.000709940908320875,0.00021676622035580735,0.0,0.0,0.0,0.0,0.0,0.0,0.0,0.0,0.0,-0.0010972813839904736,0.0013173851013061752,0.0011129209041859716,0.0,0.0,0.0,0.0,0.0,0.0,0.0,0.0,0.0,0.006905215351972907,0.5435811395095591,9.811274466480498,0.0,0.0,0.0,0.0,0.0,0.0,0.0,0.0,0.0
2025/05/25 16:44:06.122047576,1748184246,120153876,mA1/imu,0.7040247175441151,-0.710175102878631,-0.0006823762146249133,0.00023388235612811694,0.0,0.0,0.0,0.0,0.0,0.0,0.0,0.0,0.0,-0.0011782450354710307,0.0012377669409346951,0.0011096680707242484,0.0,0.0,0.0,0.0,0.0,0.0,0.0,0.0,0.0,0.005631163019642247,0.5466266976068074,9.808732158818176,0.0,0.0,0.0,0.0,0.0,0.0,0.0,0.0,0.0
2025/05/25 16:44:06.179344417,1748184246,172942001,mA1/imu,0.7040040130575438,-0.7101956345171557,-0.0006656226294141089,0.0002593417889886337,0.0,0.0,0.0,0.0,0.0,0.0,0.0,0.0,0.0,-0.0005615352807443778,0.0011525153596806173,0.0011895751020008255,0.0,0.0,0.0,0.0,0.0,0.0,0.0,0.0,0.0,0.007098026304480615,-0.05720270987760723,9.808508888790241,0.0,0.0,0.0,0.0,0.0,0.0,0.0,0.0,0.0
2025/05/25 16:44:06.224060686,1748184246,223008350,mA1/imu,0.7039850953512476,-0.710214396090815,-0.0006500663338622094,0.0002729879396971902,0.0,0.0,0.0,0.0,0.0,0.0,0.0,0.0,0.0,0.0006097300471863195,0.00026773319572418917,0.0007753355249310392,0.0,0.0,0.0,0.0,0.0,0.0,0.0,0.0,0.0,0.055173181136846695,-0.5877544656957814,9.805521318859928,0.0,0.0,0.0,0.0,0.0,0.0,0.0,0.0,0.0
2025/05/25 16:44:06.266598855,1748184246,265888888,mA1/imu,0.7039777147917807,-0.7102217053903053,-0.0006579487012162164,0.00027087365153230937,0.0,0.0,0.0,0.0,0.0,0.0,0.0,0.0,0.0,0.0003890645472896646,-0.0003955731517655134,0.00037276904915703343,0.0,0.0,0.0,0.0,0.0,0.0,0.0,0.0,0.0,0.0038334446505404515,0.04941713597649445,9.808541568652865,0.0,0.0,0.0,0.0,0.0,0.0,0.0,0.0,0.0
2025/05/25 16:44:06.322513853,1748184246,319251513,mA1/imu,0.7039708147695006,-0.7102285274917113,-0.0006758954352925188,0.00027176291391757437,0.0,0.0,0.0,0.0,0.0,0.0,0.0,0.0,0.0,-0.0012242075928753334,-0.0004639421435380883,0.0004598411943515505,0.0,0.0,0.0,0.0,0.0,0.0,0.0,0.0,0.0,-0.0036269528059610055,0.5716567002973254,9.809803419217813,0.0,0.0,0.0,0.0,0.0,0.0,0.0,0.0,0.0
2025/05/25 16:44:06.374910279,1748184246,373583499,mA1/imu,0.7039612980366587,-0.7102379418391852,-0.0006955445762106667,0.00027028933208374234,0.0,0.0,0.0,0.0,0.0,0.0,0.0,0.0,0.0,-0.0011005054672466109,-0.0006944590902158547,0.0005728557578957381,0.0,0.0,0.0,0.0,0.0,0.0,0.0,0.0,0.0,0.00987802283257368,-0.05026380750397045,9.807657709744253,0.0,0.0,0.0,0.0,0.0,0.0,0.0,0.0,0.0
2025/05/25 16:44:06.419481090,1748184246,414951203,mA1/imu,0.7039501442556585,-0.7102489834966467,-0.000713474148225212,0.00025845513625990634,0.0,0.0,0.0,0.0,0.0,0.0,0.0,0.0,0.0,0.0005343196789647345,-0.0009437918106025544,0.0006641548276382085,0.0,0.0,0.0,0.0,0.0,0.0,0.0,0.0,0.0,0.00966481241663169,-0.5654894450911809,9.806644770553623,0.0,0.0,0.0,0.0,0.0,0.0,0.0,0.0,0.0
2025/05/25 16:44:06.475190090,1748184246,468406268,mA1/imu,0.7039372844648405,-0.7102617185830271,-0.000730621466596174,0.0002384282350254636,0.0,0.0,0.0,0.0,0.0,0.0,0.0,0.0,0.0,0.0006764234896876938,-0.0011323103615161884,0.0007530046911387832,0.0,0.0,0.0,0.0,0.0,0.0,0.0,0.0,0.0,0.009233849365534333,0.06757609284539252,9.808651358604793,0.0,0.0,0.0,0.0,0.0,0.0,0.0,0.0,0.0
2025/05/25 16:44:06.519936552,1748184246,518475194,mA1/imu,0.7039238108714542,-0.7102750440037391,-0.0007612361535553436,0.00022555091266680209,0.0,0.0,0.0,0.0,0.0,0.0,0.0,0.0,0.0,-0.0005404055547040466,-0.0012872519545180853,0.0007557479217259798,0.0,0.0,0.0,0.0,0.0,0.0,0.0,0.0,0.0,0.010143069973469152,0.07920713936623769,9.808710272242031,0.0,0.0,0.0,0.0,0.0,0.0,0.0,0.0,0.0
2025/05/25 16:44:06.572349338,1748184246,571538741,mA1/imu,0.703908070311584,-0.7102906279180524,-0.0007814628216182924,0.00020434739868382658,0.0,0.0,0.0,0.0,0.0,0.0,0.0,0.0,0.0,0.0006884556896409229,-0.0011812373984984202,0.0009134225539405212,0.0,0.0,0.0,0.0,0.0,0.0,0.0,0.0,0.0,0.010397342984788633,-0.32856900214325335,9.808146237882204,0.0,0.0,0.0,0.0,0.0,0.0,0.0,0.0,0.0
2025/05/25 16:44:06.625173329,1748184246,624173940,mA1/imu,0.7038917678687123,-0.7103067633234921,-0.0008045090361529861,0.00018403470922359762,0.0,0.0,0.0,0.0,0.0,0.0,0.0,0.0,0.0,0.0007093361203229131,-0.0012555278038535174,0.0009181639475132316,0.0,0.0,0.0,0.0,0.0,0.0,0.0,0.0,0.0,0.011217029425543769,0.056882987537670474,9.81053533676907,0.0,0.0,0.0,0.0,0.0,0.0,0.0,0.0,0.0
2025/05/25 16:44:06.673068390,1748184246,666569207,mA1/imu,0.7038753857370507,-0.7103229737368479,-0.000829099704690857,0.0001641000890626869,0.0,0.0,0.0,0.0,0.0,0.0,0.0,0.0,0.0,0.0008733847742598305,-0.0012593007266526017,0.0009231632806497288,0.0,0.0,0.0,0.0,0.0,0.0,0.0,0.0,0.0,0.009805447332095166,0.0687165253175578,9.809381556778304,0.0,0.0,0.0,0.0,0.0,0.0,0.0,0.0,0.0
2025/05/25 16:44:06.727597086,1748184246,719345371,mA1/imu,0.703858924125376,-0.7103392557784215,-0.0008569494857137304,0.00014922066006032328,0.0,0.0,0.0,0.0,0.0,0.0,0.0,0.0,0.0,-0.000723448911067918,-0.0011731448034793604,0.00092665803538592,0.0,0.0,0.0,0.0,0.0,0.0,0.0,0.0,0.0,0.010673309409236276,-0.04446405407814748,9.809307209630262,0.0,0.0,0.0,0.0,0.0,0.0,0.0,0.0,0.0
2025/05/25 16:44:06.772636010,1748184246,770087080,mA1/imu,0.7038414799097165,-0.7103565245168473,-0.0008737177104839772,0.00012590555165865983,0.0,0.0,0.0,0.0,0.0,0.0,0.0,0.0,0.0,0.0008808374436338481,-0.0010847353116325822,0.0009978687352156308,0.0,0.0,0.0,0.0,0.0,0.0,0.0,0.0,0.0,0.010638758693865175,-0.5684168081749259,9.810935877477812,0.0,0.0,0.0,0.0,0.0,0.0,0.0,0.0,0.0
2025/05/25 16:44:06.823348429,1748184246,822000321,mA1/imu,0.7038236144657617,-0.7103742102873799,-0.0008887013842082763,0.00010624868063015285,0.0,0.0,0.0,0.0,0.0,0.0,0.0,0.0,0.0,-0.00036478006684113553,-0.0009057864355557373,0.0010086927129835843,0.0,0.0,0.0,0.0,0.0,0.0,0.0,0.0,0.0,0.01153761280918604,0.5989931109470464,9.812729542970189,0.0,0.0,0.0,0.0,0.0,0.0,0.0,0.0,0.0
2025/05/25 16:44:06.877792335,1748184246,868982025,mA1/imu,0.7038055831158582,-0.7103920544666362,-0.000906041698698801,9.598988820850939e-05,0.0,0.0,0.0,0.0,0.0,0.0,0.0,0.0,0.0,-0.001465274158008113,-0.0006884872913521354,0.0010180115463604947,0.0,0.0,0.0,0.0,0.0,0.0,0.0,0.0,0.0,0.011116264137514589,0.4063428652623475,9.812546260290148,0.0,0.0,0.0,0.0,0.0,0.0,0.0,0.0,0.0
2025/05/25 16:44:06.921172844,1748184246,920372666,mA1/imu,0.7037873940204935,-0.7104100670946988,-0.0009129759129243594,8.40436226736389e-05,0.0,0.0,0.0,0.0,0.0,0.0,0.0,0.0,0.0,0.0002428688245793492,-0.0004308437347921522,0.0010269723500092702,0.0,0.0,0.0,0.0,0.0,0.0,0.0,0.0,0.0,0.010670719205555328,-0.6160052255577082,9.811031806090181,0.0,0.0,0.0,0.0,0.0,0.0,0.0,0.0,0.0
2025/05/25 16:44:06.975222126,1748184246,974133309,mA1/imu,0.7037668476722603,-0.7104304301112877,-0.0009068975087235217,7.500832437971086e-05,0.0,0.0,0.0,0.0,0.0,0.0,0.0,0.0,0.0,0.0017073579472586754,4.619102183184941e-05,0.0011872700636656644,0.0,0.0,0.0,0.0,0.0,0.0,0.0,0.0,0.0,0.011346729895171433,-0.518486628616015,9.81068630139114,0.0,0.0,0.0,0.0,0.0,0.0,0.0,0.0,0.0
2025/05/25 16:44:07.18233317,1748184247,14851551,mA1/imu,0.7037455781688413,-0.7104515054584648,-0.0009020439983346135,7.691702770818484e-05,0.0,0.0,0.0,0.0,0.0,0.0,0.0,0.0,0.0,-2.150784670058186e-05,0.0002827886136018018,0.0012041192826365297,0.0,0.0,0.0,0.0,0.0,0.0,0.0,0.0,0.0,0.012522813403012518,0.616852389769807,9.813084337991498,0.0,0.0,0.0,0.0,0.0,0.0,0.0,0.0,0.0
2025/05/25 16:44:07.68330031,1748184247,66133553,mA1/imu,0.70372445250089,-0.7104724358379318,-0.0008975085929725441,8.570393129312206e-05,0.0,0.0,0.0,0.0,0.0,0.0,0.0,0.0,0.0,-0.0010654064679619937,0.0004534431692086993,0.0011908093280209424,0.0,0.0,0.0,0.0,0.0,0.0,0.0,0.0,0.0,0.012509196204575284,0.37060240245145215,9.812147962271254,0.0,0.0,0.0,0.0,0.0,0.0,0.0,0.0,0.0
2025/05/25 16:44:07.121009026,1748184247,116950310,mA1/imu,0.703702932123527,-0.7104937711940416,-0.0008811530727805604,8.93559292522704e-05,0.0,0.0,0.0,0.0,0.0,0.0,0.0,0.0,0.0,0.0007103127401622517,0.0006202771042015224,0.0012488878664904705,0.0,0.0,0.0,0.0,0.0,0.0,0.0,0.0,0.0,0.013008190210430952,-0.32267162893181356,9.810670664626201,0.0,0.0,0.0,0.0,0.0,0.0,0.0,0.0,0.0
2025/05/25 16:44:07.174535506,1748184247,171867311,mA1/imu,0.7036798022101347,-0.7105166941006412,-0.0008678469806624744,0.00010103177535494704,0.0,0.0,0.0,0.0,0.0,0.0,0.0,0.0,0.0,-5.771023672834407e-05,0.000744208900635043,0.001317077687130766,0.0,0.0,0.0,0.0,0.0,0.0,0.0,0.0,0.0,0.013552682120314654,-0.13496186771522653,9.81090704379992,0.0,0.0,0.0,0.0,0.0,0.0,0.0,0.0,0.0
2025/05/25 16:44:07.218105508,1748184247,215596756,mA1/imu,0.7036554530274653,-0.7105408277509967,-0.0008501176179638797,0.00011324167339692577,0.0,0.0,0.0,0.0,0.0,0.0,0.0,0.0,0.0,0.0008720970467191987,0.0009948307456798472,0.001477156979868524,0.0,0.0,0.0,0.0,0.0,0.0,0.0,0.0,0.0,-0.0022683988185632636,-0.5783406663033066,9.810691489679265,0.0,0.0,0.0,0.0,0.0,0.0,0.0,0.0,0.0
2025/05/25 16:44:07.272258634,1748184247,268080992,mA1/imu,0.7036269638814378,-0.7105690612472566,-0.0008288944454455918,0.00013353344382918507,0.0,0.0,0.0,0.0,0.0,0.0,0.0,0.0,0.0,-0.0005746998633612357,0.0011665413137558896,0.001629349229477107,0.0,0.0,0.0,0.0,0.0,0.0,0.0,0.0,0.0,0.01557057590279895,-0.04644415398965069,9.81159411588606,0.0,0.0,0.0,0.0,0.0,0.0,0.0,0.0,0.0
2025/05/25 16:44:07.322299708,1748184247,320284863,mA1/imu,0.703597731356598,-0.710598030005951,-0.0008060201900215029,0.00015004320443838597,0.0,0.0,0.0,0.0,0.0,0.0,0.0,0.0,0.0,0.0005519292174126422,0.0010697419109467227,0.001658558631531906,0.0,0.0,0.0,0.0,0.0,0.0,0.0,0.0,0.0,0.014798834260634127,-0.5919553400445536,9.808986570192873,0.0,0.0,0.0,0.0,0.0,0.0,0.0,0.0,0.0
2025/05/25 16:44:07.374486315,1748184247,373018392,mA1/imu,0.7035685176540906,-0.7106269721858001,-0.0007875425231715983,0.00016475691756466342,0.0,0.0,0.0,0.0,0.0,0.0,0.0,0.0,0.0,-0.0003408685632084279,0.0008596515504998583,0.001650035083563719,0.0,0.0,0.0,0.0,0.0,0.0,0.0,0.0,0.0,0.01533131000523211,0.5728988055707014,9.809912232765527,0.0,0.0,0.0,0.0,0.0,0.0,0.0,0.0,0.0
2025/05/25 16:44:07.423214002,1748184247,416647742,mA1/imu,0.7035389257628922,-0.7106562792627517,-0.0007752412738260692,0.0001779937774509306,0.0,0.0,0.0,0.0,0.0,0.0,0.0,0.0,0.0,-0.0004084303264430484,0.0006067091047093432,0.0016893792964463364,0.0,0.0,0.0,0.0,0.0,0.0,0.0,0.0,0.0,0.0194657991277767,0.00663812747057573,9.808177093865153,0.0,0.0,0.0,0.0,0.0,0.0,0.0,0.0,0.0
2025/05/25 16:44:07.474970250,1748184247,468456888,mA1/imu,0.7035086679575957,-0.7106862377866562,-0.0007686551027664508,0.00018627536276836137,0.0,0.0,0.0,0.0,0.0,0.0,0.0,0.0,0.0,-0.00029911933773577075,0.0003017810022987222,0.0017107790074290701,0.0,0.0,0.0,0.0,0.0,0.0,0.0,0.0,0.0,0.017396052471150114,-0.022579131918007284,9.807705080524629,0.0,0.0,0.0,0.0,0.0,0.0,0.0,0.0,0.0
2025/05/25 16:44:07.529454476,1748184247,523333977,mA1/imu,0.7034781048628302,-0.7107164975134256,-0.0007628812504335546,0.00018480543100066015,0.0,0.0,0.0,0.0,0.0,0.0,0.0,0.0,0.0,0.0011619521254139491,-1.2018119107252545e-05,0.0017252894715410608,0.0,0.0,0.0,0.0,0.0,0.0,0.0,0.0,0.0,0.01738303863539599,-0.5455715774467604,9.80662679691646,0.0,0.0,0.0,0.0,0.0,0.0,0.0,0.0,0.0
2025/05/25 16:44:07.569795569,1748184247,564938930,mA1/imu,0.703447354014323,-0.7107469273678665,-0.000769025530303218,0.0001843017041147261,0.0,0.0,0.0,0.0,0.0,0.0,0.0,0.0,0.0,-0.0005559531749694689,-0.0003083583280299846,0.0017337490226550952,0.0,0.0,0.0,0.0,0.0,0.0,0.0,0.0,0.0,0.017099410266801847,0.5961693406314879,9.80915564974959,0.0,0.0,0.0,0.0,0.0,0.0,0.0,0.0,0.0
2025/05/25 16:44:07.624188683,1748184247,617550731,mA1/imu,0.7034164595630429,-0.7107774892765962,-0.0007825781085233014,0.00018090040422508478,0.0,0.0,0.0,0.0,0.0,0.0,0.0,0.0,0.0,-0.0013077282544622175,-0.0005873666164469763,0.0017401969467616758,0.0,0.0,0.0,0.0,0.0,0.0,0.0,0.0,0.0,0.017402580592234262,0.2838108073017395,9.808575519848153,0.0,0.0,0.0,0.0,0.0,0.0,0.0,0.0,0.0
2025/05/25 16:44:07.670847275,1748184247,669906655,mA1/imu,0.7033844274844431,-0.7108091734195897,-0.0007985203564041604,0.0001688791947826215,0.0,0.0,0.0,0.0,0.0,0.0,0.0,0.0,0.0,0.0001328916429141764,-0.0009052712675855612,0.0018207341344595937,0.0,0.0,0.0,0.0,0.0,0.0,0.0,0.0,0.0,0.018069614626539814,-0.6120581326646491,9.808199390593435,0.0,0.0,0.0,0.0,0.0,0.0,0.0,0.0,0.0
2025/05/25 16:44:07.718815294,1748184247,715589637,mA1/imu,0.7033510675590149,-0.7108421703029678,-0.0008139190830738509,0.00014905799840199288,0.0,0.0,0.0,0.0,0.0,0.0,0.0,0.0,0.0,0.0008299467272576573,-0.0009618505299998105,0.0019923703908562413,0.0,0.0,0.0,0.0,0.0,0.0,0.0,0.0,0.0,0.0011453209840176972,-0.2893806645682481,9.808074471871624,0.0,0.0,0.0,0.0,0.0,0.0,0.0,0.0,0.0
2025/05/25 16:44:07.769798600,1748184247,766513587,mA1/imu,0.7033149599659759,-0.71087787257059,-0.000836214246553861,0.00013462281892051044,0.0,0.0,0.0,0.0,0.0,0.0,0.0,0.0,0.0,-0.001004840816159443,-0.001111278028781951,0.0020426900332559065,0.0,0.0,0.0,0.0,0.0,0.0,0.0,0.0,0.0,0.018439404953821046,0.5745456990800681,9.810546738925852,0.0,0.0,0.0,0.0,0.0,0.0,0.0,0.0,0.0
2025/05/25 16:44:07.817397613,1748184247,816686846,mA1/imu,0.7032783858820498,-0.7109140291249204,-0.0008611824186783221,0.00011622973935688976,0.0,0.0,0.0,0.0,0.0,0.0,0.0,0.0,0.0,0.00030844435303944826,-0.0012838437971066938,0.002064061035077057,0.0,0.0,0.0,0.0,0.0,0.0,0.0,0.0,0.0,0.01825903348502978,0.15633859979525835,9.810493460663464,0.0,0.0,0.0,0.0,0.0,0.0,0.0,0.0,0.0
2025/05/25 16:44:07.866291627,1748184247,865447561,mA1/imu,0.7032414941252138,-0.7109504772317851,-0.0008991164573406184,0.00010702350339170553,0.0,0.0,0.0,0.0,0.0,0.0,0.0,0.0,0.0,-0.0006006331542243607,-0.0013702326071794932,0.0020806068000215824,0.0,0.0,0.0,0.0,0.0,0.0,0.0,0.0,0.0,0.01889087588870233,-0.6537672284611644,9.812074276109817,0.0,0.0,0.0,0.0,0.0,0.0,0.0,0.0,0.0
2025/05/25 16:44:07.917985586,1748184247,915642515,mA1/imu,0.7032043176937354,-0.7109872216481329,-0.0009227742159974034,8.196159437037223e-05,0.0,0.0,0.0,0.0,0.0,0.0,0.0,0.0,0.0,-0.0009410427451612636,-0.001356135707882641,0.0020953825071373558,0.0,0.0,0.0,0.0,0.0,0.0,0.0,0.0,0.0,0.017782702691149056,-0.04288028656241806,9.809377707251395,0.0,0.0,0.0,0.0,0.0,0.0,0.0,0.0,0.0
2025/05/25 16:44:07.968933954,1748184247,966605619,mA1/imu,0.7031676333285622,-0.7110234663912264,-0.0009517271631670162,6.241410058815207e-05,0.0,0.0,0.0,0.0,0.0,0.0,0.0,0.0,0.0,-0.0007850470656829363,-0.0013665512575756916,0.0020371521000944574,0.0,0.0,0.0,0.0,0.0,0.0,0.0,0.0,0.0,0.02081674738687412,-0.09318619992073975,9.811219474574175,0.0,0.0,0.0,0.0,0.0,0.0,0.0,0.0,0.0
2025/05/25 16:44:08.24601956,1748184248,20284847,mA1/imu,0.7031318351953824,-0.7110588340335372,-0.0009773170378334327,4.1581819154316814e-05,0.0,0.0,0.0,0.0,0.0,0.0,0.0,0.0,0.0,-0.0002948137721149037,-0.0012455395631368498,0.002008813325130338,0.0,0.0,0.0,0.0,0.0,0.0,0.0,0.0,0.0,0.01733483707270539,-0.005073864547983345,9.811633446188955,0.0,0.0,0.0,0.0,0.0,0.0,0.0,0.0,0.0
2025/05/25 16:44:08.77258828,1748184248,72825197,mA1/imu,0.7030963810513271,-0.7110938594262219,-0.0010007190863905845,2.4498116810833055e-05,0.0,0.0,0.0,0.0,0.0,0.0,0.0,0.0,0.0,-0.0002444849119115081,-0.0010550742319465566,0.0019925253412441707,0.0,0.0,0.0,0.0,0.0,0.0,0.0,0.0,0.0,0.01680984055485947,-0.004726385566566953,9.811090383549061,0.0,0.0,0.0,0.0,0.0,0.0,0.0,0.0,0.0
2025/05/25 16:44:08.118909042,1748184248,115267064,mA1/imu,0.7030607913256997,-0.7111290219772509,-0.001018661152021125,1.1472439867894714e-05,0.0,0.0,0.0,0.0,0.0,0.0,0.0,0.0,0.0,-0.00015435650234597544,-0.0007514559444132514,0.0020060610532935124,0.0,0.0,0.0,0.0,0.0,0.0,0.0,0.0,0.0,0.016791935868549386,0.10529522973725255,9.811373463684598,0.0,0.0,0.0,0.0,0.0,0.0,0.0,0.0,0.0
2025/05/25 16:44:08.169753788,1748184248,167172812,mA1/imu,0.7030245083484971,-0.7111648763873165,-0.0010291946824003253,3.559878877542667e-06,0.0,0.0,0.0,0.0,0.0,0.0,0.0,0.0,0.0,0.00014940005000468597,-0.0003572664672398753,0.0020740971623723495,0.0,0.0,0.0,0.0,0.0,0.0,0.0,0.0,0.0,0.01681573042892521,-0.09119688909866475,9.812039041508223,0.0,0.0,0.0,0.0,0.0,0.0,0.0,0.0,0.0
2025/05/25 16:44:08.222023845,1748184248,220869983,mA1/imu,0.7029876411701345,-0.7112013142709425,-0.001032928510802198,1.608517059869044e-07,0.0,0.0,0.0,0.0,0.0,0.0,0.0,0.0,0.0,0.00044115122800454133,-0.00011607239723292027,0.002063742154569332,0.0,0.0,0.0,0.0,0.0,0.0,0.0,0.0,0.0,0.020401165010000527,-0.1856458863829725,9.811028962744547,0.0,0.0,0.0,0.0,0.0,0.0,0.0,0.0,0.0
2025/05/25 16:44:08.268355628,1748184248,267512846,mA1/imu,0.7029513079652846,-0.711237227120083,-0.0010321758866530745,1.1705197642947456e-06,0.0,0.0,0.0,0.0,0.0,0.0,0.0,0.0,0.0,-5.034224880648303e-05,0.00016023695474479919,0.0020296521501538033,0.0,0.0,0.0,0.0,0.0,0.0,0.0,0.0,0.0,0.020183062183701302,0.3147898481479805,9.811315459126847,0.0,0.0,0.0,0.0,0.0,0.0,0.0,0.0,0.0
2025/05/25 16:44:08.317997858,1748184248,317300455,mA1/imu,0.7029154443123393,-0.7112726834816322,-0.0010236534139791789,3.7030167642784165e-06,0.0,0.0,0.0,0.0,0.0,0.0,0.0,0.0,0.0,0.0010530078344261453,0.00041806277431545087,0.0020200000221288032,0.0,0.0,0.0,0.0,0.0,0.0,0.0,0.0,0.0,0.017439757727658104,-0.5636904576308334,9.810341577130835,0.0,0.0,0.0,0.0,0.0,0.0,0.0,0.0,0.0
2025/05/25 16:44:08.374814494,1748184248,368547738,mA1/imu,0.7028820843997163,-0.711305668714138,-0.0010104513226519285,8.55379890097208e-06,0.0,0.0,0.0,0.0,0.0,0.0,0.0,0.0,0.0,0.0010108473437997483,0.0005734144231258457,0.0018314798048702915,0.0,0.0,0.0,0.0,0.0,0.0,0.0,0.0,0.0,0.019133470603158717,-0.1490200194447958,9.809322035967424,0.0,0.0,0.0,0.0,0.0,0.0,0.0,0.0,0.0
2025/05/25 16:44:08.422855296,1748184248,421060350,mA1/imu,0.7028494715651759,-0.7113379154847924,-0.0009949477824678402,1.9829615661192453e-05,0.0,0.0,0.0,0.0,0.0,0.0,0.0,0.0,0.0,0.0012617967337304249,0.0008852325904152611,0.0018511409563532603,0.0,0.0,0.0,0.0,0.0,0.0,0.0,0.0,0.0,0.014247514069555869,-0.5596375687493397,9.810367560457594,0.0,0.0,0.0,0.0,0.0,0.0,0.0,0.0,0.0
2025/05/25 16:44:08.477601312,1748184248,473627976,mA1/imu,0.7028175707465749,-0.7113694636689466,-0.0009733040748666073,3.299115317335948e-05,0.0,0.0,0.0,0.0,0.0,0.0,0.0,0.0,0.0,0.0012864790892820265,0.0010093092436925149,0.0017477798841174193,0.0,0.0,0.0,0.0,0.0,0.0,0.0,0.0,0.0,0.021312299090976365,-0.5632331704547419,9.811047503783962,0.0,0.0,0.0,0.0,0.0,0.0,0.0,0.0,0.0
2025/05/25 16:44:08.518558241,1748184248,516221950,mA1/imu,0.7027862429235638,-0.7114004444837235,-0.0009495430955118414,5.20927240366297e-05,0.0,0.0,0.0,0.0,0.0,0.0,0.0,0.0,0.0,-0.0003556946135391586,0.0013838726365529783,0.0018145505825714805,0.0,0.0,0.0,0.0,0.0,0.0,0.0,0.0,0.0,0.008305389243379015,-0.04569696861079135,9.807547026713456,0.0,0.0,0.0,0.0,0.0,0.0,0.0,0.0,0.0
2025/05/25 16:44:08.571141021,1748184248,569673791,mA1/imu,0.7027527542121939,-0.711433569192949,-0.0009151186893824332,7.503560360590077e-05,0.0,0.0,0.0,0.0,0.0,0.0,0.0,0.0,0.0,-0.000565140405741557,0.0017593973197973672,0.001932475075151675,0.0,0.0,0.0,0.0,0.0,0.0,0.0,0.0,0.0,0.008937377879717396,-0.0608353324904585,9.807266683916579,0.0,0.0,0.0,0.0,0.0,0.0,0.0,0.0,0.0
2025/05/25 16:44:08.622153577,1748184248,620431834,mA1/imu,0.7027170036616489,-0.7114689294385766,-0.000874435521699533,0.00010281457979219853,0.0,0.0,0.0,0.0,0.0,0.0,0.0,0.0,0.0,-0.0006919855650934411,0.002052265640032212,0.0020587392775872483,0.0,0.0,0.0,0.0,0.0,0.0,0.0,0.0,0.0,0.008779230895542242,0.5636127079918098,9.809141442739529,0.0,0.0,0.0,0.0,0.0,0.0,0.0,0.0,0.0
2025/05/25 16:44:08.673899860,1748184248,672646194,mA1/imu,0.7026805131224619,-0.7115050166497342,-0.0008304540911598631,0.000134559346617434,0.0,0.0,0.0,0.0,0.0,0.0,0.0,0.0,0.0,-2.8047480714812853e-05,0.002185441639333767,0.0020631046917250736,0.0,0.0,0.0,0.0,0.0,0.0,0.0,0.0,0.0,0.011919691199714335,0.4342741121132755,9.808207338903584,0.0,0.0,0.0,0.0,0.0,0.0,0.0,0.0,0.0
2025/05/25 16:44:08.734675664,1748184248,728564394,mA1/imu,0.7026442397874054,-0.7115408742660483,-0.0007919755299582172,0.00017122221502141572,0.0,0.0,0.0,0.0,0.0,0.0,0.0,0.0,0.0,-0.0006093312503265157,0.00198967542909901,0.0019635513440824405,0.0,0.0,0.0,0.0,0.0,0.0,0.0,0.0,0.0,0.026064850057737968,0.5733305040636494,9.809519213351123,0.0,0.0,0.0,0.0,0.0,0.0,0.0,0.0,0.0
2025/05/25 16:44:08.773902674,1748184248,770215545,mA1/imu,0.702609635281972,-0.7115750806695579,-0.0007521007083384129,0.00019830171730183518,0.0,0.0,0.0,0.0,0.0,0.0,0.0,0.0,0.0,-1.807469258737825e-05,0.0018420637673967877,0.0019504113382598585,0.0,0.0,0.0,0.0,0.0,0.0,0.0,0.0,0.0,0.011168419773339915,-0.014206268546122685,9.80748612149118,0.0,0.0,0.0,0.0,0.0,0.0,0.0,0.0,0.0
2025/05/25 16:44:08.823795175,1748184248,823067567,mA1/imu,0.7025748007667344,-0.7116095061673274,-0.0007146704095212901,0.0002220497279208185,0.0,0.0,0.0,0.0,0.0,0.0,0.0,0.0,0.0,0.0011840763039953593,0.001641073385207628,0.001967287716100105,0.0,0.0,0.0,0.0,0.0,0.0,0.0,0.0,0.0,0.010597297898187485,0.07005811831134987,9.807854766094502,0.0,0.0,0.0,0.0,0.0,0.0,0.0,0.0,0.0
2025/05/25 16:44:08.877738494,1748184248,874072373,mA1/imu,0.7025409636514105,-0.7116429311592775,-0.0006868134272483318,0.00024740674112215023,0.0,0.0,0.0,0.0,0.0,0.0,0.0,0.0,0.0,0.0014212851917347305,0.001377749058916405,0.0018864099187322618,0.0,0.0,0.0,0.0,0.0,0.0,0.0,0.0,0.0,0.00952967132303677,-0.005466563235608044,9.808648607336123,0.0,0.0,0.0,0.0,0.0,0.0,0.0,0.0,0.0
2025/05/25 16:44:08.918318917,1748184248,916692956,mA1/imu,0.702507346507654,-0.7116761244833315,-0.0006692089753554805,0.00027221775840726234,0.0,0.0,0.0,0.0,0.0,0.0,0.0,0.0,0.0,-0.00013459217252989017,0.0010635658037681274,0.001894722516859272,0.0,0.0,0.0,0.0,0.0,0.0,0.0,0.0,0.0,0.00989666586592014,-0.012652836338007442,9.810328012646035,0.0,0.0,0.0,0.0,0.0,0.0,0.0,0.0,0.0
2025/05/25 16:44:08.969401959,1748184248,967892597,mA1/imu,0.702473489299385,-0.7117095505231886,-0.0006552522972186933,0.00028839218874725215,0.0,0.0,0.0,0.0,0.0,0.0,0.0,0.0,0.0,-0.0009208251529855108,0.000699641710461282,0.0019094326035307334,0.0,0.0,0.0,0.0,0.0,0.0,0.0,0.0,0.0,0.010569446326391934,-0.0649783061585571,9.811010491075448,0.0,0.0,0.0,0.0,0.0,0.0,0.0,0.0,0.0
2025/05/25 16:44:09.22567870,1748184249,19417398,mA1/imu,0.7024396323780188,-0.711742970357363,-0.0006472959672306553,0.00029668070829556495,0.0,0.0,0.0,0.0,0.0,0.0,0.0,0.0,0.0,-0.0014779020811086427,0.0003048831854588487,0.0018731507885367251,0.0,0.0,0.0,0.0,0.0,0.0,0.0,0.0,0.0,0.009774061748256908,0.4196102741297419,9.809864676382471,0.0,0.0,0.0,0.0,0.0,0.0,0.0,0.0,0.0
2025/05/25 16:44:09.75208078,1748184249,73615540,mA1/imu,0.7024075996322061,-0.7117745864570756,-0.0006442384222567257,0.0002949739597294624,0.0,0.0,0.0,0.0,0.0,0.0,0.0,0.0,0.0,-0.0009947536114384614,-0.00010501276357110935,0.0017944647461260877,0.0,0.0,0.0,0.0,0.0,0.0,0.0,0.0,0.0,0.008534225137818922,0.5709637646835459,9.810792145847476,0.0,0.0,0.0,0.0,0.0,0.0,0.0,0.0,0.0
2025/05/25 16:44:09.116882626,1748184249,115376454,mA1/imu,0.7023776006208368,-0.7118041877571063,-0.0006506649502483338,0.00028473265523098513,0.0,0.0,0.0,0.0,0.0,0.0,0.0,0.0,0.0,0.0005749119104783795,-0.0009789701692100813,0.0014212376044098,0.0,0.0,0.0,0.0,0.0,0.0,0.0,0.0,0.0,0.05196956716892722,0.055129074328439026,9.811425499130628,0.0,0.0,0.0,0.0,0.0,0.0,0.0,0.0,0.0
2025/05/25 16:44:09.176090738,1748184249,172403207,mA1/imu,0.702353177500587,-0.7118282715073044,-0.0006744924061309487,0.0002664540235391639,0.0,0.0,0.0,0.0,0.0,0.0,0.0,0.0,0.0,0.0013410638504597425,-0.0012918190183343686,0.0013656723990757875,0.0,0.0,0.0,0.0,0.0,0.0,0.0,0.0,0.0,0.005544517541670734,-0.5264459982730378,9.809181772340338,0.0,0.0,0.0,0.0,0.0,0.0,0.0,0.0,0.0
2025/05/25 16:44:09.224135576,1748184249,222522145,mA1/imu,0.7023288416460548,-0.7118522604615819,-0.0007044998298543191,0.0002472808862547875,0.0,0.0,0.0,0.0,0.0,0.0,0.0,0.0,0.0,0.0007498169271516339,-0.0014543245164657021,0.0013669917324545958,0.0,0.0,0.0,0.0,0.0,0.0,0.0,0.0,0.0,0.005589741934364319,-0.5666436850098204,9.811291167932769,0.0,0.0,0.0,0.0,0.0,0.0,0.0,0.0,0.0
2025/05/25 16:44:09.276240395,1748184249,273565200,mA1/imu,0.7023060056111124,-0.7118747668275447,-0.0007344813073236852,0.000226658338088792,0.0,0.0,0.0,0.0,0.0,0.0,0.0,0.0,0.0,-0.000637831249040764,-0.0014221541795024473,0.0012435471941926385,0.0,0.0,0.0,0.0,0.0,0.0,0.0,0.0,0.0,0.004572496384618275,-0.09890083482815874,9.812821015574137,0.0,0.0,0.0,0.0,0.0,0.0,0.0,0.0,0.0
