time,header_stamp_secs,header_stamp_nsecs,header_frame_id,orientation_x,orientation_y,orientation_z,orientation_w,orientation_covariance_0,orientation_covariance_1,orientation_covariance_2,orientation_covariance_3,orientation_covariance_4,orientation_covariance_5,orientation_covariance_6,orientation_covariance_7,orientation_covariance_8,angular_velocity_x,angular_velocity_y,angular_velocity_z,angular_velocity_covariance_0,angular_velocity_covariance_1,angular_velocity_covariance_2,angular_velocity_covariance_3,angular_velocity_covariance_4,angular_velocity_covariance_5,angular_velocity_covariance_6,angular_velocity_covariance_7,angular_velocity_covariance_8,linear_acceleration_x,linear_acceleration_y,linear_acceleration_z,linear_acceleration_covariance_0,linear_acceleration_covariance_1,linear_acceleration_covariance_2,linear_acceleration_covariance_3,linear_acceleration_covariance_4,linear_acceleration_covariance_5,linear_acceleration_covariance_6,linear_acceleration_covariance_7,linear_acceleration_covariance_8
2025/05/19 02:27:17.373107582,1747614437,372735462,mA1/imu,0.8849445289464644,0.46569557401792405,1.3234357762785098e-05,0.0009015834338508186,0.0,0.0,0.0,0.0,0.0,0.0,0.0,0.0,0.0,-0.000682394905709875,-6.565354924714217e-06,-4.478478266085902e-06,0.0,0.0,0.0,0.0,0.0,0.0,0.0,0.0,0.0,0.008287859082121454,-0.061078315709201254,9.809025139876491,0.0,0.0,0.0,0.0,0.0,0.0,0.0,0.0,0.0
2025/05/19 02:27:17.426352304,1747614437,424888165,mA1/imu,0.8849444795972525,0.46569567238937404,1.1874046514745277e-05,0.0008992258692083772,0.0,0.0,0.0,0.0,0.0,0.0,0.0,0.0,0.0,-0.0008041208297951226,1.2497193779941522e-06,-4.475732293727258e-06,0.0,0.0,0.0,0.0,0.0,0.0,0.0,0.0,0.0,0.008279168392963271,-0.06989844906021885,9.809364768734975,0.0,0.0,0.0,0.0,0.0,0.0,0.0,0.0,0.0
2025/05/19 02:27:17.476011708,1747614437,474793288,mA1/imu,0.8849444308500537,0.46569577070978385,1.0242501291898821e-05,0.0008962954792586659,0.0,0.0,0.0,0.0,0.0,0.0,0.0,0.0,0.0,-0.0009402886137614229,9.266307086818326e-06,-4.475855736326862e-06,0.0,0.0,0.0,0.0,0.0,0.0,0.0,0.0,0.0,0.007884552112459385,0.5506077485281384,9.81048783844335,0.0,0.0,0.0,0.0,0.0,0.0,0.0,0.0,0.0
2025/05/19 02:27:17.526811160,1747614437,526120616,mA1/imu,0.8849443827855449,0.4656958689902541,8.29558163101832e-06,0.0008926997850842559,0.0,0.0,0.0,0.0,0.0,0.0,0.0,0.0,0.0,0.0006383090365196305,1.296545909600853e-06,-4.4276057204863665e-06,0.0,0.0,0.0,0.0,0.0,0.0,0.0,0.0,0.0,0.007472436827343403,0.031033082780512082,9.809242883961277,0.0,0.0,0.0,0.0,0.0,0.0,0.0,0.0,0.0
2025/05/19 02:27:17.577819426,1747614437,575869461,mA1/imu,0.884944327640963,0.46569596747177183,1.0081660143542533e-05,0.0008959659451059447,0.0,0.0,0.0,0.0,0.0,0.0,0.0,0.0,0.0,0.0007576600887568268,-5.710029488224053e-06,-4.418747726482008e-06,0.0,0.0,0.0,0.0,0.0,0.0,0.0,0.0,0.0,0.008234665917570749,0.03578597056052833,9.811384111138516,0.0,0.0,0.0,0.0,0.0,0.0,0.0,0.0,0.0
2025/05/19 02:27:17.629270479,1747614437,629036536,mA1/imu,0.8849442720233304,0.4656960660621679,1.218166844800273e-05,0.0008996215458135389,0.0,0.0,0.0,0.0,0.0,0.0,0.0,0.0,0.0,0.000915765679259178,-4.3548555832026816e-07,-4.421862682546022e-06,0.0,0.0,0.0,0.0,0.0,0.0,0.0,0.0,0.0,0.007744425447160468,-0.5803966144046364,9.810550616031618,0.0,0.0,0.0,0.0,0.0,0.0,0.0,0.0,0.0
2025/05/19 02:27:17.679553649,1747614437,677805937,mA1/imu,0.8849442157819188,0.4656961646706443,1.4616497659364358e-05,0.0009038537131967938,0.0,0.0,0.0,0.0,0.0,0.0,0.0,0.0,0.0,-0.000666998864188555,5.9404112072371315e-06,-4.470533638650817e-06,0.0,0.0,0.0,0.0,0.0,0.0,0.0,0.0,0.0,0.008290609615315794,-0.06107452525736423,9.809083969681813,0.0,0.0,0.0,0.0,0.0,0.0,0.0,0.0,0.0
2025/05/19 02:27:17.730820436,1747614437,728771342,mA1/imu,0.8849441668876074,0.46569626323692603,1.3311965083554801e-05,0.0009009559111789821,0.0,0.0,0.0,0.0,0.0,0.0,0.0,0.0,0.0,-0.000784276583959509,1.2901674349683952e-05,-4.47426156737501e-06,0.0,0.0,0.0,0.0,0.0,0.0,0.0,0.0,0.0,0.00828490354921172,-0.0698992661581623,9.80939876399985,0.0,0.0,0.0,0.0,0.0,0.0,0.0,0.0,0.0
2025/05/19 02:27:17.772803336,1747614437,771852843,mA1/imu,0.8849441186075877,0.465696361866137,1.1664067448773389e-05,0.0008974131897456848,0.0,0.0,0.0,0.0,0.0,0.0,0.0,0.0,0.0,-0.0009168726030239727,1.9425722882500852e-05,-4.480874997067648e-06,0.0,0.0,0.0,0.0,0.0,0.0,0.0,0.0,0.0,0.00789340911584266,0.5506161590326766,9.810489832440686,0.0,0.0,0.0,0.0,0.0,0.0,0.0,0.0,0.0
2025/05/19 02:27:17.826078306,1747614437,823768206,mA1/imu,0.884944070995235,0.46569646055505287,9.624004488255052e-06,0.000893165301077662,0.0,0.0,0.0,0.0,0.0,0.0,0.0,0.0,0.0,0.0006639976375885791,9.235326899811796e-06,-4.439055519961512e-06,0.0,0.0,0.0,0.0,0.0,0.0,0.0,0.0,0.0,0.007484081872820025,0.031035333785050682,9.8092025346033,0.0,0.0,0.0,0.0,0.0,0.0,0.0,0.0,0.0
2025/05/19 02:27:17.878206054,1747614437,875857377,mA1/imu,0.8849440164382283,0.46569655949536237,1.1163812180864515e-05,0.0008956113712775572,0.0,0.0,0.0,0.0,0.0,0.0,0.0,0.0,0.0,0.0007944553294570191,3.306486253193639e-08,-4.432989087180232e-06,0.0,0.0,0.0,0.0,0.0,0.0,0.0,0.0,0.0,0.008237007247375937,0.03648126650485713,9.811319386532837,0.0,0.0,0.0,0.0,0.0,0.0,0.0,0.0,0.0
2025/05/19 02:27:17.929704077,1747614437,929037651,mA1/imu,0.8849439613607097,0.46569665857630044,1.2974341201818008e-05,0.0008984841398742318,0.0,0.0,0.0,0.0,0.0,0.0,0.0,0.0,0.0,0.0009466667828336204,2.8646104904043814e-06,-4.4410003130301875e-06,0.0,0.0,0.0,0.0,0.0,0.0,0.0,0.0,0.0,0.00775440910658153,-0.5801144193121133,9.810510089590462,0.0,0.0,0.0,0.0,0.0,0.0,0.0,0.0,0.0
2025/05/19 02:27:17.979327400,1747614437,979030927,mA1/imu,0.8849439055243128,0.4656967576938418,1.5110883524277648e-05,0.000902064565750482,0.0,0.0,0.0,0.0,0.0,0.0,0.0,0.0,0.0,-0.0006402976503015195,6.3759601246805505e-06,-4.493027925274821e-06,0.0,0.0,0.0,0.0,0.0,0.0,0.0,0.0,0.0,0.008300037321864876,-0.060973532022766126,9.809007084706662,0.0,0.0,0.0,0.0,0.0,0.0,0.0,0.0,0.0
2025/05/19 02:27:18.23193902,1747614438,22646875,mA1/imu,0.8849438569015684,0.465696856768781,1.3490460766576865e-05,0.0008986355554102958,0.0,0.0,0.0,0.0,0.0,0.0,0.0,0.0,0.0,-0.000761433901965929,1.0445024277716931e-05,-4.498923675506488e-06,0.0,0.0,0.0,0.0,0.0,0.0,0.0,0.0,0.0,0.008295418630891465,-0.06987101538311458,9.809322978949488,0.0,0.0,0.0,0.0,0.0,0.0,0.0,0.0,0.0
2025/05/19 02:27:18.73212048,1747614438,72953918,mA1/imu,0.8849438087704168,0.46569695587797816,1.151346296308529e-05,0.0008946911941044171,0.0,0.0,0.0,0.0,0.0,0.0,0.0,0.0,0.0,-0.0008982320536984249,1.4137308959143178e-05,-4.506907496929918e-06,0.0,0.0,0.0,0.0,0.0,0.0,0.0,0.0,0.0,0.007903946566934248,0.5506228276881358,9.810391799284298,0.0,0.0,0.0,0.0,0.0,0.0,0.0,0.0,0.0
2025/05/19 02:27:18.130154888,1747614438,128163035,mA1/imu,0.8849437611884918,0.4656970549914247,9.144432294103664e-06,0.0008901810257595783,0.0,0.0,0.0,0.0,0.0,0.0,0.0,0.0,0.0,0.000677753464760057,1.5411517710473225e-06,-4.464844287230989e-06,0.0,0.0,0.0,0.0,0.0,0.0,0.0,0.0,0.0,0.0074908591926066935,0.031049125774307757,9.809176235960043,0.0,0.0,0.0,0.0,0.0,0.0,0.0,0.0,0.0
2025/05/19 02:27:18.181714426,1747614438,179867729,mA1/imu,0.8849437064071008,0.4656971543017357,1.044995651343887e-05,0.0008926682063607706,0.0,0.0,0.0,0.0,0.0,0.0,0.0,0.0,0.0,0.0007924750366438645,-9.996745226218733e-06,-4.460056960693351e-06,0.0,0.0,0.0,0.0,0.0,0.0,0.0,0.0,0.0,0.00825076426418087,0.035798297416087636,9.811311655749199,0.0,0.0,0.0,0.0,0.0,0.0,0.0,0.0,0.0
2025/05/19 02:27:18.228542925,1747614438,226264988,mA1/imu,0.8849436510129329,0.4656972536844637,1.2035176644044528e-05,0.0008957107810616974,0.0,0.0,0.0,0.0,0.0,0.0,0.0,0.0,0.0,0.0009443316618945685,-8.860017675942138e-06,-4.464654406064172e-06,0.0,0.0,0.0,0.0,0.0,0.0,0.0,0.0,0.0,0.007758047481049787,-0.5804048356745497,9.810515354359397,0.0,0.0,0.0,0.0,0.0,0.0,0.0,0.0,0.0
2025/05/19 02:27:18.281701026,1747614438,281076192,mA1/imu,0.8849435948503833,0.46569735301071,1.3945576442349708e-05,0.0008995207722004335,0.0,0.0,0.0,0.0,0.0,0.0,0.0,0.0,0.0,-0.0006456455797679073,-6.21299382035071e-06,-4.5130966469529594e-06,0.0,0.0,0.0,0.0,0.0,0.0,0.0,0.0,0.0,0.008304035230117655,-0.06109683427719316,9.80901711346992,0.0,0.0,0.0,0.0,0.0,0.0,0.0,0.0,0.0
2025/05/19 02:27:18.325891665,1747614438,323551455,mA1/imu,0.8849435458495257,0.4656974521746142,1.2133294817399172e-05,0.0008964095740240919,0.0,0.0,0.0,0.0,0.0,0.0,0.0,0.0,0.0,-0.0007707139122509168,-2.211753827196572e-06,-4.514064228750856e-06,0.0,0.0,0.0,0.0,0.0,0.0,0.0,0.0,0.0,0.008292167965646677,-0.0699247810181963,9.809339803398911,0.0,0.0,0.0,0.0,0.0,0.0,0.0,0.0,0.0
2025/05/19 02:27:18.378767743,1747614438,378423646,mA1/imu,0.8849434973154566,0.4656975512515558,1.002266064085522e-05,0.0008928700574947665,0.0,0.0,0.0,0.0,0.0,0.0,0.0,0.0,0.0,-0.0009116036681047277,2.2310862379846305e-06,-4.5158117196125e-06,0.0,0.0,0.0,0.0,0.0,0.0,0.0,0.0,0.0,0.007898934746821962,0.5506016509375952,9.810402757861002,0.0,0.0,0.0,0.0,0.0,0.0,0.0,0.0,0.0
2025/05/19 02:27:18.433151006,1747614438,431214048,mA1/imu,0.8849434493217553,0.465697650211492,7.592225594525595e-06,0.0008888376492946024,0.0,0.0,0.0,0.0,0.0,0.0,0.0,0.0,0.0,0.0006605412314891433,-8.865236461224135e-06,-4.466808875394999e-06,0.0,0.0,0.0,0.0,0.0,0.0,0.0,0.0,0.0,0.007481710800153212,0.03103975704135731,9.809192728279227,0.0,0.0,0.0,0.0,0.0,0.0,0.0,0.0,0.0
2025/05/19 02:27:18.472248856,1747614438,471137718,mA1/imu,0.8849433941479592,0.4656977492672442,8.917447181217182e-06,0.000891853010074473,0.0,0.0,0.0,0.0,0.0,0.0,0.0,0.0,0.0,0.0007722089131658963,-1.8235493987969966e-05,-4.454703272385805e-06,0.0,0.0,0.0,0.0,0.0,0.0,0.0,0.0,0.0,0.008241171098485899,0.035789720600140955,9.811341674155441,0.0,0.0,0.0,0.0,0.0,0.0,0.0,0.0,0.0
2025/05/19 02:27:18.530755107,1747614438,527581695,mA1/imu,0.8849433383838187,0.4656978482950996,1.0604825582480847e-05,0.0008954501406076334,0.0,0.0,0.0,0.0,0.0,0.0,0.0,0.0,0.0,0.0009219302769013206,-1.452430648119806e-05,-4.452597038636671e-06,0.0,0.0,0.0,0.0,0.0,0.0,0.0,0.0,0.0,0.007746756904876135,-0.5804128963066952,9.810572600569401,0.0,0.0,0.0,0.0,0.0,0.0,0.0,0.0,0.0
2025/05/19 02:27:18.587046485,1747614438,579692557,mA1/imu,0.8849432818881426,0.4656979471823373,1.269496632141969e-05,0.0008998166690864746,0.0,0.0,0.0,0.0,0.0,0.0,0.0,0.0,0.0,-0.0006690443386788955,-9.042621287129908e-06,-4.494972028789178e-06,0.0,0.0,0.0,0.0,0.0,0.0,0.0,0.0,0.0,0.008291220603802229,-0.06110020396277628,9.809079267850441,0.0,0.0,0.0,0.0,0.0,0.0,0.0,0.0,0.0
2025/05/19 02:27:18.623977251,1747614438,623778533,mA1/imu,0.8849432326126678,0.465698045834058,1.1135148833994778e-05,0.0008972376438328236,0.0,0.0,0.0,0.0,0.0,0.0,0.0,0.0,0.0,-0.0007941159716844064,-1.9835411643797486e-06,-4.4904577852629395e-06,0.0,0.0,0.0,0.0,0.0,0.0,0.0,0.0,0.0,0.008281191591690428,-0.06992305771008613,9.809410120477208,0.0,0.0,0.0,0.0,0.0,0.0,0.0,0.0,0.0
2025/05/19 02:27:18.678491792,1747614438,676768670,mA1/imu,0.8849431838740714,0.465698144365054,9.336876302676398e-06,0.0008941826375518632,0.0,0.0,0.0,0.0,0.0,0.0,0.0,0.0,0.0,-0.0009339738183911458,5.4798703494663295e-06,-4.487966439166524e-06,0.0,0.0,0.0,0.0,0.0,0.0,0.0,0.0,0.0,0.00788652190106597,0.5506087162653188,9.810458816130437,0.0,0.0,0.0,0.0,0.0,0.0,0.0,0.0,0.0
2025/05/19 02:27:18.725521700,1747614438,723710049,mA1/imu,0.8849431357552334,0.465698242775079,7.265288312113393e-06,0.0008905633687158419,0.0,0.0,0.0,0.0,0.0,0.0,0.0,0.0,0.0,0.0006401150310844827,-2.7465752223885092e-06,-4.436222351145414e-06,0.0,0.0,0.0,0.0,0.0,0.0,0.0,0.0,0.0,0.00747404665971042,0.03104579069549586,9.80922581599799,0.0,0.0,0.0,0.0,0.0,0.0,0.0,0.0,0.0
2025/05/19 02:27:18.777785420,1747614438,776138451,mA1/imu,0.8849430805201473,0.4656983413059812,8.97642751695294e-06,0.0008939036824796567,0.0,0.0,0.0,0.0,0.0,0.0,0.0,0.0,0.0,0.0007546879111030363,-9.646537376526416e-06,-4.423092293849882e-06,0.0,0.0,0.0,0.0,0.0,0.0,0.0,0.0,0.0,0.008231016300179939,0.03579893968021502,9.811359083243397,0.0,0.0,0.0,0.0,0.0,0.0,0.0,0.0,0.0
2025/05/19 02:27:18.830534402,1747614438,829688066,mA1/imu,0.8849430247673586,0.4656984398550128,1.1056713257092884e-05,0.0008977248767370484,0.0,0.0,0.0,0.0,0.0,0.0,0.0,0.0,0.0,0.0009081281882553173,-4.083194319522702e-06,-4.4218474411708535e-06,0.0,0.0,0.0,0.0,0.0,0.0,0.0,0.0,0.0,0.007742078221777578,-0.5804062929391448,9.810577845584888,0.0,0.0,0.0,0.0,0.0,0.0,0.0,0.0,0.0
2025/05/19 02:27:18.873388638,1747614438,872651099,mA1/imu,0.8849429683521949,0.46569853833347796,1.3526656382956592e-05,0.0009022056849984916,0.0,0.0,0.0,0.0,0.0,0.0,0.0,0.0,0.0,-0.000678385008467468,2.7982443062494514e-06,-4.466202204338099e-06,0.0,0.0,0.0,0.0,0.0,0.0,0.0,0.0,0.0,0.008285431762083522,-0.06109832812461287,9.809070774900215,0.0,0.0,0.0,0.0,0.0,0.0,0.0,0.0,0.0
2025/05/19 02:27:18.928594106,1747614438,925995351,mA1/imu,0.8849429192382768,0.46569863667925443,1.2313163488191262e-05,0.0008996296495898294,0.0,0.0,0.0,0.0,0.0,0.0,0.0,0.0,0.0,-0.0007986785119553489,1.0342910877517005e-05,-4.465946678355877e-06,0.0,0.0,0.0,0.0,0.0,0.0,0.0,0.0,0.0,0.008283318891655693,-0.06992221292109385,9.809380016278208,0.0,0.0,0.0,0.0,0.0,0.0,0.0,0.0,0.0
2025/05/19 02:27:18.984614693,1747614438,980136128,mA1/imu,0.8849428707144146,0.4656987350176504,1.0805468041879033e-05,0.0008964697055295633,0.0,0.0,0.0,0.0,0.0,0.0,0.0,0.0,0.0,-0.000933586310482074,1.751032767242456e-05,-4.469038647555204e-06,0.0,0.0,0.0,0.0,0.0,0.0,0.0,0.0,0.0,0.007892702510554182,0.5506180098234404,9.810404596692347,0.0,0.0,0.0,0.0,0.0,0.0,0.0,0.0,0.0
2025/05/19 02:27:19.28211615,1747614439,25466792,mA1/imu,0.8849428228485069,0.4656988333572468,8.950292696853056e-06,0.0008926469109241088,0.0,0.0,0.0,0.0,0.0,0.0,0.0,0.0,0.0,0.0006452265102423768,8.249885615128622e-06,-4.423757253048959e-06,0.0,0.0,0.0,0.0,0.0,0.0,0.0,0.0,0.0,0.007479893456137735,0.031050549659487565,9.809156370629621,0.0,0.0,0.0,0.0,0.0,0.0,0.0,0.0,0.0
2025/05/19 02:27:19.106180454,1747614439,84656286,mA1/imu,0.8849427677809413,0.46569893192752115,1.0842260440369468e-05,0.0008957880432907153,0.0,0.0,0.0,0.0,0.0,0.0,0.0,0.0,0.0,0.0007546820701087845,-2.3164546891537274e-07,-4.4179229677471505e-06,0.0,0.0,0.0,0.0,0.0,0.0,0.0,0.0,0.0,0.008239213873282605,0.03515277569868745,9.81127296393165,0.0,0.0,0.0,0.0,0.0,0.0,0.0,0.0,0.0
2025/05/19 02:27:19.133628084,1747614439,131278365,mA1/imu,0.8849427121812428,0.46569903060817813,1.3025249028239007e-05,0.0008993765907404974,0.0,0.0,0.0,0.0,0.0,0.0,0.0,0.0,0.0,0.000918051360620147,2.880047888013214e-06,-4.423317301949923e-06,0.0,0.0,0.0,0.0,0.0,0.0,0.0,0.0,0.0,0.007756424549364666,-0.5806841149719788,9.810498645915699,0.0,0.0,0.0,0.0,0.0,0.0,0.0,0.0,0.0
2025/05/19 02:27:19.183645640,1747614439,171487948,mA1/imu,0.8849426559928628,0.4656991293406146,1.5453217101117156e-05,0.000903491499259969,0.0,0.0,0.0,0.0,0.0,0.0,0.0,0.0,0.0,-0.0006622010222316769,6.987333772648371e-06,-4.475531439906193e-06,0.0,0.0,0.0,0.0,0.0,0.0,0.0,0.0,0.0,0.00829987702952071,-0.06120501918380929,9.809016422922076,0.0,0.0,0.0,0.0,0.0,0.0,0.0,0.0,0.0
2025/05/19 02:27:19.228423397,1747614439,226695478,mA1/imu,0.8849426071378488,0.4656992280665012,1.4076187008192262e-05,0.0009004733160187796,0.0,0.0,0.0,0.0,0.0,0.0,0.0,0.0,0.0,-0.0007784309613950409,1.1694553668368098e-05,-4.4828786699482935e-06,0.0,0.0,0.0,0.0,0.0,0.0,0.0,0.0,0.0,0.008294473090670718,-0.06995911788807078,9.809333441290383,0.0,0.0,0.0,0.0,0.0,0.0,0.0,0.0,0.0
2025/05/19 02:27:19.285483604,1747614439,281179807,mA1/imu,0.8849419772014872,0.46570043061062383,1.0876803218540449e-05,0.0008976622402259413,0.0,0.0,0.0,0.0,0.0,0.0,0.0,0.0,0.0,-0.000917678909897271,-0.00011173232195383216,-0.0001006429762089467,0.0,0.0,0.0,0.0,0.0,0.0,0.0,0.0,0.0,0.012487338703782219,0.5490358973141012,9.810408803466242,0.0,0.0,0.0,0.0,0.0,0.0,0.0,0.0,0.0
2025/05/19 02:27:19.344316678,1747614439,325336459,mA1/imu,0.8849399264805825,0.46570432950685803,3.819722322908042e-06,0.000896651838029096,0.0,0.0,0.0,0.0,0.0,0.0,0.0,0.0,0.0,0.0006382822872169221,-0.00026780868062163167,-0.00022407149618479104,0.0,0.0,0.0,0.0,0.0,0.0,0.0,0.0,0.0,0.009440723845082065,0.029800001088509897,9.809159511899523,0.0,0.0,0.0,0.0,0.0,0.0,0.0,0.0,0.0
2025/05/19 02:27:19.380130724,1747614439,371665889,mA1/imu,0.884936491748023,0.46571084219551545,-1.1117734659301759e-06,0.0009038987823766951,0.0,0.0,0.0,0.0,0.0,0.0,0.0,0.0,0.0,0.0007345957611483479,-0.00034912742433533534,-0.0003445269842129798,0.0,0.0,0.0,0.0,0.0,0.0,0.0,0.0,0.0,0.011401547591079851,0.03328183860489661,9.811765465385438,0.0,0.0,0.0,0.0,0.0,0.0,0.0,0.0,0.0
2025/05/19 02:27:19.427287224,1747614439,426586752,mA1/imu,0.8849317140060261,0.46571990394604723,-6.545740647192501e-06,0.0009124538314371021,0.0,0.0,0.0,0.0,0.0,0.0,0.0,0.0,0.0,0.000872101702325165,-0.00037720526759343074,-0.00045740964936173386,0.0,0.0,0.0,0.0,0.0,0.0,0.0,0.0,0.0,0.010611326939282928,-0.5828785386914758,9.811024895277036,0.0,0.0,0.0,0.0,0.0,0.0,0.0,0.0,0.0
2025/05/19 02:27:19.482268663,1747614439,478236535,mA1/imu,0.884925616341368,0.4657314709657061,-1.1928685957700064e-05,0.0009221456913251467,0.0,0.0,0.0,0.0,0.0,0.0,0.0,0.0,0.0,-0.0007275175486281565,-0.0003764055038906867,-0.0005674119793797553,0.0,0.0,0.0,0.0,0.0,0.0,0.0,0.0,0.0,0.011361592011982325,-0.06389436268550491,9.808328948058573,0.0,0.0,0.0,0.0,0.0,0.0,0.0,0.0,0.0
2025/05/19 02:27:19.539904311,1747614439,521293438,mA1/imu,0.8849182418858973,0.46574547492353613,-2.0188404928778148e-05,0.0009259364181749967,0.0,0.0,0.0,0.0,0.0,0.0,0.0,0.0,0.0,-0.0008822469468540342,-0.00034440956612287753,-0.0006749146167827539,0.0,0.0,0.0,0.0,0.0,0.0,0.0,0.0,0.0,0.01119095513731187,-0.07499202851890431,9.808616388067945,0.0,0.0,0.0,0.0,0.0,0.0,0.0,0.0,0.0
2025/05/19 02:27:19.576663620,1747614439,573481811,mA1/imu,0.8849096191614264,0.4657618526117238,-2.8307638561231058e-05,0.0009283134986881322,0.0,0.0,0.0,0.0,0.0,0.0,0.0,0.0,0.0,-0.0009954271594801365,-0.00028768428637537797,-0.0007796477003557498,0.0,0.0,0.0,0.0,0.0,0.0,0.0,0.0,0.0,0.008729372288918812,0.5488796103134846,9.810554947966468,0.0,0.0,0.0,0.0,0.0,0.0,0.0,0.0,0.0
2025/05/19 02:27:19.627489986,1747614439,627206572,mA1/imu,0.8848997790758378,0.4657805453624226,-3.566775420243019e-05,0.0009291292853844693,0.0,0.0,0.0,0.0,0.0,0.0,0.0,0.0,0.0,0.0005910893881148758,-0.00024084679860934507,-0.0008859688153650221,0.0,0.0,0.0,0.0,0.0,0.0,0.0,0.0,0.0,0.008114858540672128,0.029973656735387908,9.809389098526363,0.0,0.0,0.0,0.0,0.0,0.0,0.0,0.0,0.0
2025/05/19 02:27:19.678274418,1747614439,677381938,mA1/imu,0.8848887533568356,0.4658014784038732,-3.770870929173685e-05,0.0009356694955324272,0.0,0.0,0.0,0.0,0.0,0.0,0.0,0.0,0.0,0.0007169477126506391,-0.00017665243727974677,-0.00099002783296376,0.0,0.0,0.0,0.0,0.0,0.0,0.0,0.0,0.0,0.010284750543723738,0.03343618733656588,9.81207975208107,0.0,0.0,0.0,0.0,0.0,0.0,0.0,0.0,0.0
2025/05/19 02:27:19.739794521,1747614439,728906066,mA1/imu,0.8848765790927186,0.465824593954459,-3.754659123531527e-05,0.0009412919763738218,0.0,0.0,0.0,0.0,0.0,0.0,0.0,0.0,0.0,0.0008837126901287287,-7.44831174464591e-05,-0.0010864102023052079,0.0,0.0,0.0,0.0,0.0,0.0,0.0,0.0,0.0,0.00973707982182244,-0.5825426543704602,9.811147434540596,0.0,0.0,0.0,0.0,0.0,0.0,0.0,0.0,0.0
2025/05/19 02:27:19.776214325,1747614439,773151382,mA1/imu,0.8848632715465911,0.46584986242191484,-3.5065764034175964e-05,0.0009461076783619799,0.0,0.0,0.0,0.0,0.0,0.0,0.0,0.0,0.0,-0.0006910846301572178,3.419160395861501e-05,-0.0011803856949682988,0.0,0.0,0.0,0.0,0.0,0.0,0.0,0.0,0.0,0.010511583835597365,-0.06364535432775192,9.808380465721037,0.0,0.0,0.0,0.0,0.0,0.0,0.0,0.0,0.0
2025/05/19 02:27:19.828005480,1747614439,826697560,mA1/imu,0.8848488652677083,0.46587723319992863,-3.4327600199008995e-05,0.0009423598273868279,0.0,0.0,0.0,0.0,0.0,0.0,0.0,0.0,0.0,-0.0007890532193430078,0.00014521302838169645,-0.001272448668258038,0.0,0.0,0.0,0.0,0.0,0.0,0.0,0.0,0.0,0.01047692257441521,-0.07240250702922152,9.80869796697715,0.0,0.0,0.0,0.0,0.0,0.0,0.0,0.0,0.0
2025/05/19 02:27:19.878220499,1747614439,877924746,mA1/imu,0.8848333801564988,0.4659066548975486,-3.202952848342628e-05,0.0009366200460751378,0.0,0.0,0.0,0.0,0.0,0.0,0.0,0.0,0.0,-0.0009016878491000021,0.00024933369085281725,-0.0013623793812641636,0.0,0.0,0.0,0.0,0.0,0.0,0.0,0.0,0.0,0.00814942715930659,0.5501090145003039,9.810662994660685,0.0,0.0,0.0,0.0,0.0,0.0,0.0,0.0,0.0
2025/05/19 02:27:19.933148180,1747614439,931321211,mA1/imu,0.8848168437260455,0.4659380745620924,-2.8436715698015782e-05,0.0009289367050859045,0.0,0.0,0.0,0.0,0.0,0.0,0.0,0.0,0.0,0.0006901980669224342,0.0003072024367059626,-0.0014550857746246178,0.0,0.0,0.0,0.0,0.0,0.0,0.0,0.0,0.0,0.007775986744955063,0.030639797179310497,9.809490234478389,0.0,0.0,0.0,0.0,0.0,0.0,0.0,0.0,0.0
2025/05/19 02:27:19.974243909,1747614439,971724252,mA1/imu,0.8847992869210698,0.46597141781241347,-1.9751319867406414e-05,0.0009269604851433839,0.0,0.0,0.0,0.0,0.0,0.0,0.0,0.0,0.0,0.0008199779408907769,0.0003501547056188149,-0.0015456472587766757,0.0,0.0,0.0,0.0,0.0,0.0,0.0,0.0,0.0,0.01027593388550917,0.03387032134042488,9.812155740308999,0.0,0.0,0.0,0.0,0.0,0.0,0.0,0.0,0.0
2025/05/19 02:27:20.29191692,1747614440,26473023,mA1/imu,0.8847807437781845,0.46600663158120476,-9.784049277713786e-06,0.0009244814407917073,0.0,0.0,0.0,0.0,0.0,0.0,0.0,0.0,0.0,0.0009870232222841102,0.0004003570419711116,-0.0016277350719590038,0.0,0.0,0.0,0.0,0.0,0.0,0.0,0.0,0.0,0.009850244701439638,-0.5822594226194012,9.811219235674232,0.0,0.0,0.0,0.0,0.0,0.0,0.0,0.0,0.0
2025/05/19 02:27:20.82378022,1747614440,76974911,mA1/imu,0.8847612266034405,0.4660436908314503,9.96231171344615e-07,0.0009220273219743519,0.0,0.0,0.0,0.0,0.0,0.0,0.0,0.0,0.0,-0.0005910057113516655,0.00043100879833788113,-0.0017074894719559146,0.0,0.0,0.0,0.0,0.0,0.0,0.0,0.0,0.0,0.010452342271239586,-0.06340971372540465,9.808330853423078,0.0,0.0,0.0,0.0,0.0,0.0,0.0,0.0,0.0
2025/05/19 02:27:20.124243229,1747614440,121181031,mA1/imu,0.8847407705145439,0.46608254289381756,8.061422893250491e-06,0.000912213778343477,0.0,0.0,0.0,0.0,0.0,0.0,0.0,0.0,0.0,-0.0006961101905077101,0.00044145080774558816,-0.0017854075315477747,0.0,0.0,0.0,0.0,0.0,0.0,0.0,0.0,0.0,0.010507826808010061,-0.07219854496195156,9.808603113672726,0.0,0.0,0.0,0.0,0.0,0.0,0.0,0.0,0.0
2025/05/19 02:27:20.173949611,1747614440,173275737,mA1/imu,0.8847193965680326,0.46612313362016405,1.438952703957969e-05,0.000901905403350106,0.0,0.0,0.0,0.0,0.0,0.0,0.0,0.0,0.0,-0.0008197013940392741,0.0004310227227790607,-0.0018612978637632077,0.0,0.0,0.0,0.0,0.0,0.0,0.0,0.0,0.0,0.008142488739244431,0.5503863681640682,9.810471144902074,0.0,0.0,0.0,0.0,0.0,0.0,0.0,0.0,0.0
2025/05/19 02:27:20.230703611,1747614440,230415411,mA1/imu,0.8846971325157542,0.46616540908429055,1.9314709828993745e-05,0.0008914699210439653,0.0,0.0,0.0,0.0,0.0,0.0,0.0,0.0,0.0,0.0007568386119879793,0.00033456957605980316,-0.0019404448178893536,0.0,0.0,0.0,0.0,0.0,0.0,0.0,0.0,0.0,0.010047580185851154,0.030949409987372358,9.80932937893526,0.0,0.0,0.0,0.0,0.0,0.0,0.0,0.0,0.0
2025/05/19 02:27:20.298892361,1747614440,277630267,mA1/imu,0.884674011958321,0.46620928883578777,2.5308076417784734e-05,0.0008893414973276122,0.0,0.0,0.0,0.0,0.0,0.0,0.0,0.0,0.0,0.0008680826017284599,0.00017957353619034078,-0.0020170716490764107,0.0,0.0,0.0,0.0,0.0,0.0,0.0,0.0,0.0,0.012461491101155728,0.034081335693282436,9.811956608380573,0.0,0.0,0.0,0.0,0.0,0.0,0.0,0.0,0.0
2025/05/19 02:27:20.334714675,1747614440,328903652,mA1/imu,0.8846500726531026,0.4662547127272777,2.853778189836943e-05,0.0008893818409630045,0.0,0.0,0.0,0.0,0.0,0.0,0.0,0.0,0.0,0.0010146886802622902,3.254544306705293e-05,-0.0020842005341123616,0.0,0.0,0.0,0.0,0.0,0.0,0.0,0.0,0.0,0.013113902621920127,-0.5820735383705512,9.811084320052974,0.0,0.0,0.0,0.0,0.0,0.0,0.0,0.0,0.0
2025/05/19 02:27:20.378144252,1747614440,376310669,mA1/imu,0.8846253295779444,0.4663016505769136,2.8333542929868667e-05,0.0008922642936127743,0.0,0.0,0.0,0.0,0.0,0.0,0.0,0.0,0.0,-0.0005841789564140853,-0.00013232830986435092,-0.0021487095659538636,0.0,0.0,0.0,0.0,0.0,0.0,0.0,0.0,0.0,0.01365065259073265,-0.06316890756106765,9.808163453968717,0.0,0.0,0.0,0.0,0.0,0.0,0.0,0.0,0.0
2025/05/19 02:27:20.433008518,1747614440,429653751,mA1/imu,0.8845998222858331,0.4663500417643125,2.089319312150291e-05,0.0008902369183665824,0.0,0.0,0.0,0.0,0.0,0.0,0.0,0.0,0.0,-0.0007096597780917199,-0.00027360285953763146,-0.0022113329284127164,0.0,0.0,0.0,0.0,0.0,0.0,0.0,0.0,0.0,0.013347126615421059,-0.07195805482328763,9.808462417029988,0.0,0.0,0.0,0.0,0.0,0.0,0.0,0.0,0.0
2025/05/19 02:27:20.476314792,1747614440,473520240,mA1/imu,0.8845735770501815,0.46639982340039443,1.0217323357804861e-05,0.0008896135868199623,0.0,0.0,0.0,0.0,0.0,0.0,0.0,0.0,0.0,-0.0008527942247329563,-0.0003877551918013278,-0.002271588726788898,0.0,0.0,0.0,0.0,0.0,0.0,0.0,0.0,0.0,0.010597402873640159,0.5508374925097794,9.810295762692617,0.0,0.0,0.0,0.0,0.0,0.0,0.0,0.0,0.0
2025/05/19 02:27:20.535098567,1747614440,527492008,mA1/imu,0.8845466241362846,0.4664509381702885,-2.8849092960896855e-06,0.0008899442890900058,0.0,0.0,0.0,0.0,0.0,0.0,0.0,0.0,0.0,0.0007053402798539522,-0.0004843634509718836,-0.002335024432928915,0.0,0.0,0.0,0.0,0.0,0.0,0.0,0.0,0.0,0.008589479170108152,0.03143751390917104,9.809236679658397,0.0,0.0,0.0,0.0,0.0,0.0,0.0,0.0,0.0
2025/05/19 02:27:20.586255879,1747614440,581333035,mA1/imu,0.8845189975722265,0.46650330811767093,-1.2792253450229088e-05,0.000897933990429504,0.0,0.0,0.0,0.0,0.0,0.0,0.0,0.0,0.0,0.0008002908322276393,-0.0005209236720682049,-0.002396104199037747,0.0,0.0,0.0,0.0,0.0,0.0,0.0,0.0,0.0,0.01111261626727329,0.03429340265832645,9.811905933146848,0.0,0.0,0.0,0.0,0.0,0.0,0.0,0.0,0.0
2025/05/19 02:27:20.626890785,1747614440,625439209,mA1/imu,0.8844907299576837,0.46655688471776713,-2.1430468041867324e-05,0.0009063565031909132,0.0,0.0,0.0,0.0,0.0,0.0,0.0,0.0,0.0,0.000934163901797638,-0.0004036154619565438,-0.0024478262742924062,0.0,0.0,0.0,0.0,0.0,0.0,0.0,0.0,0.0,0.0039374755340511585,-0.5818655310238611,9.811131794868013,0.0,0.0,0.0,0.0,0.0,0.0,0.0,0.0,0.0
2025/05/19 02:27:20.679512100,1747614440,677680343,mA1/imu,0.8844618303100467,0.46661165464388377,-2.450233723498232e-05,0.0009131674187258642,0.0,0.0,0.0,0.0,0.0,0.0,0.0,0.0,0.0,-0.0006735065757902601,-0.0001342139740431001,-0.0024976146333791993,0.0,0.0,0.0,0.0,0.0,0.0,0.0,0.0,0.0,0.00498143806184481,-0.06296788911373241,9.808233660481172,0.0,0.0,0.0,0.0,0.0,0.0,0.0,0.0,0.0
2025/05/19 02:27:20.758213362,1747614440,728141903,mA1/imu,0.8844323250598198,0.46666758324182017,-2.5262955936273732e-05,0.0009102210188247305,0.0,0.0,0.0,0.0,0.0,0.0,0.0,0.0,0.0,-0.0008036974040889713,0.0001506572964646095,-0.0025470423748906513,0.0,0.0,0.0,0.0,0.0,0.0,0.0,0.0,0.0,0.0044607401275412965,-0.07175468313250753,9.808599687433222,0.0,0.0,0.0,0.0,0.0,0.0,0.0,0.0,0.0
2025/05/19 02:27:20.871713532,1747614440,770589391,mA1/imu,0.8844030653118606,0.46672304754282445,-1.7598830193560832e-05,0.0009025794172357091,0.0,0.0,0.0,0.0,0.0,0.0,0.0,0.0,0.0,-0.000944077382483155,0.0006521826632262835,-0.002453900671233204,0.0,0.0,0.0,0.0,0.0,0.0,0.0,0.0,0.0,-0.006348766406082637,0.5517799227870355,9.810492245978107,0.0,0.0,0.0,0.0,0.0,0.0,0.0,0.0,0.0
2025/05/19 02:27:20.878968775,1747614440,821742092,mA1/imu,0.8843754946732426,0.4667753157712127,1.576947432274222e-06,0.0008882599031299773,0.0,0.0,0.0,0.0,0.0,0.0,0.0,0.0,0.0,0.0006251592853419281,0.0011329852840296151,-0.002316707104523321,0.0,0.0,0.0,0.0,0.0,0.0,0.0,0.0,0.0,-0.002641942069334732,0.032860952642778996,9.80941906879982,0.0,0.0,0.0,0.0,0.0,0.0,0.0,0.0,0.0
2025/05/19 02:27:20.890358401,1747614440,876381524,mA1/imu,0.8843489233977339,0.4668256771732831,3.289326103117165e-05,0.0008762048894023267,0.0,0.0,0.0,0.0,0.0,0.0,0.0,0.0,0.0,0.0007496407714923019,0.001447954063179317,-0.0022506327165925676,0.0,0.0,0.0,0.0,0.0,0.0,0.0,0.0,0.0,-0.001549534173630956,0.037165022868125876,9.811554506889326,0.0,0.0,0.0,0.0,0.0,0.0,0.0,0.0,0.0
2025/05/19 02:27:20.922718882,1747614440,920997527,mA1/imu,0.8843231142230462,0.46687459006553284,7.009995074704322e-05,0.0008613291999797653,0.0,0.0,0.0,0.0,0.0,0.0,0.0,0.0,0.0,0.0009165384674550245,0.00166548297077216,-0.0021851496501426593,0.0,0.0,0.0,0.0,0.0,0.0,0.0,0.0,0.0,-0.0009627266946294821,-0.5792053447240328,9.81082463568747,0.0,0.0,0.0,0.0,0.0,0.0,0.0,0.0,0.0
2025/05/19 02:27:20.990104694,1747614440,972573591,mA1/imu,0.8842980550228501,0.4669220742119199,0.00011078398234065119,0.000845117359951314,0.0,0.0,0.0,0.0,0.0,0.0,0.0,0.0,0.0,-0.0006576986830311175,0.0017736362832044166,-0.002120681245417329,0.0,0.0,0.0,0.0,0.0,0.0,0.0,0.0,0.0,-1.5099745665065473e-05,-0.060126207889434784,9.809201792234449,0.0,0.0,0.0,0.0,0.0,0.0,0.0,0.0,0.0
2025/05/19 02:27:21.70993878,1747614441,25305866,mA1/imu,0.8842737387295265,0.4669681558228078,0.00014827066923729518,0.0008212530423812345,0.0,0.0,0.0,0.0,0.0,0.0,0.0,0.0,0.0,-0.0007646324240325376,0.0017612233185409828,-0.0020574981569300103,0.0,0.0,0.0,0.0,0.0,0.0,0.0,0.0,0.0,0.0009321302362268139,-0.06900240079249385,9.809508941942319,0.0,0.0,0.0,0.0,0.0,0.0,0.0,0.0,0.0
2025/05/19 02:27:21.81016118,1747614441,77255513,mA1/imu,0.8842501412053626,0.4670128670435056,0.00018347410499602876,0.0007975784311615962,0.0,0.0,0.0,0.0,0.0,0.0,0.0,0.0,0.0,-0.0008880164163831412,0.0016409222245215142,-0.001996096879645604,0.0,0.0,0.0,0.0,0.0,0.0,0.0,0.0,0.0,0.000768909973576661,0.5519771110593282,9.810549096643282,0.0,0.0,0.0,0.0,0.0,0.0,0.0,0.0,0.0
2025/05/19 02:27:21.151771516,1747614441,133527960,mA1/imu,0.8842272432019447,0.46705624444490945,0.0002140172039457801,0.0007753071277257274,0.0,0.0,0.0,0.0,0.0,0.0,0.0,0.0,0.0,0.000696499596615006,0.001400454253386542,-0.0019372107044483104,0.0,0.0,0.0,0.0,0.0,0.0,0.0,0.0,0.0,0.001062147962722207,0.03250022458782746,9.809457409908473,0.0,0.0,0.0,0.0,0.0,0.0,0.0,0.0,0.0
2025/05/19 02:27:21.198018863,1747614441,174314262,mA1/imu,0.8842050189422417,0.4670983233257186,0.00024199372483815648,0.0007630613930848816,0.0,0.0,0.0,0.0,0.0,0.0,0.0,0.0,0.0,0.0008168047298177724,0.0010810534377381483,-0.001880030603521011,0.0,0.0,0.0,0.0,0.0,0.0,0.0,0.0,0.0,0.0020169951909098467,0.03689778217163211,9.8115262236576,0.0,0.0,0.0,0.0,0.0,0.0,0.0,0.0,0.0
2025/05/19 02:27:21.231575880,1747614441,229123839,mA1/imu,0.8841834519464667,0.4671391484296869,0.0002624312086094039,0.0007552736443360437,0.0,0.0,0.0,0.0,0.0,0.0,0.0,0.0,0.0,0.0009756950508862975,0.000708606290561057,-0.001824428548440683,0.0,0.0,0.0,0.0,0.0,0.0,0.0,0.0,0.0,0.0019017634202703106,-0.5793436987938484,9.810686260792592,0.0,0.0,0.0,0.0,0.0,0.0,0.0,0.0,0.0
2025/05/19 02:27:21.280356444,1747614441,278474523,mA1/imu,0.8841625187222729,0.4671787650886533,0.0002743544978559236,0.0007527725664970323,0.0,0.0,0.0,0.0,0.0,0.0,0.0,0.0,0.0,-0.0006097335388610051,0.0003007436415414133,-0.001770782488256548,0.0,0.0,0.0,0.0,0.0,0.0,0.0,0.0,0.0,0.002500365577415554,-0.060352055491909445,9.809013878349624,0.0,0.0,0.0,0.0,0.0,0.0,0.0,0.0,0.0
2025/05/19 02:27:21.325155371,1747614441,321719034,mA1/imu,0.8841422029451211,0.4672172198532066,0.000273217067729839,0.0007481954441098999,0.0,0.0,0.0,0.0,0.0,0.0,0.0,0.0,0.0,-0.0007306946203213905,-0.00011893232274789775,-0.0017189905315279635,0.0,0.0,0.0,0.0,0.0,0.0,0.0,0.0,0.0,0.00250869158397632,-0.06922795347120816,9.809245363596137,0.0,0.0,0.0,0.0,0.0,0.0,0.0,0.0,0.0
2025/05/19 02:27:21.374434052,1747614441,373059192,mA1/imu,0.8841224761275804,0.46725455447619985,0.00026253279035235046,0.0007480667201540331,0.0,0.0,0.0,0.0,0.0,0.0,0.0,0.0,0.0,-0.0008698347345235292,-0.0005262574010253518,-0.0016692164718368518,0.0,0.0,0.0,0.0,0.0,0.0,0.0,0.0,0.0,0.0019823010426878694,0.5519011907314962,9.8102770028011,0.0,0.0,0.0,0.0,0.0,0.0,0.0,0.0,0.0
2025/05/19 02:27:21.463762693,1747614441,427294229,mA1/imu,0.8841033166053319,0.4672908098530879,0.00024290334321329794,0.0007520586834564133,0.0,0.0,0.0,0.0,0.0,0.0,0.0,0.0,0.0,0.0006984105213846667,-0.0009112540577380604,-0.0016218756686180746,0.0,0.0,0.0,0.0,0.0,0.0,0.0,0.0,0.0,0.0013013534971562332,0.03236586650958127,9.809139648325882,0.0,0.0,0.0,0.0,0.0,0.0,0.0,0.0,0.0
2025/05/19 02:27:21.506700764,1747614441,479320968,mA1/imu,0.8840846986993184,0.4673260198038244,0.00021950569330167903,0.0007671748833645228,0.0,0.0,0.0,0.0,0.0,0.0,0.0,0.0,0.0,0.0008028326050796956,-0.0012400127411102667,-0.001575970332850267,0.0,0.0,0.0,0.0,0.0,0.0,0.0,0.0,0.0,0.0020195200368191557,0.036687639130660706,9.811221378778889,0.0,0.0,0.0,0.0,0.0,0.0,0.0,0.0,0.0
2025/05/19 02:27:21.532173166,1747614441,521004456,mA1/imu,0.8840666088900889,0.46736022152159507,0.00019045853387812903,0.000786199981531357,0.0,0.0,0.0,0.0,0.0,0.0,0.0,0.0,0.0,0.0009465536987984109,-0.0014792071414526549,-0.0015311310140587718,0.0,0.0,0.0,0.0,0.0,0.0,0.0,0.0,0.0,0.0010861545927377107,-0.5795365437108873,9.810391624656328,0.0,0.0,0.0,0.0,0.0,0.0,0.0,0.0,0.0
2025/05/19 02:27:21.589712645,1747614441,575114559,mA1/imu,0.8840490307579147,0.46739344542288086,0.00015762202834530413,0.0008084225481934075,0.0,0.0,0.0,0.0,0.0,0.0,0.0,0.0,0.0,-0.0006524601416990213,-0.0016342217310635972,-0.001487449927167963,0.0,0.0,0.0,0.0,0.0,0.0,0.0,0.0,0.0,0.0016629890883225551,-0.06050420825055183,9.808782218675034,0.0,0.0,0.0,0.0,0.0,0.0,0.0,0.0,0.0
2025/05/19 02:27:21.660080119,1747614441,626270403,mA1/imu,0.8840319593942041,0.46742571581177833,0.00011889529671276129,0.0008251250808431794,0.0,0.0,0.0,0.0,0.0,0.0,0.0,0.0,0.0,-0.000784793318004124,-0.0017045229611873148,-0.0014445269288233045,0.0,0.0,0.0,0.0,0.0,0.0,0.0,0.0,0.0,0.003167111377851188,-0.06938136389272416,9.80909986460107,0.0,0.0,0.0,0.0,0.0,0.0,0.0,0.0,0.0
2025/05/19 02:27:21.719300400,1747614441,678645083,mA1/imu,0.8840153762974953,0.4674570556247976,7.871263790101477e-05,0.0008422710449932757,0.0,0.0,0.0,0.0,0.0,0.0,0.0,0.0,0.0,-0.0009326488101438395,-0.001736045124790341,-0.0014028051921344633,0.0,0.0,0.0,0.0,0.0,0.0,0.0,0.0,0.0,0.002619026037100238,0.5519111935708254,9.810207181244945,0.0,0.0,0.0,0.0,0.0,0.0,0.0,0.0,0.0
2025/05/19 02:27:21.770335122,1747614441,729352145,mA1/imu,0.8839992723685708,0.46748748365772713,3.886366405687523e-05,0.0008588159402936222,0.0,0.0,0.0,0.0,0.0,0.0,0.0,0.0,0.0,0.0006305224681135672,-0.0016815593603287278,-0.0013621054004376472,0.0,0.0,0.0,0.0,0.0,0.0,0.0,0.0,0.0,0.0017789435341592653,0.03245024999116489,9.809119225744022,0.0,0.0,0.0,0.0,0.0,0.0,0.0,0.0,0.0
2025/05/19 02:27:21.836680945,1747614441,779010379,mA1/imu,0.8839836345095697,0.46751701299351084,5.471920875002232e-06,0.0008811645333957179,0.0,0.0,0.0,0.0,0.0,0.0,0.0,0.0,0.0,0.000733435360119574,-0.0015382529351999255,-0.0013217206525233478,0.0,0.0,0.0,0.0,0.0,0.0,0.0,0.0,0.0,0.0024467883135812635,0.0365188517987564,9.811263467778689,0.0,0.0,0.0,0.0,0.0,0.0,0.0,0.0,0.0
2025/05/19 02:27:21.850537910,1747614441,826504521,mA1/imu,0.8839684633496621,0.4675456576330759,-2.3029417151288433e-05,0.0009018322114949491,0.0,0.0,0.0,0.0,0.0,0.0,0.0,0.0,0.0,0.0008794292102878649,-0.0013011307447736702,-0.0012816971744477287,0.0,0.0,0.0,0.0,0.0,0.0,0.0,0.0,0.0,0.0017053537730850037,-0.5796811565431249,9.810498605062467,0.0,0.0,0.0,0.0,0.0,0.0,0.0,0.0,0.0
2025/05/19 02:27:21.879034651,1747614441,874466770,mA1/imu,0.8839537533871447,0.4675734307078807,-4.5101699260780166e-05,0.000920181872412678,0.0,0.0,0.0,0.0,0.0,0.0,0.0,0.0,0.0,-0.0007142068415847861,-0.0010028819616040927,-0.0012422819105568058,0.0,0.0,0.0,0.0,0.0,0.0,0.0,0.0,0.0,0.0025897880818420965,-0.06061729075418753,9.80896510986483,0.0,0.0,0.0,0.0,0.0,0.0,0.0,0.0,0.0
2025/05/19 02:27:21.931765849,1747614441,928727550,mA1/imu,0.8839395058650856,0.467600347492817,-6.371205280815298e-05,0.0009278665632779909,0.0,0.0,0.0,0.0,0.0,0.0,0.0,0.0,0.0,-0.000838323647433431,-0.0006584478700446057,-0.0012034174840269013,0.0,0.0,0.0,0.0,0.0,0.0,0.0,0.0,0.0,0.0026221861236732855,-0.06946025828459756,9.809373953289382,0.0,0.0,0.0,0.0,0.0,0.0,0.0,0.0,0.0
2025/05/19 02:27:21.978560345,1747614441,972562653,mA1/imu,0.8839257034981366,0.46762643039829194,-7.479085644600454e-05,0.0009309643408693619,0.0,0.0,0.0,0.0,0.0,0.0,0.0,0.0,0.0,-0.000975566291346271,-0.0002930628540757909,-0.0011656282119384548,0.0,0.0,0.0,0.0,0.0,0.0,0.0,0.0,0.0,0.0025467557911117156,0.5521774485190186,9.81051385626319,0.0,0.0,0.0,0.0,0.0,0.0,0.0,0.0,0.0
2025/05/19 02:27:22.24580288,1747614442,23517161,mA1/imu,0.8839123327742231,0.4676517062614799,-7.818970676203279e-05,0.0009292398654355288,0.0,0.0,0.0,0.0,0.0,0.0,0.0,0.0,0.0,0.0005997001839308138,5.866157414337261e-05,-0.0011294148413914572,0.0,0.0,0.0,0.0,0.0,0.0,0.0,0.0,0.0,0.0025192208895272756,0.03267870668201165,9.809423148872716,0.0,0.0,0.0,0.0,0.0,0.0,0.0,0.0,0.0
2025/05/19 02:27:22.78314864,1747614442,75207913,mA1/imu,0.8838993700718009,0.4676762055351974,-7.011446821938495e-05,0.0009302939507553214,0.0,0.0,0.0,0.0,0.0,0.0,0.0,0.0,0.0,0.0007159945264879136,0.0003940095172038849,-0.0010946618495817674,0.0,0.0,0.0,0.0,0.0,0.0,0.0,0.0,0.0,0.002978272351728241,0.036408386155536376,9.811559486523263,0.0,0.0,0.0,0.0,0.0,0.0,0.0,0.0,0.0
2025/05/19 02:27:22.162303345,1747614442,120709459,mA1/imu,0.8838868040138502,0.4676999610281759,-5.4689626536042304e-05,0.0009279835500483715,0.0,0.0,0.0,0.0,0.0,0.0,0.0,0.0,0.0,0.0008758642219131308,0.0007012781748342563,-0.001061394739831935,0.0,0.0,0.0,0.0,0.0,0.0,0.0,0.0,0.0,0.002976770901207253,-0.5797892515249939,9.810747384857855,0.0,0.0,0.0,0.0,0.0,0.0,0.0,0.0,0.0
2025/05/19 02:27:22.191447660,1747614442,174305180,mA1/imu,0.8838746151517359,0.4677230073857691,-3.291738399718413e-05,0.0009230215752347885,0.0,0.0,0.0,0.0,0.0,0.0,0.0,0.0,0.0,-0.0007044561782526167,0.0009585532542962771,-0.001029642261072368,0.0,0.0,0.0,0.0,0.0,0.0,0.0,0.0,0.0,0.004010006763363492,-0.0606961734597878,9.809205604564774,0.0,0.0,0.0,0.0,0.0,0.0,0.0,0.0,0.0
2025/05/19 02:27:22.229017368,1747614442,227429770,mA1/imu,0.8838627924836797,0.4677453781436312,-1.0250954031992517e-05,0.0009083959166109399,0.0,0.0,0.0,0.0,0.0,0.0,0.0,0.0,0.0,-0.0008166672980360893,0.0011476676534901815,-0.0009992438144040667,0.0,0.0,0.0,0.0,0.0,0.0,0.0,0.0,0.0,0.004586267818438039,-0.06955030480049054,9.80950693975169,0.0,0.0,0.0,0.0,0.0,0.0,0.0,0.0,0.0
2025/05/19 02:27:22.277576137,1747614442,276496732,mA1/imu,0.8838513109504195,0.46776710586429854,1.516326403169663e-05,0.0008913880404256187,0.0,0.0,0.0,0.0,0.0,0.0,0.0,0.0,0.0,-0.0009434308371722392,0.0012650607635581116,-0.0009703086856000222,0.0,0.0,0.0,0.0,0.0,0.0,0.0,0.0,0.0,0.00492415493812013,0.5521550648642739,9.810609870835242,0.0,0.0,0.0,0.0,0.0,0.0,0.0,0.0,0.0
2025/05/19 02:27:22.333167506,1747614442,330357934,mA1/imu,0.8838401549927543,0.4677882179734938,4.15543763213066e-05,0.000872823464992727,0.0,0.0,0.0,0.0,0.0,0.0,0.0,0.0,0.0,0.0006410055942076806,0.0012888166932581544,-0.0009432141165586852,0.0,0.0,0.0,0.0,0.0,0.0,0.0,0.0,0.0,0.005136789623151424,0.0326002903597384,9.809407804056015,0.0,0.0,0.0,0.0,0.0,0.0,0.0,0.0,0.0
2025/05/19 02:27:22.375618389,1747614442,374860442,mA1/imu,0.883829304886537,0.4678087356743763,7.12266392318385e-05,0.0008611488186774992,0.0,0.0,0.0,0.0,0.0,0.0,0.0,0.0,0.0,0.0007648540990560503,0.0012380883037054658,-0.0009171527787275558,0.0,0.0,0.0,0.0,0.0,0.0,0.0,0.0,0.0,0.005205246953109681,0.03629244210905047,9.811483941121196,0.0,0.0,0.0,0.0,0.0,0.0,0.0,0.0,0.0
2025/05/19 02:27:22.429394380,1747614442,427895595,mA1/imu,0.8838187549812162,0.4678286808739692,9.905574230401548e-05,0.0008508132196603345,0.0,0.0,0.0,0.0,0.0,0.0,0.0,0.0,0.0,0.0009295993989572302,0.0011183444922380935,-0.0008917043028088801,0.0,0.0,0.0,0.0,0.0,0.0,0.0,0.0,0.0,0.005204339136595185,-0.5799074950800683,9.810588483660432,0.0,0.0,0.0,0.0,0.0,0.0,0.0,0.0,0.0
2025/05/19 02:27:22.480543631,1747614442,479805994,mA1/imu,0.8838084938437593,0.4678480742408408,0.0001235888601797711,0.000842831273908706,0.0,0.0,0.0,0.0,0.0,0.0,0.0,0.0,0.0,-0.0006481279310326392,0.0009366719049845705,-0.0008670817344910807,0.0,0.0,0.0,0.0,0.0,0.0,0.0,0.0,0.0,0.006156273118213151,-0.060817133026014145,9.809020753736222,0.0,0.0,0.0,0.0,0.0,0.0,0.0,0.0,0.0
2025/05/19 02:27:22.522641220,1747614442,521542178,mA1/imu,0.8837985197259737,0.46786693388780676,0.00013945763267965428,0.0008302145318912144,0.0,0.0,0.0,0.0,0.0,0.0,0.0,0.0,0.0,-0.0007605510921370923,0.0007012806734182766,-0.0008431970966110173,0.0,0.0,0.0,0.0,0.0,0.0,0.0,0.0,0.0,0.00644947567102187,-0.06968079077106937,9.80926264208417,0.0,0.0,0.0,0.0,0.0,0.0,0.0,0.0,0.0
2025/05/19 02:27:22.572907522,1747614442,572610352,mA1/imu,0.8837888187161902,0.4678852736481027,0.00014913123104300712,0.0008199849737005542,0.0,0.0,0.0,0.0,0.0,0.0,0.0,0.0,0.0,-0.0008897142175844872,0.00043000209220874343,-0.000820076836981638,0.0,0.0,0.0,0.0,0.0,0.0,0.0,0.0,0.0,0.006558455735769573,0.5520237086351661,9.810356267885915,0.0,0.0,0.0,0.0,0.0,0.0,0.0,0.0,0.0
2025/05/19 02:27:22.624816546,1747614442,623919039,mA1/imu,0.8837795532091969,0.4679027872099421,0.00015206460876704417,0.000812358833832933,0.0,0.0,0.0,0.0,0.0,0.0,0.0,0.0,0.0,0.0006951976122618145,0.00018241727377771267,-0.0007255782112315114,0.0,0.0,0.0,0.0,0.0,0.0,0.0,0.0,0.0,-0.008189679942093492,0.034506749058103164,9.809421554386638,0.0,0.0,0.0,0.0,0.0,0.0,0.0,0.0,0.0
2025/05/19 02:27:22.674288920,1747614442,673776316,mA1/imu,0.8837734432805662,0.46791432554217754,0.00015740325501276437,0.000812483006757056,0.0,0.0,0.0,0.0,0.0,0.0,0.0,0.0,0.0,0.0007930092275500874,6.061419263792414e-05,-0.00046563162354743665,0.0,0.0,0.0,0.0,0.0,0.0,0.0,0.0,0.0,0.011217294469384784,0.03602083020019275,9.811210397786892,0.0,0.0,0.0,0.0,0.0,0.0,0.0,0.0,0.0
2025/05/19 02:27:22.727061839,1747614442,726208056,mA1/imu,0.8837680714668265,0.46792446296596235,0.00015419092030165112,0.0008179480314038266,0.0,0.0,0.0,0.0,0.0,0.0,0.0,0.0,0.0,0.0009488863238715003,-0.0004067346735949388,-0.0004548710085475684,0.0,0.0,0.0,0.0,0.0,0.0,0.0,0.0,0.0,0.010482880495450299,-0.58012012114222,9.810370844557113,0.0,0.0,0.0,0.0,0.0,0.0,0.0,0.0,0.0
2025/05/19 02:27:22.777057654,1747614442,775399210,mA1/imu,0.8837628247102508,0.4679343563171311,0.00014138210940082565,0.0008293668247030275,0.0,0.0,0.0,0.0,0.0,0.0,0.0,0.0,0.0,-0.0006385564838846272,-0.0008396873753234102,-0.0004441034279093509,0.0,0.0,0.0,0.0,0.0,0.0,0.0,0.0,0.0,0.011194157895527782,-0.06101550959116264,9.80890349608265,0.0,0.0,0.0,0.0,0.0,0.0,0.0,0.0,0.0
2025/05/19 02:27:22.830690271,1747614442,830388971,mA1/imu,0.8837577106595237,0.46794400553524645,0.00011600723695094124,0.0008384961466492769,0.0,0.0,0.0,0.0,0.0,0.0,0.0,0.0,0.0,-0.0007613018696528584,-0.0012081349693732469,-0.0004333101476438132,0.0,0.0,0.0,0.0,0.0,0.0,0.0,0.0,0.0,0.010630013315942611,-0.0698712744154979,9.80926716896595,0.0,0.0,0.0,0.0,0.0,0.0,0.0,0.0,0.0
2025/05/19 02:27:22.872108649,1747614442,869914961,mA1/imu,0.8837527236809395,0.4679534082275907,8.308406022907751e-05,0.0008510063114418858,0.0,0.0,0.0,0.0,0.0,0.0,0.0,0.0,0.0,-0.0009005390338168784,-0.001498681383902165,-0.00042254302498136674,0.0,0.0,0.0,0.0,0.0,0.0,0.0,0.0,0.0,0.010233657661605035,0.5518100971369337,9.810448996148502,0.0,0.0,0.0,0.0,0.0,0.0,0.0,0.0,0.0
2025/05/19 02:27:22.925239294,1747614442,924656408,mA1/imu,0.883747863937469,0.46796256411449344,4.460117078477067e-05,0.0008657852416978231,0.0,0.0,0.0,0.0,0.0,0.0,0.0,0.0,0.0,0.0006705641686069905,-0.0017042133875829792,-0.0004117044377723305,0.0,0.0,0.0,0.0,0.0,0.0,0.0,0.0,0.0,0.009049214181663795,0.032241548566917376,9.809279225160141,0.0,0.0,0.0,0.0,0.0,0.0,0.0,0.0,0.0
2025/05/19 02:27:22.975839817,1747614442,975462458,mA1/imu,0.8837431229708267,0.46797147552867374,6.8949969003555245e-06,0.0008891826275976044,0.0,0.0,0.0,0.0,0.0,0.0,0.0,0.0,0.0,0.0007805260227181744,-0.0018071892966299008,-0.00040084348705365767,0.0,0.0,0.0,0.0,0.0,0.0,0.0,0.0,0.0,0.009150805968413927,0.03601762106183312,9.811421664850764,0.0,0.0,0.0,0.0,0.0,0.0,0.0,0.0,0.0
2025/05/19 02:27:23.28314793,1747614443,26708566,mA1/imu,0.8837385055254305,0.46798014749185457,-3.1025714918188785e-05,0.0009134782896817375,0.0,0.0,0.0,0.0,0.0,0.0,0.0,0.0,0.0,0.000930542484430975,-0.0017855234185879991,-0.00039002157482359584,0.0,0.0,0.0,0.0,0.0,0.0,0.0,0.0,0.0,0.00795762980422967,-0.5801653039003923,9.81058004114896,0.0,0.0,0.0,0.0,0.0,0.0,0.0,0.0,0.0
2025/05/19 02:27:23.79567587,1747614443,79020401,mA1/imu,0.8837340095079826,0.4679885862154797,-6.674269124067262e-05,0.0009376334008038168,0.0,0.0,0.0,0.0,0.0,0.0,0.0,0.0,0.0,-0.0006616974564698017,-0.0016607787678073879,-0.0003794497099508365,0.0,0.0,0.0,0.0,0.0,0.0,0.0,0.0,0.0,0.008669015792961676,-0.061100832088869,9.809140514640337,0.0,0.0,0.0,0.0,0.0,0.0,0.0,0.0,0.0
2025/05/19 02:27:23.123376439,1747614443,121409112,mA1/imu,0.8837296410320465,0.4679967984662109,-0.00010208791188143663,0.0009527669206854268,0.0,0.0,0.0,0.0,0.0,0.0,0.0,0.0,0.0,-0.0007881648340329759,-0.0014328820012370358,-0.0003692178959446941,0.0,0.0,0.0,0.0,0.0,0.0,0.0,0.0,0.0,0.00812456184243054,-0.06993967506341546,9.809487037408553,0.0,0.0,0.0,0.0,0.0,0.0,0.0,0.0,0.0
2025/05/19 02:27:23.176043299,1747614443,174971646,mA1/imu,0.8837253905870586,0.4680047935079121,-0.00013170774570336023,0.0009643331567269432,0.0,0.0,0.0,0.0,0.0,0.0,0.0,0.0,0.0,-0.0009300316190370017,-0.0011266611048694052,-0.0003593197601335763,0.0,0.0,0.0,0.0,0.0,0.0,0.0,0.0,0.0,0.00786628562949541,0.5517422714901759,9.810657274806147,0.0,0.0,0.0,0.0,0.0,0.0,0.0,0.0,0.0
2025/05/19 02:27:23.229263952,1747614443,229001882,mA1/imu,0.8837212546613159,0.4680125817419415,-0.00015406483944295198,0.0009714191152594223,0.0,0.0,0.0,0.0,0.0,0.0,0.0,0.0,0.0,0.0006401051235581779,-0.0007697280053779812,-0.0003498129649129566,0.0,0.0,0.0,0.0,0.0,0.0,0.0,0.0,0.0,0.007260852279972307,0.03217536191331008,9.80941159701546,0.0,0.0,0.0,0.0,0.0,0.0,0.0,0.0,0.0
2025/05/19 02:27:23.280067685,1747614443,279361710,mA1/imu,0.883717220918094,0.46802017505165067,-0.00016401305894982442,0.0009809674506684749,0.0,0.0,0.0,0.0,0.0,0.0,0.0,0.0,0.0,0.0007508199094479678,-0.0003718461599447101,-0.0003407574048219109,0.0,0.0,0.0,0.0,0.0,0.0,0.0,0.0,0.0,0.007422904219185782,0.035960581486915055,9.811498700143735,0.0,0.0,0.0,0.0,0.0,0.0,0.0,0.0,0.0
2025/05/19 02:27:23.324275865,1747614443,323017706,mA1/imu,0.8837131739313204,0.4680278053973182,-0.00016436010679769407,0.0009861951923290108,0.0,0.0,0.0,0.0,0.0,0.0,0.0,0.0,0.0,0.000897587540327572,7.436484345925872e-05,-0.00036192913047656,0.0,0.0,0.0,0.0,0.0,0.0,0.0,0.0,0.0,0.00018238122443121722,-0.5833047214940612,9.811865587207434,0.0,0.0,0.0,0.0,0.0,0.0,0.0,0.0,0.0
2025/05/19 02:27:23.372544427,1747614443,372102081,mA1/imu,0.8837084929047694,0.46803664826500657,-0.0001520618170254404,0.0009860659427716446,0.0,0.0,0.0,0.0,0.0,0.0,0.0,0.0,0.0,-0.0007055770811934176,0.0006674248256834839,-0.00041950266164095896,0.0,0.0,0.0,0.0,0.0,0.0,0.0,0.0,0.0,0.002669373102677272,-0.06252863923386975,9.809027573442625,0.0,0.0,0.0,0.0,0.0,0.0,0.0,0.0,0.0
2025/05/19 02:27:23.426108326,1747614443,425246727,mA1/imu,0.8837030489638115,0.46804696115575967,-0.0001309229219352902,0.0009727610758928375,0.0,0.0,0.0,0.0,0.0,0.0,0.0,0.0,0.0,-0.0008365740337382313,0.001224949341874715,-0.0005012897510437317,0.0,0.0,0.0,0.0,0.0,0.0,0.0,0.0,0.0,0.0015772033834074422,-0.06907929487403082,9.809250178102005,0.0,0.0,0.0,0.0,0.0,0.0,0.0,0.0,0.0
2025/05/19 02:27:23.476358060,1747614443,475837739,mA1/imu,0.8836964380611396,0.46805949203623876,-9.838401171952723e-05,0.0009526769752176119,0.0,0.0,0.0,0.0,0.0,0.0,0.0,0.0,0.0,-0.0009666727296217893,0.0017315918096662765,-0.0006103535823499188,0.0,0.0,0.0,0.0,0.0,0.0,0.0,0.0,0.0,0.0015851278013168067,0.5528932998368538,9.809924434839267,0.0,0.0,0.0,0.0,0.0,0.0,0.0,0.0,0.0
2025/05/19 02:27:23.529132422,1747614443,528079527,mA1/imu,0.8836887052221745,0.4680741512929758,-5.59966649923368e-05,0.000926292875381018,0.0,0.0,0.0,0.0,0.0,0.0,0.0,0.0,0.0,0.0006193916867112886,0.002264311528435299,-0.00066095253095195,0.0,0.0,0.0,0.0,0.0,0.0,0.0,0.0,0.0,-0.018939249845561675,0.03087556905502357,9.80896893091576,0.0,0.0,0.0,0.0,0.0,0.0,0.0,0.0,0.0
2025/05/19 02:27:23.579396403,1747614443,578634555,mA1/imu,0.8836828690912116,0.4680852289602432,8.819338886451532e-06,0.0008973439589085146,0.0,0.0,0.0,0.0,0.0,0.0,0.0,0.0,0.0,0.0006975534637762317,0.0031900307027340293,-0.00039309324090068575,0.0,0.0,0.0,0.0,0.0,0.0,0.0,0.0,0.0,-0.020588500403174472,0.03165442231723914,9.812863089715618,0.0,0.0,0.0,0.0,0.0,0.0,0.0,0.0,0.0
2025/05/19 02:27:23.622559409,1747614443,621526593,mA1/imu,0.8836795233883856,0.46809160818616075,9.372800336200946e-05,0.0008587810143897085,0.0,0.0,0.0,0.0,0.0,0.0,0.0,0.0,0.0,0.0008494138458050527,0.004091975255767316,-0.00023224553013173447,0.0,0.0,0.0,0.0,0.0,0.0,0.0,0.0,0.0,-0.027287413408396587,-0.5806221638611603,9.811935716009248,0.0,0.0,0.0,0.0,0.0,0.0,0.0,0.0,0.0
2025/05/19 02:27:23.672431699,1747614443,672097166,mA1/imu,0.8836773242167159,0.46809581348339613,0.0001978561418680339,0.0008105044418117352,0.0,0.0,0.0,0.0,0.0,0.0,0.0,0.0,0.0,-0.0007199339439634819,0.004858068054274639,-0.00013567523867354507,0.0,0.0,0.0,0.0,0.0,0.0,0.0,0.0,0.0,-0.025076531298479716,-0.06111472401521569,9.806705775859044,0.0,0.0,0.0,0.0,0.0,0.0,0.0,0.0,0.0
2025/05/19 02:27:23.725112353,1747614443,724707001,mA1/imu,0.8836762028593393,0.4680979733315545,0.0003107800283442745,0.0007478494267910662,0.0,0.0,0.0,0.0,0.0,0.0,0.0,0.0,0.0,-0.0007950072927511564,0.005314034105127898,-5.2945876751719784e-05,0.0,0.0,0.0,0.0,0.0,0.0,0.0,0.0,0.0,-0.021838866395497675,-0.06764207246771621,9.807042754866204,0.0,0.0,0.0,0.0,0.0,0.0,0.0,0.0,0.0
2025/05/19 02:27:23.776938412,1747614443,775962159,mA1/imu,0.883674761575418,0.46810070470357285,0.00042395544129257686,0.0006828414385123318,0.0,0.0,0.0,0.0,0.0,0.0,0.0,0.0,0.0,-0.000848553031286482,0.005067011910133429,-0.0002205233493785985,0.0,0.0,0.0,0.0,0.0,0.0,0.0,0.0,0.0,-0.0050683415032862795,0.5613853157967833,9.809785178571817,0.0,0.0,0.0,0.0,0.0,0.0,0.0,0.0,0.0
2025/05/19 02:27:23.829806137,1747614443,829340204,mA1/imu,0.8836706794004394,0.4681083990370711,0.0005223796083536629,0.0006198697130078393,0.0,0.0,0.0,0.0,0.0,0.0,0.0,0.0,0.0,0.0009024100368148631,0.004347199386312694,-0.00042356526391872595,0.0,0.0,0.0,0.0,0.0,0.0,0.0,0.0,0.0,-0.001450956182512147,0.04788595910051452,9.808502497267373,0.0,0.0,0.0,0.0,0.0,0.0,0.0,0.0,0.0
2025/05/19 02:27:23.871478709,1747614443,870256303,mA1/imu,0.8836645565229378,0.468119920058793,0.0006034314290881189,0.0005725904111991405,0.0,0.0,0.0,0.0,0.0,0.0,0.0,0.0,0.0,0.0010850312707438997,0.0033072678146875588,-0.0005849016462619299,0.0,0.0,0.0,0.0,0.0,0.0,0.0,0.0,0.0,-0.001628770211938516,0.04733653130861549,9.812580736254061,0.0,0.0,0.0,0.0,0.0,0.0,0.0,0.0,0.0
2025/05/19 02:27:23.925044350,1747614443,923372858,mA1/imu,0.8836565591811432,0.4681349837457576,0.0006581396590068791,0.000537830541297917,0.0,0.0,0.0,0.0,0.0,0.0,0.0,0.0,0.0,0.0015821850075455988,0.0020496660230925386,-0.0007310120909458849,0.0,0.0,0.0,0.0,0.0,0.0,0.0,0.0,0.0,0.0004474177508265245,-0.5505813024762449,9.810805023637432,0.0,0.0,0.0,0.0,0.0,0.0,0.0,0.0,0.0
2025/05/19 02:27:23.979463044,1747614443,979221829,mA1/imu,0.8836470483402842,0.46815293435238714,0.0006794581660974556,0.0005122044059626305,0.0,0.0,0.0,0.0,0.0,0.0,0.0,0.0,0.0,0.0016686451400434155,0.0006449518608217628,-0.0008610208158952469,0.0,0.0,0.0,0.0,0.0,0.0,0.0,0.0,0.0,0.002569082786956039,-0.38846705421122507,9.809195731298324,0.0,0.0,0.0,0.0,0.0,0.0,0.0,0.0,0.0
2025/05/19 02:27:24.24840990,1747614444,24077842,mA1/imu,0.883636012721141,0.46817378096418133,0.0006715872278344793,0.0005067648190339658,0.0,0.0,0.0,0.0,0.0,0.0,0.0,0.0,0.0,0.0001785044203335169,-0.000755098583023644,-0.0009910072794653006,0.0,0.0,0.0,0.0,0.0,0.0,0.0,0.0,0.0,0.0011607795590437148,-0.029589896403524468,9.808263870781278,0.0,0.0,0.0,0.0,0.0,0.0,0.0,0.0,0.0
2025/05/19 02:27:24.71566904,1747614444,71253011,mA1/imu,0.883623697933347,0.46819707545662714,0.0006295070984228683,0.0005125478238866485,0.0,0.0,0.0,0.0,0.0,0.0,0.0,0.0,0.0,-0.0009571055616723371,-0.002144859887921228,-0.0011019081831423723,0.0,0.0,0.0,0.0,0.0,0.0,0.0,0.0,0.0,0.002178301589715755,0.5178491548853683,9.811396317092381,0.0,0.0,0.0,0.0,0.0,0.0,0.0,0.0,0.0
2025/05/19 02:27:24.124577967,1747614444,124093729,mA1/imu,0.8836100932529524,0.4682228312288912,0.0005535214974866792,0.0005263377833175807,0.0,0.0,0.0,0.0,0.0,0.0,0.0,0.0,0.0,0.0006091055606825218,-0.00342921645092113,-0.0012110512192671512,0.0,0.0,0.0,0.0,0.0,0.0,0.0,0.0,0.0,0.0005708126753577189,-0.002934181175942959,9.810580637141207,0.0,0.0,0.0,0.0,0.0,0.0,0.0,0.0,0.0
2025/05/19 02:27:24.180951311,1747614444,178587584,mA1/imu,0.8835952172447082,0.4682509729274318,0.0004545744716749491,0.0005583698056196217,0.0,0.0,0.0,0.0,0.0,0.0,0.0,0.0,0.0,0.0013636885185110328,-0.0044983718435372445,-0.0013179005170939912,0.0,0.0,0.0,0.0,0.0,0.0,0.0,0.0,0.0,-0.0005314823157017679,0.05082345718741134,9.811457164267054,0.0,0.0,0.0,0.0,0.0,0.0,0.0,0.0,0.0
2025/05/19 02:27:24.230899933,1747614444,229907345,mA1/imu,0.8835790293076388,0.468281554191829,0.00034055222085892245,0.0006074501139534765,0.0,0.0,0.0,0.0,0.0,0.0,0.0,0.0,0.0,0.0008776059613472515,-0.005228473210618368,-0.001427592748550125,0.0,0.0,0.0,0.0,0.0,0.0,0.0,0.0,0.0,-0.002518769019239184,0.021198207606922124,9.810906695602258,0.0,0.0,0.0,0.0,0.0,0.0,0.0,0.0,0.0
2025/05/19 02:27:24.271252479,1747614444,269700687,mA1/imu,0.883561683370542,0.468314281446747,0.00021396718486239557,0.0006630916038182154,0.0,0.0,0.0,0.0,0.0,0.0,0.0,0.0,0.0,0.00018484896388973072,-0.005662477992805815,-0.0015191662822164607,0.0,0.0,0.0,0.0,0.0,0.0,0.0,0.0,0.0,-0.0033009217954565457,-0.024476235630501955,9.807969468813852,0.0,0.0,0.0,0.0,0.0,0.0,0.0,0.0,0.0
2025/05/19 02:27:24.321469040,1747614444,320677643,mA1/imu,0.8835430941306144,0.4683493049400351,8.359325250335533e-05,0.0007227644528779571,0.0,0.0,0.0,0.0,0.0,0.0,0.0,0.0,0.0,0.0001973622378829131,-0.005724443713519146,-0.0016377723598103998,0.0,0.0,0.0,0.0,0.0,0.0,0.0,0.0,0.0,-0.00556188352984217,-0.6514307871650762,9.810979263589692,0.0,0.0,0.0,0.0,0.0,0.0,0.0,0.0,0.0
2025/05/19 02:27:24.373055425,1747614444,370672956,mA1/imu,0.8835230819750438,0.4683869768152572,-4.666211363065588e-05,0.0007754932823205955,0.0,0.0,0.0,0.0,0.0,0.0,0.0,0.0,0.0,-3.92453196281985e-05,-0.0054619973189987394,-0.0017591578261302902,0.0,0.0,0.0,0.0,0.0,0.0,0.0,0.0,0.0,-0.004777909755428326,-0.027332269650108522,9.811675038188879,0.0,0.0,0.0,0.0,0.0,0.0,0.0,0.0,0.0
2025/05/19 02:27:24.424243935,1747614444,421784786,mA1/imu,0.8835018823236754,0.4684268519091641,-0.00016619845586354152,0.0008250570075802539,0.0,0.0,0.0,0.0,0.0,0.0,0.0,0.0,0.0,0.0001836166488916666,-0.004914467269560997,-0.001849771278728221,0.0,0.0,0.0,0.0,0.0,0.0,0.0,0.0,0.0,-0.005636922940530255,-0.0017413153755410863,9.810560531612195,0.0,0.0,0.0,0.0,0.0,0.0,0.0,0.0,0.0
2025/05/19 02:27:24.475488674,1747614444,475158656,mA1/imu,0.8834795113415798,0.46846890617472214,-0.00026645674282901925,0.0008752073508421642,0.0,0.0,0.0,0.0,0.0,0.0,0.0,0.0,0.0,-0.0001461718385566744,-0.00415159286066025,-0.0019466862985112695,0.0,0.0,0.0,0.0,0.0,0.0,0.0,0.0,0.0,-0.005865616062744227,0.6131426517546168,9.812454661462407,0.0,0.0,0.0,0.0,0.0,0.0,0.0,0.0,0.0
2025/05/19 02:27:24.527284978,1747614444,526901122,mA1/imu,0.8834559383294303,0.4685132221374783,-0.00034386190313512744,0.0009205823241534696,0.0,0.0,0.0,0.0,0.0,0.0,0.0,0.0,0.0,0.000511251928586359,-0.0031948526288138896,-0.002054807832459129,0.0,0.0,0.0,0.0,0.0,0.0,0.0,0.0,0.0,-0.005015606877831336,-0.13884405808059247,9.810427720381158,0.0,0.0,0.0,0.0,0.0,0.0,0.0,0.0,0.0
2025/05/19 02:27:24.578327448,1747614444,577173960,mA1/imu,0.8834309425755641,0.4685602357647275,-0.00039564799207506826,0.0009584481310387363,0.0,0.0,0.0,0.0,0.0,0.0,0.0,0.0,0.0,0.00034289856960165876,-0.0021002029685354964,-0.002178294835684481,0.0,0.0,0.0,0.0,0.0,0.0,0.0,0.0,0.0,-0.0049549536397224155,-0.5923152545390238,9.808000010007381,0.0,0.0,0.0,0.0,0.0,0.0,0.0,0.0,0.0
2025/05/19 02:27:24.631141870,1747614444,628843734,mA1/imu,0.8834045065162386,0.46861001771010224,-0.0004268849170701546,0.0009731072941966067,0.0,0.0,0.0,0.0,0.0,0.0,0.0,0.0,0.0,0.0009192688845565761,-0.0009035581370392445,-0.0023057841818615076,0.0,0.0,0.0,0.0,0.0,0.0,0.0,0.0,0.0,-0.0037851985551333005,-0.543703843358084,9.80853448974623,0.0,0.0,0.0,0.0,0.0,0.0,0.0,0.0,0.0
2025/05/19 02:27:24.680409137,1747614444,679341150,mA1/imu,0.8833765997081962,0.4686625988753709,-0.0004263881518264566,0.0009847316956406674,0.0,0.0,0.0,0.0,0.0,0.0,0.0,0.0,0.0,-0.0008325835867400971,0.0002692077544285842,-0.0024304703935530466,0.0,0.0,0.0,0.0,0.0,0.0,0.0,0.0,0.0,-0.0023993334282027615,0.598092151592818,9.810568796399886,0.0,0.0,0.0,0.0,0.0,0.0,0.0,0.0,0.0
2025/05/19 02:27:24.720863745,1747614444,720318466,mA1/imu,0.8833472235868157,0.46871798441994184,-0.000397698864165747,0.0009876732177305145,0.0,0.0,0.0,0.0,0.0,0.0,0.0,0.0,0.0,-0.0010398331281723954,0.0014143184543088231,-0.0025567391736541264,0.0,0.0,0.0,0.0,0.0,0.0,0.0,0.0,0.0,-0.002153927997164431,-0.03959765826767112,9.809426848725774,0.0,0.0,0.0,0.0,0.0,0.0,0.0,0.0,0.0
2025/05/19 02:27:24.770563745,1747614444,770184900,mA1/imu,0.8833164241479525,0.4687760978041686,-0.0003479175424597398,0.0009715510048160581,0.0,0.0,0.0,0.0,0.0,0.0,0.0,0.0,0.0,0.00030265916822222363,0.002465326971058961,-0.0026756429077984447,0.0,0.0,0.0,0.0,0.0,0.0,0.0,0.0,0.0,-0.002124933130067312,-0.5730127984923731,9.808359924541547,0.0,0.0,0.0,0.0,0.0,0.0,0.0,0.0,0.0
2025/05/19 02:27:24.822092573,1747614444,821680333,mA1/imu,0.8832842462600432,0.4688368267312382,-0.00027619436587325666,0.0009454766431653194,0.0,0.0,0.0,0.0,0.0,0.0,0.0,0.0,0.0,-0.000505547662363067,0.003367385828516537,-0.0027954044955932947,0.0,0.0,0.0,0.0,0.0,0.0,0.0,0.0,0.0,-0.0029011884895006786,0.3920474287458123,9.810192061074321,0.0,0.0,0.0,0.0,0.0,0.0,0.0,0.0,0.0
2025/05/19 02:27:24.872235272,1747614444,871690432,mA1/imu,0.8832505609156897,0.46890038723739563,-0.00018377332103633665,0.0009163613405256891,0.0,0.0,0.0,0.0,0.0,0.0,0.0,0.0,0.0,-0.002020217120320797,0.004120458094651152,-0.0029301572374866433,0.0,0.0,0.0,0.0,0.0,0.0,0.0,0.0,0.0,-0.005091660118487199,0.5311749354195757,9.80840184344972,0.0,0.0,0.0,0.0,0.0,0.0,0.0,0.0,0.0
2025/05/19 02:27:24.926959438,1747614444,926132466,mA1/imu,0.883217732018119,0.46896233614492744,-7.996765448087928e-05,0.0008710519138742355,0.0,0.0,0.0,0.0,0.0,0.0,0.0,0.0,0.0,-0.000133168701880255,0.004794900820007707,-0.0027094220533587076,0.0,0.0,0.0,0.0,0.0,0.0,0.0,0.0,0.0,-0.009147546888087985,0.030147092435084004,9.807293386530985,0.0,0.0,0.0,0.0,0.0,0.0,0.0,0.0,0.0
2025/05/19 02:27:24.975527681,1747614444,974809211,mA1/imu,0.8831875677494223,0.46901924124428995,3.5781180780967915e-05,0.0008186789342616354,0.0,0.0,0.0,0.0,0.0,0.0,0.0,0.0,0.0,0.0015605280122099388,0.005180296761352767,-0.002482113486417613,0.0,0.0,0.0,0.0,0.0,0.0,0.0,0.0,0.0,-0.005352499019602473,-0.49401867756210616,9.807735760373403,0.0,0.0,0.0,0.0,0.0,0.0,0.0,0.0,0.0
2025/05/19 02:27:25.26617920,1747614445,25872098,mA1/imu,0.8831600931547859,0.46907103437746356,0.00015920196727801093,0.0007676077250622817,0.0,0.0,0.0,0.0,0.0,0.0,0.0,0.0,0.0,0.0005540751222511554,0.0053163760045774194,-0.0022495956433585956,0.0,0.0,0.0,0.0,0.0,0.0,0.0,0.0,0.0,-0.005679465794207577,-0.1100312480205713,9.811484534796499,0.0,0.0,0.0,0.0,0.0,0.0,0.0,0.0,0.0
2025/05/19 02:27:25.76303087,1747614445,75678111,mA1/imu,0.8831351374482881,0.46911804570515186,0.0002783651851555709,0.0007146403262738561,0.0,0.0,0.0,0.0,0.0,0.0,0.0,0.0,0.0,-0.000453601940221466,0.005053599989863335,-0.0020498517282236278,0.0,0.0,0.0,0.0,0.0,0.0,0.0,0.0,0.0,-0.0003421580092802894,-0.01803440236094493,9.811287026233835,0.0,0.0,0.0,0.0,0.0,0.0,0.0,0.0,0.0
2025/05/19 02:27:25.127310602,1747614445,126648067,mA1/imu,0.8831123531767354,0.4691609393991111,0.0003835569737698339,0.0006614324155908122,0.0,0.0,0.0,0.0,0.0,0.0,0.0,0.0,0.0,-0.0019549272783596578,0.00446780559863876,-0.0018625289822454287,0.0,0.0,0.0,0.0,0.0,0.0,0.0,0.0,0.0,0.0023042246060681285,0.4972228121606425,9.811534871962145,0.0,0.0,0.0,0.0,0.0,0.0,0.0,0.0,0.0
2025/05/19 02:27:25.177800079,1747614445,176852010,mA1/imu,0.8830917453671941,0.46919971645936154,0.00046926773833599227,0.0006124757688804656,0.0,0.0,0.0,0.0,0.0,0.0,0.0,0.0,0.0,-0.0005232586693565784,0.0035967232309548083,-0.0016763192077862748,0.0,0.0,0.0,0.0,0.0,0.0,0.0,0.0,0.0,-0.00020476827129356284,-0.03427971127129904,9.808612887432131,0.0,0.0,0.0,0.0,0.0,0.0,0.0,0.0,0.0
2025/05/19 02:27:25.230307446,1747614445,229910962,mA1/imu,0.8830735365184254,0.46923396378324217,0.0005342684879434202,0.0005752306417697816,0.0,0.0,0.0,0.0,0.0,0.0,0.0,0.0,0.0,-0.0017603440498320032,0.0025988834887585004,-0.0014580217006446078,0.0,0.0,0.0,0.0,0.0,0.0,0.0,0.0,0.0,0.003181990690622841,0.4924234684900211,9.810414386535998,0.0,0.0,0.0,0.0,0.0,0.0,0.0,0.0,0.0
2025/05/19 02:27:25.270981039,1747614445,270634347,mA1/imu,0.8830578688976424,0.4692634394151136,0.0005717164693688408,0.0005456615534538525,0.0,0.0,0.0,0.0,0.0,0.0,0.0,0.0,0.0,-0.0003806660782792369,0.0014284202969862179,-0.001245254156863593,0.0,0.0,0.0,0.0,0.0,0.0,0.0,0.0,0.0,-0.0005861418499611181,-0.04266539803195092,9.811964134159977,0.0,0.0,0.0,0.0,0.0,0.0,0.0,0.0,0.0
2025/05/19 02:27:25.323574982,1747614445,322933997,mA1/imu,0.8830447813681144,0.46928808988354276,0.0005765065429939079,0.0005200309613865291,0.0,0.0,0.0,0.0,0.0,0.0,0.0,0.0,0.0,0.0022684760847364763,0.0001441071402161762,-0.0010375801263304279,0.0,0.0,0.0,0.0,0.0,0.0,0.0,0.0,0.0,0.0021407153634859294,-0.496589236355922,9.80991624631475,0.0,0.0,0.0,0.0,0.0,0.0,0.0,0.0,0.0
2025/05/19 02:27:25.373420124,1747614445,372811689,mA1/imu,0.8830340537461988,0.469308293706207,0.0005596468992958877,0.0005217072664312996,0.0,0.0,0.0,0.0,0.0,0.0,0.0,0.0,0.0,0.0021091191880273034,-0.0011550013591767208,-0.0008191218055375213,0.0,0.0,0.0,0.0,0.0,0.0,0.0,0.0,0.0,0.0019369247409417754,-0.5169469639838157,9.808023624857823,0.0,0.0,0.0,0.0,0.0,0.0,0.0,0.0,0.0
2025/05/19 02:27:25.425262610,1747614445,423794356,mA1/imu,0.8830261334362677,0.46932322193351983,0.0005188917628954256,0.0005401609700472752,0.0,0.0,0.0,0.0,0.0,0.0,0.0,0.0,0.0,0.0007269102268058103,-0.0022471061556099577,-0.0005809789092284356,0.0,0.0,0.0,0.0,0.0,0.0,0.0,0.0,0.0,0.000954761679942304,-0.6143064900932443,9.807806659831241,0.0,0.0,0.0,0.0,0.0,0.0,0.0,0.0,0.0
2025/05/19 02:27:25.474927866,1747614445,474168645,mA1/imu,0.8830211214584479,0.46933270594603516,0.000447388729486988,0.0005568042405878835,0.0,0.0,0.0,0.0,0.0,0.0,0.0,0.0,0.0,0.0010691779665464752,-0.003223223039685789,-0.00034000459063301806,0.0,0.0,0.0,0.0,0.0,0.0,0.0,0.0,0.0,0.002389628895077397,-0.5902796902445765,9.809933069252597,0.0,0.0,0.0,0.0,0.0,0.0,0.0,0.0,0.0
2025/05/19 02:27:25.525609321,1747614445,525110119,mA1/imu,0.8830186367314999,0.4693374167498115,0.0003591739031932681,0.0005894213809773815,0.0,0.0,0.0,0.0,0.0,0.0,0.0,0.0,0.0,-0.0004132895122459181,-0.004027290808659902,-0.00012893287732432273,0.0,0.0,0.0,0.0,0.0,0.0,0.0,0.0,0.0,-0.00026617694785228973,0.5673959748569412,9.811851670065094,0.0,0.0,0.0,0.0,0.0,0.0,0.0,0.0,0.0
2025/05/19 02:27:25.575875154,1747614445,574989169,mA1/imu,0.883018745955105,0.46933723004869193,0.00025523429145584217,0.000627405412465039,0.0,0.0,0.0,0.0,0.0,0.0,0.0,0.0,0.0,0.0006786670234238347,-0.00460454969073373,9.580004268624104e-05,0.0,0.0,0.0,0.0,0.0,0.0,0.0,0.0,0.0,0.0008152122922374576,-0.34904347112781775,9.809361517544692,0.0,0.0,0.0,0.0,0.0,0.0,0.0,0.0,0.0
2025/05/19 02:27:25.628508678,1747614445,627529461,mA1/imu,0.883022056465844,0.46933098340945373,0.00014509831261061968,0.0006743539326885625,0.0,0.0,0.0,0.0,0.0,0.0,0.0,0.0,0.0,-0.0004005372189084237,-0.004857932293092429,0.0004275979363331582,0.0,0.0,0.0,0.0,0.0,0.0,0.0,0.0,0.0,-0.00044348712403093115,0.364665904732466,9.813336425488142,0.0,0.0,0.0,0.0,0.0,0.0,0.0,0.0,0.0
2025/05/19 02:27:25.679941922,1747614445,677854347,mA1/imu,0.8830277822492736,0.46932016498444634,2.463285315977993e-05,0.0007196583385047441,0.0,0.0,0.0,0.0,0.0,0.0,0.0,0.0,0.0,2.9657297919345675e-05,-0.005278140562120645,0.00047848934710475853,0.0,0.0,0.0,0.0,0.0,0.0,0.0,0.0,0.0,0.013104492790051882,0.33757220444061015,9.808842295328242,0.0,0.0,0.0,0.0,0.0,0.0,0.0,0.0,0.0
2025/05/19 02:27:25.729719734,1747614445,728906788,mA1/imu,0.8830331663787604,0.46930993656333914,-0.00010012590038057165,0.0007749147174300633,0.0,0.0,0.0,0.0,0.0,0.0,0.0,0.0,0.0,6.637445288848052e-06,-0.005509370429609142,0.0004479361632189055,0.0,0.0,0.0,0.0,0.0,0.0,0.0,0.0,0.0,0.012779769656099253,-0.024826285859620358,9.809645339538418,0.0,0.0,0.0,0.0,0.0,0.0,0.0,0.0,0.0
2025/05/19 02:27:25.779867550,1747614445,778699278,mA1/imu,0.8830382597466363,0.4693002153933861,-0.00022638501887421107,0.0008297018600707959,0.0,0.0,0.0,0.0,0.0,0.0,0.0,0.0,0.0,0.0010400505100128289,-0.0054331874345454985,0.0004278688480169396,0.0,0.0,0.0,0.0,0.0,0.0,0.0,0.0,0.0,0.012352031079798799,-0.5731722018970842,9.80893991631928,0.0,0.0,0.0,0.0,0.0,0.0,0.0,0.0,0.0
2025/05/19 02:27:25.831923609,1747614445,831038170,mA1/imu,0.8830432293179684,0.4692906927814985,-0.00034414942584521253,0.0008845255947937228,0.0,0.0,0.0,0.0,0.0,0.0,0.0,0.0,0.0,0.0008188264035275588,-0.004994368110133675,0.0004269265965868859,0.0,0.0,0.0,0.0,0.0,0.0,0.0,0.0,0.0,0.0099890900252892,0.049951100827311884,9.810441601024795,0.0,0.0,0.0,0.0,0.0,0.0,0.0,0.0,0.0
2025/05/19 02:27:25.871309923,1747614445,870838122,mA1/imu,0.8830482551241267,0.4692810481491406,-0.00044651214179054706,0.0009368015726684842,0.0,0.0,0.0,0.0,0.0,0.0,0.0,0.0,0.0,-0.0003709629730728535,-0.004291788228087274,0.00043695669077777017,0.0,0.0,0.0,0.0,0.0,0.0,0.0,0.0,0.0,0.010642527031088818,0.6041115009885205,9.811230154012286,0.0,0.0,0.0,0.0,0.0,0.0,0.0,0.0,0.0
2025/05/19 02:27:25.922337827,1747614445,921689747,mA1/imu,0.8830533822196006,0.4692712235732892,-0.0005296370974796374,0.0009810000492357475,0.0,0.0,0.0,0.0,0.0,0.0,0.0,0.0,0.0,-0.0005778751106266806,-0.003368229291772998,0.0004482903625653563,0.0,0.0,0.0,0.0,0.0,0.0,0.0,0.0,0.0,0.008747242325001375,0.5997116163929362,9.811963025239884,0.0,0.0,0.0,0.0,0.0,0.0,0.0,0.0,0.0
2025/05/19 02:27:25.973170988,1747614445,971485831,mA1/imu,0.8830587844628972,0.4692609111092885,-0.0005871052592459904,0.0010177402446346353,0.0,0.0,0.0,0.0,0.0,0.0,0.0,0.0,0.0,0.00038697480355084045,-0.0022895961124953313,0.0004716992435099412,0.0,0.0,0.0,0.0,0.0,0.0,0.0,0.0,0.0,0.011407474750960548,-0.15305465471110835,9.809465948351892,0.0,0.0,0.0,0.0,0.0,0.0,0.0,0.0,0.0
2025/05/19 02:27:26.24809888,1747614446,22710487,mA1/imu,0.883064509749973,0.46925003691134637,-0.0006164375688053011,0.0010461756370419707,0.0,0.0,0.0,0.0,0.0,0.0,0.0,0.0,0.0,-0.0015465677975036692,-0.0010847202443766562,0.0005047112947932026,0.0,0.0,0.0,0.0,0.0,0.0,0.0,0.0,0.0,0.011740959213124846,0.5463574002930907,9.809864562676374,0.0,0.0,0.0,0.0,0.0,0.0,0.0,0.0,0.0
2025/05/19 02:27:26.73739573,1747614446,72995616,mA1/imu,0.8830706842568783,0.4692383860576449,-0.0006204924721927661,0.0010576602465812415,0.0,0.0,0.0,0.0,0.0,0.0,0.0,0.0,0.0,-3.7878502917301613e-05,0.00012199882941303674,0.0005435344410711395,0.0,0.0,0.0,0.0,0.0,0.0,0.0,0.0,0.0,0.011744238030028727,-0.5988813006783691,9.808499373062386,0.0,0.0,0.0,0.0,0.0,0.0,0.0,0.0,0.0
2025/05/19 02:27:26.124342922,1747614446,123973283,mA1/imu,0.8830773838559762,0.469225811532511,-0.0005985984465895669,0.0010552694636805527,0.0,0.0,0.0,0.0,0.0,0.0,0.0,0.0,0.0,-4.422596014059417e-06,0.0012698427840400536,0.0005908030205779886,0.0,0.0,0.0,0.0,0.0,0.0,0.0,0.0,0.0,0.012976264185415351,0.03712084842943021,9.809166027583094,0.0,0.0,0.0,0.0,0.0,0.0,0.0,0.0,0.0
2025/05/19 02:27:26.176921155,1747614446,173850962,mA1/imu,0.8830847014408594,0.4692121213103022,-0.0005500651120232946,0.001045334858793973,0.0,0.0,0.0,0.0,0.0,0.0,0.0,0.0,0.0,-0.000532161501353394,0.0022951007847618514,0.0006430614953498527,0.0,0.0,0.0,0.0,0.0,0.0,0.0,0.0,0.0,0.014978174230473196,0.22638961963168008,9.81055093558452,0.0,0.0,0.0,0.0,0.0,0.0,0.0,0.0,0.0
2025/05/19 02:27:26.227468035,1747614446,224903639,mA1/imu,0.8830926942349467,0.46919719371648305,-0.00047902102196205543,0.0010282685935628414,0.0,0.0,0.0,0.0,0.0,0.0,0.0,0.0,0.0,-0.0011176261735170638,0.0031591424368997405,0.0007072041624880152,0.0,0.0,0.0,0.0,0.0,0.0,0.0,0.0,0.0,0.016417155374188603,-0.03473798560601257,9.810630592351757,0.0,0.0,0.0,0.0,0.0,0.0,0.0,0.0,0.0
2025/05/19 02:27:26.275726267,1747614446,274923142,mA1/imu,0.8831015950227775,0.469180590026664,-0.00039515761731710427,0.0009953195040961888,0.0,0.0,0.0,0.0,0.0,0.0,0.0,0.0,0.0,4.607888965436155e-05,0.003826237814500291,0.0007907266019843681,0.0,0.0,0.0,0.0,0.0,0.0,0.0,0.0,0.0,0.016546774438863928,-0.33103606602931024,9.810761903228842,0.0,0.0,0.0,0.0,0.0,0.0,0.0,0.0,0.0
2025/05/19 02:27:26.327372955,1747614446,326821067,mA1/imu,0.8831114716926506,0.46916214088311076,-0.0002966452949236557,0.0009623556441367993,0.0,0.0,0.0,0.0,0.0,0.0,0.0,0.0,0.0,-0.0009045350610641016,0.004245962171581964,0.00087541354841047,0.0,0.0,0.0,0.0,0.0,0.0,0.0,0.0,0.0,0.018519065718520005,0.42362135449348565,9.810886300326386,0.0,0.0,0.0,0.0,0.0,0.0,0.0,0.0,0.0
2025/05/19 02:27:26.376807288,1747614446,376590304,mA1/imu,0.883121879299399,0.4691426710719081,-0.00019302401424853787,0.0009290984571391082,0.0,0.0,0.0,0.0,0.0,0.0,0.0,0.0,0.0,-0.001313799007453137,0.004228137596910053,0.0008603467904051798,0.0,0.0,0.0,0.0,0.0,0.0,0.0,0.0,0.0,0.027969330221307875,-0.04949668921084609,9.811096051933754,0.0,0.0,0.0,0.0,0.0,0.0,0.0,0.0,0.0
2025/05/19 02:27:26.428675055,1747614446,427606275,mA1/imu,0.883131280240706,0.4691250674762998,-9.729345779003752e-05,0.000896359164520024,0.0,0.0,0.0,0.0,0.0,0.0,0.0,0.0,0.0,-0.0006437380527458144,0.0038120261121743493,0.0007620191917035991,0.0,0.0,0.0,0.0,0.0,0.0,0.0,0.0,0.0,0.029473684481109604,-0.6399318715627205,9.809816446578463,0.0,0.0,0.0,0.0,0.0,0.0,0.0,0.0,0.0
2025/05/19 02:27:26.478867554,1747614446,477797420,mA1/imu,0.8831395347842899,0.46910960694101633,-1.8585662348636603e-05,0.0008593202001076744,0.0,0.0,0.0,0.0,0.0,0.0,0.0,0.0,0.0,-0.0007194009368080327,0.0032403278513836193,0.0006687881399045839,0.0,0.0,0.0,0.0,0.0,0.0,0.0,0.0,0.0,0.027837114341451162,-0.020185408856875323,9.81107048946966,0.0,0.0,0.0,0.0,0.0,0.0,0.0,0.0,0.0
2025/05/19 02:27:26.530567695,1747614446,529991779,mA1/imu,0.8831471034335334,0.4690954017915534,4.6500020427651695e-05,0.000833998039091207,0.0,0.0,0.0,0.0,0.0,0.0,0.0,0.0,0.0,-2.269462784118738e-05,0.00245812808908675,0.0006675245121736623,0.0,0.0,0.0,0.0,0.0,0.0,0.0,0.0,0.0,0.028944514963841247,0.02672736670072484,9.80889359972248,0.0,0.0,0.0,0.0,0.0,0.0,0.0,0.0,0.0
2025/05/19 02:27:26.570699244,1747614446,569884422,mA1/imu,0.8831547524441562,0.46908102199066537,9.324354689056654e-05,0.000818137601418728,0.0,0.0,0.0,0.0,0.0,0.0,0.0,0.0,0.0,-0.0002556899201510924,0.0015905942367467963,0.0006188252846570775,0.0,0.0,0.0,0.0,0.0,0.0,0.0,0.0,0.0,0.028795521237901342,0.06916902541492417,9.809267174986802,0.0,0.0,0.0,0.0,0.0,0.0,0.0,0.0,0.0
2025/05/19 02:27:26.621540478,1747614446,620834786,mA1/imu,0.8831613643677657,0.4690685813868586,0.00011841362084333645,0.000810198741742377,0.0,0.0,0.0,0.0,0.0,0.0,0.0,0.0,0.0,-0.00014761019644548594,0.0006629852618038139,0.0005279018027480053,0.0,0.0,0.0,0.0,0.0,0.0,0.0,0.0,0.0,0.027662795205225733,-0.002001390579534211,9.811813704514691,0.0,0.0,0.0,0.0,0.0,0.0,0.0,0.0,0.0
2025/05/19 02:27:26.673672605,1747614446,670956753,mA1/imu,0.8831669211794606,0.46905811724131546,0.00012162525747477394,0.0008106736220528728,0.0,0.0,0.0,0.0,0.0,0.0,0.0,0.0,0.0,-2.7857297067117444e-05,-0.00026149529438003715,0.0004389453680486187,0.0,0.0,0.0,0.0,0.0,0.0,0.0,0.0,0.0,0.0269157843148444,-0.0023289627682128583,9.81142280736266,0.0,0.0,0.0,0.0,0.0,0.0,0.0,0.0,0.0
2025/05/19 02:27:26.722429067,1747614446,721894543,mA1/imu,0.8831714360672938,0.4690496087493244,0.00010282772066788485,0.000817602225760809,0.0,0.0,0.0,0.0,0.0,0.0,0.0,0.0,0.0,-1.2178820326623139e-05,-0.0011348704206368464,0.00034913522930733905,0.0,0.0,0.0,0.0,0.0,0.0,0.0,0.0,0.0,0.026340025377004462,-0.0094254350384537,9.80906097263859,0.0,0.0,0.0,0.0,0.0,0.0,0.0,0.0,0.0
2025/05/19 02:27:26.772182882,1747614446,771761920,mA1/imu,0.8831749393995403,0.4690429929036671,6.513342350833483e-05,0.0008324555399482808,0.0,0.0,0.0,0.0,0.0,0.0,0.0,0.0,0.0,0.00035316135384085977,-0.0019139616645135358,0.00026371875057096624,0.0,0.0,0.0,0.0,0.0,0.0,0.0,0.0,0.0,0.025551070362883628,0.007324385898376216,9.808727366124698,0.0,0.0,0.0,0.0,0.0,0.0,0.0,0.0,0.0
2025/05/19 02:27:26.823775389,1747614446,823043576,mA1/imu,0.8831774533499614,0.4690382303925466,1.0123304664533142e-05,0.0008510123522832564,0.0,0.0,0.0,0.0,0.0,0.0,0.0,0.0,0.0,0.0003987982032677397,-0.0025250914160517847,0.00017999230405249354,0.0,0.0,0.0,0.0,0.0,0.0,0.0,0.0,0.0,0.023046398013018825,0.002192326492003245,9.811577638103316,0.0,0.0,0.0,0.0,0.0,0.0,0.0,0.0,0.0
2025/05/19 02:27:26.874562215,1747614446,873184700,mA1/imu,0.8831789828134708,0.4690352997508079,-5.562820486631906e-05,0.0008768179603143556,0.0,0.0,0.0,0.0,0.0,0.0,0.0,0.0,0.0,0.0002237973152677785,-0.0029589843198750626,9.351216215028412e-05,0.0,0.0,0.0,0.0,0.0,0.0,0.0,0.0,0.0,0.022292315571732776,-0.09491826256342394,9.810095387415535,0.0,0.0,0.0,0.0,0.0,0.0,0.0,0.0,0.0
2025/05/19 02:27:26.924469238,1747614446,924095173,mA1/imu,0.8831795365351363,0.4690341968211734,-0.00013128796688596626,0.000900678282564826,0.0,0.0,0.0,0.0,0.0,0.0,0.0,0.0,0.0,0.0007084284825234945,-0.003202071985261842,1.604418668967487e-05,0.0,0.0,0.0,0.0,0.0,0.0,0.0,0.0,0.0,0.020942365174750656,-0.47833914032233693,9.809289225069884,0.0,0.0,0.0,0.0,0.0,0.0,0.0,0.0,0.0
2025/05/19 02:27:26.975706778,1747614446,973952690,mA1/imu,0.883179181019359,0.46903479941547854,-0.00021310679284942453,0.000919639467748122,0.0,0.0,0.0,0.0,0.0,0.0,0.0,0.0,0.0,0.0022817225493546108,-0.0032591535063190838,-5.971964120782442e-05,0.0,0.0,0.0,0.0,0.0,0.0,0.0,0.0,0.0,0.02038954428844469,-0.5182476355349671,9.809150215303504,0.0,0.0,0.0,0.0,0.0,0.0,0.0,0.0,0.0
2025/05/19 02:27:27.29234443,1747614447,26863659,mA1/imu,0.8831778502360046,0.469037219499213,-0.00029074420500235744,0.0009418305387964769,0.0,0.0,0.0,0.0,0.0,0.0,0.0,0.0,0.0,0.0005676230803115356,-0.00307712210333543,-0.00014567425700187563,0.0,0.0,0.0,0.0,0.0,0.0,0.0,0.0,0.0,0.019112065143435584,0.6247547118438914,9.810836648472906,0.0,0.0,0.0,0.0,0.0,0.0,0.0,0.0,0.0
2025/05/19 02:27:27.77421916,1747614447,76897175,mA1/imu,0.8831755676830632,0.4690414191522397,-0.0003590608493644401,0.0009668726176084062,0.0,0.0,0.0,0.0,0.0,0.0,0.0,0.0,0.0,-0.0005159357537168493,-0.002721410665260395,-0.000225783099703901,0.0,0.0,0.0,0.0,0.0,0.0,0.0,0.0,0.0,0.01836361244526892,0.3401011036602146,9.809799528011155,0.0,0.0,0.0,0.0,0.0,0.0,0.0,0.0,0.0
2025/05/19 02:27:27.128260069,1747614447,127822514,mA1/imu,0.8831724400943021,0.4690472403491894,-0.0004249840652870931,0.0009730196455269218,0.0,0.0,0.0,0.0,0.0,0.0,0.0,0.0,0.0,0.001591014069088296,-0.0022253363232062067,-0.0002934403250497953,0.0,0.0,0.0,0.0,0.0,0.0,0.0,0.0,0.0,0.016894521087547534,-0.541698968956043,9.808517259844258,0.0,0.0,0.0,0.0,0.0,0.0,0.0,0.0,0.0
2025/05/19 02:27:27.178001461,1747614447,177646592,mA1/imu,0.8831685566695401,0.46905449142507927,-0.0004738583047466154,0.0009798175894849188,0.0,0.0,0.0,0.0,0.0,0.0,0.0,0.0,0.0,0.00046580427033026544,-0.0015777791770337434,-0.0003595472387405159,0.0,0.0,0.0,0.0,0.0,0.0,0.0,0.0,0.0,0.01706808910248336,0.31414684479195415,9.810627711267566,0.0,0.0,0.0,0.0,0.0,0.0,0.0,0.0,0.0
2025/05/19 02:27:27.229267416,1747614447,228736792,mA1/imu,0.8831644239291027,0.46906224551773434,-0.0005062461447455467,0.0009766527929336941,0.0,0.0,0.0,0.0,0.0,0.0,0.0,0.0,0.0,0.0005741618467946642,-0.0007442288066498378,-0.0003483705059772261,0.0,0.0,0.0,0.0,0.0,0.0,0.0,0.0,0.0,0.013292932937380902,0.273688546547848,9.809196963927667,0.0,0.0,0.0,0.0,0.0,0.0,0.0,0.0,0.0
2025/05/19 02:27:27.270528130,1747614447,269921241,mA1/imu,0.8831604339911762,0.46906976797782013,-0.0005189715279619366,0.0009650234734495819,0.0,0.0,0.0,0.0,0.0,0.0,0.0,0.0,0.0,0.001612601347672634,0.00011574425373744387,-0.0003367521298381159,0.0,0.0,0.0,0.0,0.0,0.0,0.0,0.0,0.0,0.013427797913021542,0.2527670746064051,9.810753869276214,0.0,0.0,0.0,0.0,0.0,0.0,0.0,0.0,0.0
2025/05/19 02:27:27.321099889,1747614447,320859951,mA1/imu,0.8831565808059514,0.4690770684458889,-0.0005100199570627721,0.0009473737358231773,0.0,0.0,0.0,0.0,0.0,0.0,0.0,0.0,0.0,0.001076427929861265,0.0009888811239510758,-0.00032588311279793333,0.0,0.0,0.0,0.0,0.0,0.0,0.0,0.0,0.0,0.013485612216690396,0.05263118722469475,9.808601033660123,0.0,0.0,0.0,0.0,0.0,0.0,0.0,0.0,0.0
2025/05/19 02:27:27.372760530,1747614447,370715834,mA1/imu,0.8831528527455016,0.46908416165962014,-0.0004798539483140847,0.0009261251329679627,0.0,0.0,0.0,0.0,0.0,0.0,0.0,0.0,0.0,0.0010268537391081914,0.0017619408678744915,-0.0003157770167477061,0.0,0.0,0.0,0.0,0.0,0.0,0.0,0.0,0.0,0.014261573268672851,0.05524317975827027,9.809987031143558,0.0,0.0,0.0,0.0,0.0,0.0,0.0,0.0,0.0
2025/05/19 02:27:27.424267063,1747614447,423776303,mA1/imu,0.8831488101259319,0.4690918716272002,-0.0004323344613383808,0.0008990179945590237,0.0,0.0,0.0,0.0,0.0,0.0,0.0,0.0,0.0,-0.0005431289239082999,0.0024549094998119994,-0.0003974347493142746,0.0,0.0,0.0,0.0,0.0,0.0,0.0,0.0,0.0,0.01370180390041937,0.3854224256408148,9.809731840088103,0.0,0.0,0.0,0.0,0.0,0.0,0.0,0.0,0.0
2025/05/19 02:27:27.473803251,1747614447,473520331,mA1/imu,0.8831438732431512,0.46910127983927963,-0.00037010196758842975,0.0008668510647832663,0.0,0.0,0.0,0.0,0.0,0.0,0.0,0.0,0.0,0.00021254324701729005,0.003002213102948308,-0.0004226452937034025,0.0,0.0,0.0,0.0,0.0,0.0,0.0,0.0,0.0,0.01420816131847402,-0.604927654195408,9.809503127652015,0.0,0.0,0.0,0.0,0.0,0.0,0.0,0.0,0.0
2025/05/19 02:27:27.527781627,1747614447,525744558,mA1/imu,0.883138661053726,0.46911121929511357,-0.0003011464319648526,0.0008237684809704393,0.0,0.0,0.0,0.0,0.0,0.0,0.0,0.0,0.0,0.0014121684330497106,0.003384133627955611,-0.00048800626479226605,0.0,0.0,0.0,0.0,0.0,0.0,0.0,0.0,0.0,0.013977022728264331,-0.5171740754136034,9.809007236683518,0.0,0.0,0.0,0.0,0.0,0.0,0.0,0.0,0.0
2025/05/19 02:27:27.577640501,1747614447,577039982,mA1/imu,0.8831327056413785,0.469122534604589,-0.00021944233730892675,0.0007896820658911024,0.0,0.0,0.0,0.0,0.0,0.0,0.0,0.0,0.0,-0.0005084143912208913,0.0035920683585534707,-0.0005066507930208864,0.0,0.0,0.0,0.0,0.0,0.0,0.0,0.0,0.0,0.015115888230131252,0.6203436403619341,9.811358756696086,0.0,0.0,0.0,0.0,0.0,0.0,0.0,0.0,0.0
2025/05/19 02:27:27.628432424,1747614447,628258247,mA1/imu,0.8831268048198897,0.46913371755467653,-0.00013090836003295722,0.000764542309211684,0.0,0.0,0.0,0.0,0.0,0.0,0.0,0.0,0.0,-0.002102606029154989,0.0035781958842303553,-0.0005009728443898102,0.0,0.0,0.0,0.0,0.0,0.0,0.0,0.0,0.0,0.016283803974119056,0.5219536575819343,9.811043780183203,0.0,0.0,0.0,0.0,0.0,0.0,0.0,0.0,0.0
2025/05/19 02:27:27.678947343,1747614447,678069899,mA1/imu,0.8831209641326859,0.46914477396428694,-4.80367215135781e-05,0.0007358422568255449,0.0,0.0,0.0,0.0,0.0,0.0,0.0,0.0,0.0,-0.00047189523640691613,0.0033651943599592913,-0.0004958134006121073,0.0,0.0,0.0,0.0,0.0,0.0,0.0,0.0,0.0,0.015480273187677567,-0.6145937450940554,9.80965090609142,0.0,0.0,0.0,0.0,0.0,0.0,0.0,0.0,0.0
2025/05/19 02:27:27.729602117,1747614447,729134460,mA1/imu,0.8831151765797804,0.4691557149247664,2.5271805133760656e-05,0.0007066889204474689,0.0,0.0,0.0,0.0,0.0,0.0,0.0,0.0,0.0,-6.746811540639894e-05,0.002962726418598002,-0.0004912589030736534,0.0,0.0,0.0,0.0,0.0,0.0,0.0,0.0,0.0,0.016475547360556807,-0.01245060954726971,9.810471281583823,0.0,0.0,0.0,0.0,0.0,0.0,0.0,0.0,0.0
2025/05/19 02:27:27.779662800,1747614447,778966239,mA1/imu,0.8831094269185279,0.4691665508074971,9.250076620323123e-05,0.0006921955169326948,0.0,0.0,0.0,0.0,0.0,0.0,0.0,0.0,0.0,-0.0015884186344309545,0.0024211575560655475,-0.00048713388067134986,0.0,0.0,0.0,0.0,0.0,0.0,0.0,0.0,0.0,0.016583012500501183,0.3865843944015741,9.810920682844003,0.0,0.0,0.0,0.0,0.0,0.0,0.0,0.0,0.0
2025/05/19 02:27:27.832444200,1747614447,830123411,mA1/imu,0.8831037232826039,0.4691772857602345,0.00014487952153369768,0.0006837111858627974,0.0,0.0,0.0,0.0,0.0,0.0,0.0,0.0,0.0,-0.0005518919751647858,0.0017236434854972853,-0.000483334664371604,0.0,0.0,0.0,0.0,0.0,0.0,0.0,0.0,0.0,0.017287891422217767,-0.6168912177690087,9.810581501484638,0.0,0.0,0.0,0.0,0.0,0.0,0.0,0.0,0.0
2025/05/19 02:27:27.870175064,1747614447,869751411,mA1/imu,0.8830980668991677,0.46918792702635764,0.0001783509819571113,0.0006793839779618362,0.0,0.0,0.0,0.0,0.0,0.0,0.0,0.0,0.0,-0.0013546680793187623,0.0009623529311437013,-0.0004796892849144103,0.0,0.0,0.0,0.0,0.0,0.0,0.0,0.0,0.0,0.016374008051763887,-0.042941540401533966,9.809928577261816,0.0,0.0,0.0,0.0,0.0,0.0,0.0,0.0,0.0
2025/05/19 02:27:27.921398553,1747614447,920814117,mA1/imu,0.8830924457062127,0.46919848505012013,0.00019688000793760416,0.0006893486450932768,0.0,0.0,0.0,0.0,0.0,0.0,0.0,0.0,0.0,-0.0009072899592882659,0.00014085203971950453,-0.0004766787317367998,0.0,0.0,0.0,0.0,0.0,0.0,0.0,0.0,0.0,0.01667506602420016,-0.21325326298164968,9.809537690676096,0.0,0.0,0.0,0.0,0.0,0.0,0.0,0.0,0.0
2025/05/19 02:27:27.970978039,1747614447,970658198,mA1/imu,0.8830868775145341,0.4692089616741653,0.00018950461504296673,0.0006936384381254855,0.0,0.0,0.0,0.0,0.0,0.0,0.0,0.0,0.0,-0.00011790224358808324,-0.0006495747448090058,-0.0004735673230943028,0.0,0.0,0.0,0.0,0.0,0.0,0.0,0.0,0.0,0.015846860969528673,0.034383573340301704,9.81029383937154,0.0,0.0,0.0,0.0,0.0,0.0,0.0,0.0,0.0
2025/05/19 02:27:28.24276061,1747614448,21590918,mA1/imu,0.8830813446838273,0.46921935472034193,0.0001684655496762681,0.0007123528537270694,0.0,0.0,0.0,0.0,0.0,0.0,0.0,0.0,0.0,0.00026352730029690914,-0.001379370945820281,-0.00047035003097158426,0.0,0.0,0.0,0.0,0.0,0.0,0.0,0.0,0.0,0.014950144735685926,0.045677229314385545,9.80922534094473,0.0,0.0,0.0,0.0,0.0,0.0,0.0,0.0,0.0
2025/05/19 02:27:28.73102470,1747614448,71396075,mA1/imu,0.8830758509466049,0.46922966177429604,0.00013295908028719054,0.0007404782186083194,0.0,0.0,0.0,0.0,0.0,0.0,0.0,0.0,0.0,4.9734415271501765e-05,-0.002032970615975612,-0.00046707137926132086,0.0,0.0,0.0,0.0,0.0,0.0,0.0,0.0,0.0,0.01465477081305783,0.021066265339401275,9.810213403821542,0.0,0.0,0.0,0.0,0.0,0.0,0.0,0.0,0.0
2025/05/19 02:27:28.122884865,1747614448,122407120,mA1/imu,0.8830703992525235,0.469239880602623,8.38063241817753e-05,0.0007729117187016545,0.0,0.0,0.0,0.0,0.0,0.0,0.0,0.0,0.0,-0.0007490407739550173,-0.0025378370891141287,-0.00046335619765267553,0.0,0.0,0.0,0.0,0.0,0.0,0.0,0.0,0.0,0.013997584377640575,-0.0451525783247991,9.80937692271233,0.0,0.0,0.0,0.0,0.0,0.0,0.0,0.0,0.0
2025/05/19 02:27:28.176354662,1747614448,173732038,mA1/imu,0.8830649990838325,0.46925000678299694,1.9405220096369523e-05,0.0007988433297828238,0.0,0.0,0.0,0.0,0.0,0.0,0.0,0.0,0.0,-0.0011088961174873084,-0.002883698619482209,-0.0004595666139138101,0.0,0.0,0.0,0.0,0.0,0.0,0.0,0.0,0.0,0.013560257621619028,0.4105664015845915,9.81092626635928,0.0,0.0,0.0,0.0,0.0,0.0,0.0,0.0,0.0
2025/05/19 02:27:28.224905059,1747614448,224488964,mA1/imu,0.8830596477718361,0.46926002502835845,-5.068527260003642e-05,0.0008275375932328613,0.0,0.0,0.0,0.0,0.0,0.0,0.0,0.0,0.0,0.0006590980497313165,-0.003060892043530294,-0.0004547417105423918,0.0,0.0,0.0,0.0,0.0,0.0,0.0,0.0,0.0,0.011667233516644575,0.03476181657972541,9.809724789073966,0.0,0.0,0.0,0.0,0.0,0.0,0.0,0.0,0.0
2025/05/19 02:27:28.276493676,1747614448,274313800,mA1/imu,0.8830543433618463,0.4692699368509189,-0.00012023413707422235,0.0008594076247489095,0.0,0.0,0.0,0.0,0.0,0.0,0.0,0.0,0.0,-0.0007699905143263267,-0.003025895248728962,-0.00044996310693654805,0.0,0.0,0.0,0.0,0.0,0.0,0.0,0.0,0.0,0.011441946969763401,0.11006330376979279,9.810893671302432,0.0,0.0,0.0,0.0,0.0,0.0,0.0,0.0,0.0
2025/05/19 02:27:28.326857102,1747614448,326326557,mA1/imu,0.8830491023610677,0.46927973432116304,-0.00019127065308780758,0.0008815839769626837,0.0,0.0,0.0,0.0,0.0,0.0,0.0,0.0,0.0,0.0006076430730014113,-0.002828900793333445,-0.0004445299456760948,0.0,0.0,0.0,0.0,0.0,0.0,0.0,0.0,0.0,0.010759568929385508,-0.6137711293355983,9.809354141085898,0.0,0.0,0.0,0.0,0.0,0.0,0.0,0.0,0.0
2025/05/19 02:27:28.378670713,1747614448,376545789,mA1/imu,0.8830439306457066,0.4692894073693148,-0.00025822918407935377,0.0008955436483929161,0.0,0.0,0.0,0.0,0.0,0.0,0.0,0.0,0.0,0.001887557476160918,-0.0024815413919113296,-0.00043849811887382246,0.0,0.0,0.0,0.0,0.0,0.0,0.0,0.0,0.0,0.010688681902673103,-0.44690335530792624,9.809089085779771,0.0,0.0,0.0,0.0,0.0,0.0,0.0,0.0,0.0
2025/05/19 02:27:28.428135161,1747614448,427483270,mA1/imu,0.8830388232434093,0.469298958483615,-0.0003124664950010796,0.0009091621299511876,0.0,0.0,0.0,0.0,0.0,0.0,0.0,0.0,0.0,0.0013422951396562268,-0.0019620473871548106,-0.00043263073940717544,0.0,0.0,0.0,0.0,0.0,0.0,0.0,0.0,0.0,0.00908012779153201,-0.15746542837305366,9.80870385282894,0.0,0.0,0.0,0.0,0.0,0.0,0.0,0.0,0.0
2025/05/19 02:27:28.477722277,1747614448,477344174,mA1/imu,0.8830337922663223,0.4693083816661413,-0.00035405810287131106,0.0009161094500677046,0.0,0.0,0.0,0.0,0.0,0.0,0.0,0.0,0.0,0.0009414146713168644,-0.0013400701992428992,-0.0004260966260933345,0.0,0.0,0.0,0.0,0.0,0.0,0.0,0.0,0.0,0.00903111754212448,0.03576516527477499,9.809921751222484,0.0,0.0,0.0,0.0,0.0,0.0,0.0,0.0,0.0
2025/05/19 02:27:28.529333322,1747614448,528322172,mA1/imu,0.8830288370981116,0.4693176760814952,-0.0003770697718830279,0.0009217315273177782,0.0,0.0,0.0,0.0,0.0,0.0,0.0,0.0,0.0,0.0010085291551481916,-0.0006404748620047313,-0.00041921524899995674,0.0,0.0,0.0,0.0,0.0,0.0,0.0,0.0,0.0,0.009169750448473108,-0.5870372623099164,9.80857414094729,0.0,0.0,0.0,0.0,0.0,0.0,0.0,0.0,0.0
2025/05/19 02:27:28.578658691,1747614448,578064981,mA1/imu,0.8830239822371913,0.46932682614281557,-0.00039018744092643903,0.000908190753627527,0.0,0.0,0.0,0.0,0.0,0.0,0.0,0.0,0.0,0.00124783335682592,7.99500612156325e-05,-0.00041229065379787516,0.0,0.0,0.0,0.0,0.0,0.0,0.0,0.0,0.0,0.009433295814111124,0.06197817270694149,9.80965162655913,0.0,0.0,0.0,0.0,0.0,0.0,0.0,0.0,0.0
2025/05/19 02:27:28.629534833,1747614448,628993428,mA1/imu,0.8830186313116801,0.46933691399356525,-0.0003791986002813748,0.0009022903443083702,0.0,0.0,0.0,0.0,0.0,0.0,0.0,0.0,0.0,-0.0008599997313502868,0.0007634957550974218,-0.0004593949793233586,0.0,0.0,0.0,0.0,0.0,0.0,0.0,0.0,0.0,0.010937168294521847,0.554739044206626,9.81094111396584,0.0,0.0,0.0,0.0,0.0,0.0,0.0,0.0,0.0
2025/05/19 02:27:28.679466612,1747614448,678860985,mA1/imu,0.8830132915003825,0.4693470112738607,-0.0003563565263867031,0.0008849022440424023,0.0,0.0,0.0,0.0,0.0,0.0,0.0,0.0,0.0,0.0005079003566617832,0.001365627589556121,-0.0004528240130831116,0.0,0.0,0.0,0.0,0.0,0.0,0.0,0.0,0.0,0.011420276299853796,-0.5970508155205662,9.809472639025628,0.0,0.0,0.0,0.0,0.0,0.0,0.0,0.0,0.0
2025/05/19 02:27:28.721393652,1747614448,720935141,mA1/imu,0.8830072412913027,0.46935845787533337,-0.00032210732686605204,0.0008637678404443099,0.0,0.0,0.0,0.0,0.0,0.0,0.0,0.0,0.0,0.000309401796485032,0.0017478332744308115,-0.0005570730632580374,0.0,0.0,0.0,0.0,0.0,0.0,0.0,0.0,0.0,0.016828802869909443,0.028051932056679593,9.810185059017357,0.0,0.0,0.0,0.0,0.0,0.0,0.0,0.0,0.0
2025/05/19 02:27:28.773414477,1747614448,773056474,mA1/imu,0.883000106087431,0.4693719449872595,-0.00027893538853261647,0.0008438622587365219,0.0,0.0,0.0,0.0,0.0,0.0,0.0,0.0,0.0,-0.0005292515647559283,0.001979866449856716,-0.0006398875439541278,0.0,0.0,0.0,0.0,0.0,0.0,0.0,0.0,0.0,0.01847757612719899,0.4099298170432849,9.811098473114155,0.0,0.0,0.0,0.0,0.0,0.0,0.0,0.0,0.0
2025/05/19 02:27:28.824343768,1747614448,824015628,mA1/imu,0.8829923208797659,0.4693866462980249,-0.0002312588520308064,0.0008270814957892437,0.0,0.0,0.0,0.0,0.0,0.0,0.0,0.0,0.0,-0.0013411356668118232,0.0019988418392570284,-0.0006741053727479446,0.0,0.0,0.0,0.0,0.0,0.0,0.0,0.0,0.0,0.020842027789813544,0.5281254547188939,9.811451836131374,0.0,0.0,0.0,0.0,0.0,0.0,0.0,0.0,0.0
2025/05/19 02:27:28.875664263,1747614448,874878363,mA1/imu,0.8829843841487662,0.4694016279259471,-0.00018573613040681288,0.0008090438708240549,0.0,0.0,0.0,0.0,0.0,0.0,0.0,0.0,0.0,-0.0005182590489470504,0.0018840712332173248,-0.00067772296525901,0.0,0.0,0.0,0.0,0.0,0.0,0.0,0.0,0.0,0.022307070132907232,-0.010387268629914473,9.810456414962287,0.0,0.0,0.0,0.0,0.0,0.0,0.0,0.0,0.0
2025/05/19 02:27:28.926841474,1747614448,926050798,mA1/imu,0.882976641111743,0.469416228104961,-0.00014315604957547548,0.0007972133220946127,0.0,0.0,0.0,0.0,0.0,0.0,0.0,0.0,0.0,-0.0004676686042733635,0.0016040110520102314,-0.0006412832944713617,0.0,0.0,0.0,0.0,0.0,0.0,0.0,0.0,0.0,0.023853624751230745,6.0115464615219036e-05,9.810138335391638,0.0,0.0,0.0,0.0,0.0,0.0,0.0,0.0,0.0
2025/05/19 02:27:28.976063784,1747614448,975870050,mA1/imu,0.8829695012571054,0.46942967391093793,-0.00010614570130453255,0.0007936212818207327,0.0,0.0,0.0,0.0,0.0,0.0,0.0,0.0,0.0,-0.0006283530753921794,0.0012086617746795967,-0.000583451600137192,0.0,0.0,0.0,0.0,0.0,0.0,0.0,0.0,0.0,0.024567441531507993,-0.002359920443719847,9.810599926600336,0.0,0.0,0.0,0.0,0.0,0.0,0.0,0.0,0.0
2025/05/19 02:27:29.27229785,1747614449,26797848,mA1/imu,0.8829634749858385,0.46944101166675806,-7.92298830773628e-05,0.000795065311054089,0.0,0.0,0.0,0.0,0.0,0.0,0.0,0.0,0.0,-0.000642404692818607,0.0007263700710695118,-0.00046295835537042603,0.0,0.0,0.0,0.0,0.0,0.0,0.0,0.0,0.0,0.025201417951511096,0.0031133148803075047,9.810058718074995,0.0,0.0,0.0,0.0,0.0,0.0,0.0,0.0,0.0
2025/05/19 02:27:29.77286724,1747614449,76642773,mA1/imu,0.8829585132924196,0.4694503241611997,-6.055926928253774e-05,0.0008082585968224062,0.0,0.0,0.0,0.0,0.0,0.0,0.0,0.0,0.0,-0.0015861773793788175,0.00021265861393027913,-0.0004091740742826779,0.0,0.0,0.0,0.0,0.0,0.0,0.0,0.0,0.0,0.024677176311062733,0.570523698544142,9.810126983241632,0.0,0.0,0.0,0.0,0.0,0.0,0.0,0.0,0.0
2025/05/19 02:27:29.132403456,1747614449,129331056,mA1/imu,0.8829538359141944,0.469459078578489,-5.009494296788795e-05,0.0008334717408728359,0.0,0.0,0.0,0.0,0.0,0.0,0.0,0.0,0.0,-0.0015455153042124978,-0.00030776563283007246,-0.00038860635357531887,0.0,0.0,0.0,0.0,0.0,0.0,0.0,0.0,0.0,0.024588861130286455,-0.053192927141783745,9.81088189009867,0.0,0.0,0.0,0.0,0.0,0.0,0.0,0.0,0.0
2025/05/19 02:27:29.174985448,1747614449,170818333,mA1/imu,0.8829493898754067,0.46946740060423414,-5.54550545881022e-05,0.0008553439585622042,0.0,0.0,0.0,0.0,0.0,0.0,0.0,0.0,0.0,7.975728949350703e-06,-0.000793403601159005,-0.00037057459628470307,0.0,0.0,0.0,0.0,0.0,0.0,0.0,0.0,0.0,0.023880181369266548,-0.5743116968074223,9.809910985344741,0.0,0.0,0.0,0.0,0.0,0.0,0.0,0.0,0.0
2025/05/19 02:27:29.222807438,1747614449,221798136,mA1/imu,0.8829451369595219,0.4694753461435332,-7.028009545042495e-05,0.0008829176909417093,0.0,0.0,0.0,0.0,0.0,0.0,0.0,0.0,0.0,-9.572679645972743e-05,-0.0012020092870754606,-0.0003548439327553404,0.0,0.0,0.0,0.0,0.0,0.0,0.0,0.0,0.0,0.022740682401479653,0.046386738660475886,9.809319396473485,0.0,0.0,0.0,0.0,0.0,0.0,0.0,0.0,0.0
2025/05/19 02:27:29.274629614,1747614449,273077618,mA1/imu,0.8829410438933195,0.46948296830645564,-9.018518393911194e-05,0.000920513643199918,0.0,0.0,0.0,0.0,0.0,0.0,0.0,0.0,0.0,-0.0016124283672789663,-0.001529332069695026,-0.00034143250013647127,0.0,0.0,0.0,0.0,0.0,0.0,0.0,0.0,0.0,0.02279789483344502,0.5649129191844782,9.810055228086455,0.0,0.0,0.0,0.0,0.0,0.0,0.0,0.0,0.0
2025/05/19 02:27:29.326083127,1747614449,324018490,mA1/imu,0.88293710473611,0.4694902988986207,-0.0001188743997525474,0.0009561324053371774,0.0,0.0,0.0,0.0,0.0,0.0,0.0,0.0,0.0,-0.001287914134513229,-0.001762293552747281,-0.00032872082381846506,0.0,0.0,0.0,0.0,0.0,0.0,0.0,0.0,0.0,0.022148620521214177,-0.050590007331966155,9.810557353524894,0.0,0.0,0.0,0.0,0.0,0.0,0.0,0.0,0.0
2025/05/19 02:27:29.374636809,1747614449,374178748,mA1/imu,0.8829333135389349,0.46949735739803494,-0.00015546520563627459,0.0009854288349450614,0.0,0.0,0.0,0.0,0.0,0.0,0.0,0.0,0.0,0.0006610614855324526,-0.001882915581760377,-0.0003173296716069089,0.0,0.0,0.0,0.0,0.0,0.0,0.0,0.0,0.0,0.021291689732796746,-0.554632365133283,9.809531433172404,0.0,0.0,0.0,0.0,0.0,0.0,0.0,0.0,0.0
2025/05/19 02:27:29.425608208,1747614449,425092268,mA1/imu,0.8829296513304479,0.4695041669766421,-0.00019258450216320196,0.0010153345620431645,0.0,0.0,0.0,0.0,0.0,0.0,0.0,0.0,0.0,-0.0007152372088047303,-0.0018533153926080653,-0.00030606617944562613,0.0,0.0,0.0,0.0,0.0,0.0,0.0,0.0,0.0,0.020402416042311203,0.5976747027078014,9.809856171492319,0.0,0.0,0.0,0.0,0.0,0.0,0.0,0.0,0.0
2025/05/19 02:27:29.476277584,1747614449,475005419,mA1/imu,0.8829261155043983,0.46951074438072016,-0.00022975824816055357,0.001040520313908658,0.0,0.0,0.0,0.0,0.0,0.0,0.0,0.0,0.0,0.0006063213474976844,-0.0017290122846095202,-0.00029620988124448203,0.0,0.0,0.0,0.0,0.0,0.0,0.0,0.0,0.0,0.019701448584566406,-0.49880634347742303,9.80850884891599,0.0,0.0,0.0,0.0,0.0,0.0,0.0,0.0,0.0
2025/05/19 02:27:29.527723014,1747614449,527228998,mA1/imu,0.8829225015310356,0.4695174848344165,-0.0002649531845739119,0.001057130432954307,0.0,0.0,0.0,0.0,0.0,0.0,0.0,0.0,0.0,0.0007279856026222414,-0.001544226570970171,-0.00042054622204852236,0.0,0.0,0.0,0.0,0.0,0.0,0.0,0.0,0.0,0.026418139041327764,0.03388222562025804,9.811108992387386,0.0,0.0,0.0,0.0,0.0,0.0,0.0,0.0,0.0
2025/05/19 02:27:29.580423297,1747614449,577272972,mA1/imu,0.8829151127070413,0.4695313115194518,-0.0002957151444500571,0.0010787997448334522,0.0,0.0,0.0,0.0,0.0,0.0,0.0,0.0,0.0,-0.0008767672141029328,-0.0014150874610625508,-0.0007664927878922653,0.0,0.0,0.0,0.0,0.0,0.0,0.0,0.0,0.0,0.024588303734056342,0.5510962451202004,9.811484485303813,0.0,0.0,0.0,0.0,0.0,0.0,0.0,0.0,0.0
2025/05/19 02:27:29.630099577,1747614449,628278289,mA1/imu,0.882904059625649,0.46955203101965964,-0.0003206951472202396,0.0010994619063136684,0.0,0.0,0.0,0.0,0.0,0.0,0.0,0.0,0.0,-0.0008092346443507866,-0.0011201275897874691,-0.001042300485379301,0.0,0.0,0.0,0.0,0.0,0.0,0.0,0.0,0.0,0.024357226522156848,-0.0738288620159952,9.808038277964389,0.0,0.0,0.0,0.0,0.0,0.0,0.0,0.0,0.0
2025/05/19 02:27:29.679048299,1747614449,678175209,mA1/imu,0.8828899080438164,0.4695786085977696,-0.00034104133369373686,0.0011064865895968753,0.0,0.0,0.0,0.0,0.0,0.0,0.0,0.0,0.0,0.0008386663763285979,-0.0006731440789507027,-0.0013184221076750586,0.0,0.0,0.0,0.0,0.0,0.0,0.0,0.0,0.0,0.021500629220662846,-0.5900389490669357,9.807190939183785,0.0,0.0,0.0,0.0,0.0,0.0,0.0,0.0,0.0
2025/05/19 02:27:29.729995199,1747614449,729768998,mA1/imu,0.8828722119910033,0.46961187271131843,-0.0003490064580836371,0.001106570003906523,0.0,0.0,0.0,0.0,0.0,0.0,0.0,0.0,0.0,0.00073487400900828,-3.224301024852946e-05,-0.0016380774068652315,0.0,0.0,0.0,0.0,0.0,0.0,0.0,0.0,0.0,0.01362685098379083,0.03260508452062401,9.811086937636432,0.0,0.0,0.0,0.0,0.0,0.0,0.0,0.0,0.0
2025/05/19 02:27:29.780062699,1747614449,779603134,mA1/imu,0.8828506152317451,0.46965248207312643,-0.0003388389396789566,0.0011056471650772305,0.0,0.0,0.0,0.0,0.0,0.0,0.0,0.0,0.0,-0.000838645418294634,0.0006801500690837847,-0.0019734193647666294,0.0,0.0,0.0,0.0,0.0,0.0,0.0,0.0,0.0,0.012088425909948602,0.5520419654888604,9.81182363482331,0.0,0.0,0.0,0.0,0.0,0.0,0.0,0.0,0.0
2025/05/19 02:27:29.820885676,1747614449,820473630,mA1/imu,0.8828246712493408,0.46970128744999967,-0.00031360891008386254,0.001096380753799973,0.0,0.0,0.0,0.0,0.0,0.0,0.0,0.0,0.0,-0.0007442959417864902,0.0013475063500693809,-0.0023670953160490026,0.0,0.0,0.0,0.0,0.0,0.0,0.0,0.0,0.0,0.015585267785394607,-0.07429566324218095,9.808617850455734,0.0,0.0,0.0,0.0,0.0,0.0,0.0,0.0,0.0
2025/05/19 02:27:29.870728307,1747614449,870323685,mA1/imu,0.8827940272710625,0.4697589544138719,-0.0002758328368489299,0.0010742805827961836,0.0,0.0,0.0,0.0,0.0,0.0,0.0,0.0,0.0,0.0007392865849545001,0.0019918174476925765,-0.0027777210317110014,0.0,0.0,0.0,0.0,0.0,0.0,0.0,0.0,0.0,0.013644697936192987,-0.597357642452683,9.808047499616391,0.0,0.0,0.0,0.0,0.0,0.0,0.0,0.0,0.0
2025/05/19 02:27:29.921738598,1747614449,921354814,mA1/imu,0.8827587195479764,0.46982539975237675,-0.00022348389744548301,0.001042527929748292,0.0,0.0,0.0,0.0,0.0,0.0,0.0,0.0,0.0,0.0007622599884759004,0.002813785739572537,-0.0031113805504626294,0.0,0.0,0.0,0.0,0.0,0.0,0.0,0.0,0.0,-0.012320039772938593,0.04625450926706355,9.810614503834794,0.0,0.0,0.0,0.0,0.0,0.0,0.0,0.0,0.0
2025/05/19 02:27:29.971757502,1747614449,971165049,mA1/imu,0.8827223504141823,0.4698938313816682,-0.00014106610574459805,0.0010096578983763889,0.0,0.0,0.0,0.0,0.0,0.0,0.0,0.0,0.0,-0.0013286418918339337,0.003986954440739539,-0.0030624738061101548,0.0,0.0,0.0,0.0,0.0,0.0,0.0,0.0,0.0,-0.011579056643293208,0.5300856823848537,9.811835832690532,0.0,0.0,0.0,0.0,0.0,0.0,0.0,0.0,0.0
2025/05/19 02:27:30.23191136,1747614450,22221029,mA1/imu,0.8826871742491106,0.4699600367970567,-4.097193281423715e-05,0.0009563216666028643,0.0,0.0,0.0,0.0,0.0,0.0,0.0,0.0,0.0,9.593340750846848e-05,0.0048768505049329,-0.0029512834893918993,0.0,0.0,0.0,0.0,0.0,0.0,0.0,0.0,0.0,-0.00916750456174216,-0.6369541911177231,9.81011349627378,0.0,0.0,0.0,0.0,0.0,0.0,0.0,0.0,0.0
2025/05/19 02:27:30.72520155,1747614450,72248480,mA1/imu,0.8826532747634328,0.470023834836509,7.097418587078487e-05,0.0008866778643983455,0.0,0.0,0.0,0.0,0.0,0.0,0.0,0.0,0.0,0.0006029518339506489,0.005472716208531868,-0.0028418458628975494,0.0,0.0,0.0,0.0,0.0,0.0,0.0,0.0,0.0,-0.008009755764355215,0.021100336833461755,9.810224739913595,0.0,0.0,0.0,0.0,0.0,0.0,0.0,0.0,0.0
2025/05/19 02:27:30.123528529,1747614450,123171755,mA1/imu,0.8826205667634899,0.47008534578887295,0.00019351871297263687,0.0008156906028735685,0.0,0.0,0.0,0.0,0.0,0.0,0.0,0.0,0.0,0.00037025019599446363,0.005740170499964454,-0.002742891193733802,0.0,0.0,0.0,0.0,0.0,0.0,0.0,0.0,0.0,-0.006560122606234602,0.19150364786622387,9.811877922951952,0.0,0.0,0.0,0.0,0.0,0.0,0.0,0.0,0.0
2025/05/19 02:27:30.173805672,1747614450,173015942,mA1/imu,0.882589018872842,0.4701446241004626,0.0003179315793712449,0.0007450597423525726,0.0,0.0,0.0,0.0,0.0,0.0,0.0,0.0,0.0,-0.001192917515687722,0.0056817342837663385,-0.0026425502185514786,0.0,0.0,0.0,0.0,0.0,0.0,0.0,0.0,0.0,-0.0061522817963198355,0.5226635718185486,9.810885377621393,0.0,0.0,0.0,0.0,0.0,0.0,0.0,0.0,0.0
2025/05/19 02:27:30.224597942,1747614450,223933860,mA1/imu,0.88255865387023,0.4702016349431422,0.0004345899905956602,0.0006753570194467657,0.0,0.0,0.0,0.0,0.0,0.0,0.0,0.0,0.0,-0.0006228686665368566,0.005236381961439127,-0.0025408854120769144,0.0,0.0,0.0,0.0,0.0,0.0,0.0,0.0,0.0,-0.002913353403890426,0.07215801930899055,9.810123074183668,0.0,0.0,0.0,0.0,0.0,0.0,0.0,0.0,0.0
2025/05/19 02:27:30.275187648,1747614450,274380260,mA1/imu,0.8825293641030899,0.4702565991888579,0.0005340954999684606,0.0006059349159773712,0.0,0.0,0.0,0.0,0.0,0.0,0.0,0.0,0.0,0.0009474501756932038,0.004508889454425968,-0.002453075425433507,0.0,0.0,0.0,0.0,0.0,0.0,0.0,0.0,0.0,-0.0029540490138600848,-0.20919195052006523,9.811063969514146,0.0,0.0,0.0,0.0,0.0,0.0,0.0,0.0,0.0
2025/05/19 02:27:30.326126832,1747614450,325418014,mA1/imu,0.8825010140427682,0.4703097700994719,0.0006149834228885481,0.0005496888733707993,0.0,0.0,0.0,0.0,0.0,0.0,0.0,0.0,0.0,9.216252811663624e-05,0.003495871316990689,-0.002374026975201207,0.0,0.0,0.0,0.0,0.0,0.0,0.0,0.0,0.0,-0.0017009414771967041,0.5990845224433523,9.810899589975735,0.0,0.0,0.0,0.0,0.0,0.0,0.0,0.0,0.0
2025/05/19 02:27:30.375631855,1747614450,375234145,mA1/imu,0.8824736997444286,0.4703609844015729,0.0006732811727013421,0.0005102005743131404,0.0,0.0,0.0,0.0,0.0,0.0,0.0,0.0,0.0,-0.0009984236163913236,0.0023371633993567306,-0.002283261591636668,0.0,0.0,0.0,0.0,0.0,0.0,0.0,0.0,0.0,-0.002417926945513152,0.5228649744093501,9.810575816994472,0.0,0.0,0.0,0.0,0.0,0.0,0.0,0.0,0.0
2025/05/19 02:27:30.429448937,1747614450,429195776,mA1/imu,0.8824474936766677,0.47041013434035595,0.0007023321129396472,0.0004828491058366937,0.0,0.0,0.0,0.0,0.0,0.0,0.0,0.0,0.0,0.0005742401536228225,0.0010099516840058138,-0.002189666422446437,0.0,0.0,0.0,0.0,0.0,0.0,0.0,0.0,0.0,-0.0011976840245495777,-0.6326319872347327,9.809143996421538,0.0,0.0,0.0,0.0,0.0,0.0,0.0,0.0,0.0
2025/05/19 02:27:30.479847038,1747614450,479514169,mA1/imu,0.8824223714191624,0.47045728963053995,0.0006961692520863765,0.0004608696568237973,0.0,0.0,0.0,0.0,0.0,0.0,0.0,0.0,0.0,0.0011569097771788252,-0.00035048630205886545,-0.002106007294414342,0.0,0.0,0.0,0.0,0.0,0.0,0.0,0.0,0.0,-0.0003397792123783468,0.035099204590335484,9.810508072317397,0.0,0.0,0.0,0.0,0.0,0.0,0.0,0.0,0.0
2025/05/19 02:27:30.522953818,1747614450,520414824,mA1/imu,0.8823978369449917,0.47050334710165664,0.0006631123758618445,0.00046690782256855756,0.0,0.0,0.0,0.0,0.0,0.0,0.0,0.0,0.0,-0.000198364716081403,-0.001805179438097242,-0.001992825059828264,0.0,0.0,0.0,0.0,0.0,0.0,0.0,0.0,0.0,-0.0038534173378712002,0.5508120701249505,9.808338512252785,0.0,0.0,0.0,0.0,0.0,0.0,0.0,0.0,0.0
2025/05/19 02:27:30.570678903,1747614450,570179041,mA1/imu,0.8823764169483234,0.47054358523517853,0.0005995022183930842,0.0004835334044904499,0.0,0.0,0.0,0.0,0.0,0.0,0.0,0.0,0.0,0.0010450664010045164,-0.0030540737867026935,-0.0017227793494337907,0.0,0.0,0.0,0.0,0.0,0.0,0.0,0.0,0.0,-0.0018883702218459022,-0.3388451284771533,9.808813560854684,0.0,0.0,0.0,0.0,0.0,0.0,0.0,0.0,0.0
2025/05/19 02:27:30.622969599,1747614450,621114261,mA1/imu,0.882357871249864,0.4705784374640193,0.0005090031225585084,0.0005120089372109066,0.0,0.0,0.0,0.0,0.0,0.0,0.0,0.0,0.0,0.0006108786932984286,-0.004182501739087715,-0.0014974586566890772,0.0,0.0,0.0,0.0,0.0,0.0,0.0,0.0,0.0,0.0013029618501516427,0.0038842855421012974,9.8089720450329,0.0,0.0,0.0,0.0,0.0,0.0,0.0,0.0,0.0
2025/05/19 02:27:30.671278717,1747614450,670967954,mA1/imu,0.8823420919093877,0.47060808398946324,0.0003956252101529064,0.0005546254815047548,0.0,0.0,0.0,0.0,0.0,0.0,0.0,0.0,0.0,-0.00012288213824582767,-0.005155247107815666,-0.0012278165492691218,0.0,0.0,0.0,0.0,0.0,0.0,0.0,0.0,0.0,0.0019232112087975745,0.58588760782557,9.807527567017683,0.0,0.0,0.0,0.0,0.0,0.0,0.0,0.0,0.0
2025/05/19 02:27:30.722279632,1747614450,721888222,mA1/imu,0.8823298760752525,0.47063101703066107,0.00026273583713258607,0.0006054449562908813,0.0,0.0,0.0,0.0,0.0,0.0,0.0,0.0,0.0,0.00016121988910038938,-0.005891296016992385,-0.0009056829301225071,0.0,0.0,0.0,0.0,0.0,0.0,0.0,0.0,0.0,0.0010296834912224123,0.6064992275218503,9.807793250474946,0.0,0.0,0.0,0.0,0.0,0.0,0.0,0.0,0.0
2025/05/19 02:27:30.772197965,1747614450,771722712,mA1/imu,0.8823220608500005,0.47064564328607195,0.00011986064966992255,0.0006671031946469876,0.0,0.0,0.0,0.0,0.0,0.0,0.0,0.0,0.0,0.0010056205184364527,-0.00636390510330867,-0.0005201594280436447,0.0,0.0,0.0,0.0,0.0,0.0,0.0,0.0,0.0,0.002858500936770224,0.03790168451083639,9.809926383512916,0.0,0.0,0.0,0.0,0.0,0.0,0.0,0.0,0.0
2025/05/19 02:27:30.824999582,1747614450,824038148,mA1/imu,0.8823186366657836,0.47065197561760413,-2.65858599943247e-05,0.000735209270226404,0.0,0.0,0.0,0.0,0.0,0.0,0.0,0.0,0.0,-3.552303246430333e-05,-0.006465319243347383,-0.00012869730960467864,0.0,0.0,0.0,0.0,0.0,0.0,0.0,0.0,0.0,0.0028636657979387616,0.22463275115744866,9.811338531220942,0.0,0.0,0.0,0.0,0.0,0.0,0.0,0.0,0.0
2025/05/19 02:27:30.875666682,1747614450,874247994,mA1/imu,0.8823186731285555,0.470651766050154,-0.0001750190867827893,0.000802203749458111,0.0,0.0,0.0,0.0,0.0,0.0,0.0,0.0,0.0,-0.0003136312338018137,-0.006530358580788591,5.1479476121371434e-05,0.0,0.0,0.0,0.0,0.0,0.0,0.0,0.0,0.0,0.014887236104938254,0.5516796544811469,9.810903023385396,0.0,0.0,0.0,0.0,0.0,0.0,0.0,0.0,0.0
2025/05/19 02:27:30.926450808,1747614450,926114806,mA1/imu,0.882319991072111,0.4706490918963637,-0.0003194900886084821,0.0008738293434676729,0.0,0.0,0.0,0.0,0.0,0.0,0.0,0.0,0.0,-7.36989314042581e-05,-0.006381026514220849,0.0001324276564710469,0.0,0.0,0.0,0.0,0.0,0.0,0.0,0.0,0.0,0.021693160336719416,-0.020624965922833992,9.808670389908224,0.0,0.0,0.0,0.0,0.0,0.0,0.0,0.0,0.0
2025/05/19 02:27:30.976681503,1747614450,975915752,mA1/imu,0.8823211494225597,0.47064666946741096,-0.0004578762106505755,0.0009445370624879639,0.0,0.0,0.0,0.0,0.0,0.0,0.0,0.0,0.0,-0.0014279104865768273,-0.006036210401024563,8.375107812001734e-05,0.0,0.0,0.0,0.0,0.0,0.0,0.0,0.0,0.0,0.019895513221980337,0.3115690684187975,9.810050784217694,0.0,0.0,0.0,0.0,0.0,0.0,0.0,0.0,0.0
2025/05/19 02:27:31.27370923,1747614451,26843326,mA1/imu,0.8823217505986332,0.47064526808751583,-0.000584030489724386,0.0010094333958873794,0.0,0.0,0.0,0.0,0.0,0.0,0.0,0.0,0.0,0.0002514146408602129,-0.0053600062500149285,4.123570807070836e-05,0.0,0.0,0.0,0.0,0.0,0.0,0.0,0.0,0.0,0.017547690017196315,-0.10815440411406664,9.809762166862992,0.0,0.0,0.0,0.0,0.0,0.0,0.0,0.0,0.0
2025/05/19 02:27:31.76865833,1747614451,76663021,mA1/imu,0.8823219262609875,0.4706446688515855,-0.0006879025610464138,0.0010681342371028396,0.0,0.0,0.0,0.0,0.0,0.0,0.0,0.0,0.0,0.0006469765599587106,-0.004335651766241721,8.698478521660604e-06,0.0,0.0,0.0,0.0,0.0,0.0,0.0,0.0,0.0,0.016772296044275728,-0.1902935757657334,9.80995507037628,0.0,0.0,0.0,0.0,0.0,0.0,0.0,0.0,0.0
2025/05/19 02:27:31.127784077,1747614451,127589951,mA1/imu,0.8823216280512951,0.47064499753700456,-0.0007635699761903396,0.001117106618251494,0.0,0.0,0.0,0.0,0.0,0.0,0.0,0.0,0.0,0.0004942994420557236,-0.003077435092550659,-3.8424402763276205e-05,0.0,0.0,0.0,0.0,0.0,0.0,0.0,0.0,0.0,0.016244588530570144,0.06143774485032434,9.811035353199662,0.0,0.0,0.0,0.0,0.0,0.0,0.0,0.0,0.0
2025/05/19 02:27:31.177736185,1747614451,177395083,mA1/imu,0.8823208241213717,0.47064633672232875,-0.0008048138645576166,0.0011581564139347043,0.0,0.0,0.0,0.0,0.0,0.0,0.0,0.0,0.0,-0.0006534938264746089,-0.0016647018806984178,-8.164834290088984e-05,0.0,0.0,0.0,0.0,0.0,0.0,0.0,0.0,0.0,0.017592489428164798,-0.011936819357453934,9.808903757587293,0.0,0.0,0.0,0.0,0.0,0.0,0.0,0.0,0.0
2025/05/19 02:27:31.230646961,1747614451,228378924,mA1/imu,0.8823188325618141,0.470650000667133,-0.0008163750218039752,0.0011781810594718735,0.0,0.0,0.0,0.0,0.0,0.0,0.0,0.0,0.0,0.00020831009842795656,-0.0002147299583026169,-0.000257321075678877,0.0,0.0,0.0,0.0,0.0,0.0,0.0,0.0,0.0,0.017483310720726286,-0.5777471642431,9.810938789526883,0.0,0.0,0.0,0.0,0.0,0.0,0.0,0.0,0.0
2025/05/19 02:27:31.278560960,1747614451,278156030,mA1/imu,0.8823151688188268,0.47065689686256673,-0.0007943452520111384,0.0011820843984023856,0.0,0.0,0.0,0.0,0.0,0.0,0.0,0.0,0.0,9.282530236672727e-05,0.0013101809240197969,-0.0003325013676998802,0.0,0.0,0.0,0.0,0.0,0.0,0.0,0.0,0.0,0.015799976202039163,-0.5816709468806829,9.81058281270206,0.0,0.0,0.0,0.0,0.0,0.0,0.0,0.0,0.0
2025/05/19 02:27:31.329517989,1747614451,329149634,mA1/imu,0.8823109625745221,0.4706649054023207,-0.0007392693595361465,0.0011685992721163347,0.0,0.0,0.0,0.0,0.0,0.0,0.0,0.0,0.0,-0.00036140553635226466,0.002761413682111064,-0.0003789728100719279,0.0,0.0,0.0,0.0,0.0,0.0,0.0,0.0,0.0,0.017167253536076153,-0.22540442286178872,9.809872046492298,0.0,0.0,0.0,0.0,0.0,0.0,0.0,0.0,0.0
2025/05/19 02:27:31.379500142,1747614451,378948203,mA1/imu,0.8823062876950777,0.47067386134311445,-0.0006532612412920788,0.0011420121908598483,0.0,0.0,0.0,0.0,0.0,0.0,0.0,0.0,0.0,0.000421323188832763,0.0040200369168036905,-0.00041177307830912,0.0,0.0,0.0,0.0,0.0,0.0,0.0,0.0,0.0,0.016558767359700233,-0.5589794727734335,9.811003812000532,0.0,0.0,0.0,0.0,0.0,0.0,0.0,0.0,0.0
2025/05/19 02:27:31.431785436,1747614451,429858553,mA1/imu,0.8823011207078999,0.4706837937889224,-0.0005462249322679151,0.001095582207924042,0.0,0.0,0.0,0.0,0.0,0.0,0.0,0.0,0.0,-0.00015730541072711792,0.005027536138113265,-0.0004656136588788762,0.0,0.0,0.0,0.0,0.0,0.0,0.0,0.0,0.0,0.018991541794775753,0.21626865245368496,9.811313971597489,0.0,0.0,0.0,0.0,0.0,0.0,0.0,0.0,0.0
2025/05/19 02:27:31.479857580,1747614451,479673238,mA1/imu,0.8822953864366713,0.47069479291287425,-0.00041872483328437725,0.001042912645155894,0.0,0.0,0.0,0.0,0.0,0.0,0.0,0.0,0.0,2.943882616774938e-05,0.005735646735488393,-0.000508060140598969,0.0,0.0,0.0,0.0,0.0,0.0,0.0,0.0,0.0,0.02040322815810991,0.03418417423978681,9.809988748099917,0.0,0.0,0.0,0.0,0.0,0.0,0.0,0.0,0.0
2025/05/19 02:27:31.521240733,1747614451,520577215,mA1/imu,0.8822893216590353,0.47070639693037747,-0.0002817973152303583,0.0009804924958801906,0.0,0.0,0.0,0.0,0.0,0.0,0.0,0.0,0.0,-0.00026056437986342947,0.006156473148688136,-0.0005111761406660521,0.0,0.0,0.0,0.0,0.0,0.0,0.0,0.0,0.0,0.01857252823483997,0.062435223994593766,9.81024160571359,0.0,0.0,0.0,0.0,0.0,0.0,0.0,0.0,0.0
2025/05/19 02:27:31.572429689,1747614451,570439872,mA1/imu,0.8822835109125956,0.4707174860875097,-0.0001404221330839671,0.0009137531524222816,0.0,0.0,0.0,0.0,0.0,0.0,0.0,0.0,0.0,0.0007567181377401875,0.006248992619265933,-0.0004860366368749165,0.0,0.0,0.0,0.0,0.0,0.0,0.0,0.0,0.0,0.018955966698689583,-0.5564963146248005,9.808722634682901,0.0,0.0,0.0,0.0,0.0,0.0,0.0,0.0,0.0
2025/05/19 02:27:31.624303885,1747614451,623832724,mA1/imu,0.8822778156331886,0.47072831300693607,-5.332239052098736e-06,0.0008434137422207397,0.0,0.0,0.0,0.0,0.0,0.0,0.0,0.0,0.0,0.0004423782063357397,0.005925356342886982,-0.00047102617262606436,0.0,0.0,0.0,0.0,0.0,0.0,0.0,0.0,0.0,0.02225934164540248,0.04373931354061834,9.809827039813257,0.0,0.0,0.0,0.0,0.0,0.0,0.0,0.0,0.0
2025/05/19 02:27:31.672018388,1747614451,671245713,mA1/imu,0.8822727196127736,0.47073795393865053,0.00011909409438004364,0.0007827932866924978,0.0,0.0,0.0,0.0,0.0,0.0,0.0,0.0,0.0,-0.0006382427716587368,0.005234060178904163,-0.0004030377677939719,0.0,0.0,0.0,0.0,0.0,0.0,0.0,0.0,0.0,0.023905861147254206,0.5892278758060213,9.810715934545653,0.0,0.0,0.0,0.0,0.0,0.0,0.0,0.0,0.0
2025/05/19 02:27:31.724583303,1747614451,722752228,mA1/imu,0.8822686592448112,0.4707456179777301,0.00021970384967407643,0.0007264980017030508,0.0,0.0,0.0,0.0,0.0,0.0,0.0,0.0,0.0,0.00040716290548781117,0.004166020166727754,-0.00029847141116880514,0.0,0.0,0.0,0.0,0.0,0.0,0.0,0.0,0.0,0.026918188539633233,-0.06303477639579477,9.809173464914483,0.0,0.0,0.0,0.0,0.0,0.0,0.0,0.0,0.0
2025/05/19 02:27:31.773616652,1747614451,772847028,mA1/imu,0.8822654583612913,0.47075164507421463,0.00029215503852548445,0.0006813867437018881,0.0,0.0,0.0,0.0,0.0,0.0,0.0,0.0,0.0,0.0007778783633200819,0.0028680204365996846,-0.00026582618259955173,0.0,0.0,0.0,0.0,0.0,0.0,0.0,0.0,0.0,0.027335203233627963,-0.32542357540822353,9.808482414687205,0.0,0.0,0.0,0.0,0.0,0.0,0.0,0.0,0.0
2025/05/19 02:27:31.825231940,1747614451,824838677,mA1/imu,0.8822619969984766,0.4707581353178561,0.00033689312367097,0.0006581696881270197,0.0,0.0,0.0,0.0,0.0,0.0,0.0,0.0,0.0,0.0007894491733564114,0.0014193644792442216,-0.0003472766671598718,0.0,0.0,0.0,0.0,0.0,0.0,0.0,0.0,0.0,0.027497465183133316,-0.6020733039890638,9.809399970162595,0.0,0.0,0.0,0.0,0.0,0.0,0.0,0.0,0.0
2025/05/19 02:27:31.875658792,1747614451,874488001,mA1/imu,0.8822575572031836,0.47076648046583847,0.00034101162687104943,0.0006382309527435863,0.0,0.0,0.0,0.0,0.0,0.0,0.0,0.0,0.0,0.0008889162557618221,-8.36318856580288e-05,-0.0003717119132410809,0.0,0.0,0.0,0.0,0.0,0.0,0.0,0.0,0.0,0.027279406970163247,-0.08081583178896116,9.80951375718525,0.0,0.0,0.0,0.0,0.0,0.0,0.0,0.0,0.0
2025/05/19 02:27:31.925905765,1747614451,925423768,mA1/imu,0.8822533326223733,0.4707744147100252,0.00031419897727372496,0.0006393826335468927,0.0,0.0,0.0,0.0,0.0,0.0,0.0,0.0,0.0,0.0007244095035770056,-0.0015523008595656879,-0.0003518575335028452,0.0,0.0,0.0,0.0,0.0,0.0,0.0,0.0,0.0,0.025488731511625763,0.08401717271088568,9.808543764122582,0.0,0.0,0.0,0.0,0.0,0.0,0.0,0.0,0.0
2025/05/19 02:27:31.975692078,1747614451,975387612,mA1/imu,0.8822493648826935,0.4707818586527239,0.00025712552642575203,0.0006584937617398282,0.0,0.0,0.0,0.0,0.0,0.0,0.0,0.0,0.0,5.674186112056482e-06,-0.002891632026774133,-0.00033056002335056674,0.0,0.0,0.0,0.0,0.0,0.0,0.0,0.0,0.0,0.0244563738935394,-0.030479626047216785,9.808009805902966,0.0,0.0,0.0,0.0,0.0,0.0,0.0,0.0,0.0
2025/05/19 02:27:32.28846288,1747614452,27575570,mA1/imu,0.8822456939678358,0.4707887425544113,0.00016819597775479474,0.000683424729470699,0.0,0.0,0.0,0.0,0.0,0.0,0.0,0.0,0.0,0.001764413547557033,-0.004043360922853244,-0.00030387385822978804,0.0,0.0,0.0,0.0,0.0,0.0,0.0,0.0,0.0,0.022643142537308945,0.00212273260811828,9.808863909561776,0.0,0.0,0.0,0.0,0.0,0.0,0.0,0.0,0.0
2025/05/19 02:27:32.79127612,1747614452,77205518,mA1/imu,0.8822423277829606,0.4707949995878051,6.486918478468365e-05,0.0007343181942193233,0.0,0.0,0.0,0.0,0.0,0.0,0.0,0.0,0.0,0.000700784692597516,-0.0049620774168597954,-0.0002767346082880133,0.0,0.0,0.0,0.0,0.0,0.0,0.0,0.0,0.0,0.023398723068585495,0.008929833253420302,9.810912865730133,0.0,0.0,0.0,0.0,0.0,0.0,0.0,0.0,0.0
2025/05/19 02:27:32.130490024,1747614452,128399984,mA1/imu,0.8822393154519709,0.4708005761126857,-6.301585120532539e-05,0.0007770661514148886,0.0,0.0,0.0,0.0,0.0,0.0,0.0,0.0,0.0,-0.00037715165377554606,-0.005508574574066545,-0.0002443794464164276,0.0,0.0,0.0,0.0,0.0,0.0,0.0,0.0,0.0,0.02059070566938708,0.1942297558274189,9.809835894742346,0.0,0.0,0.0,0.0,0.0,0.0,0.0,0.0,0.0
2025/05/19 02:27:32.179025821,1747614452,178441009,mA1/imu,0.8822366580894528,0.4708054232392657,-0.00019447416154201336,0.0008335175164032045,0.0,0.0,0.0,0.0,0.0,0.0,0.0,0.0,0.0,0.0013339353320659408,-0.005784025198458971,-0.00021207018251889482,0.0,0.0,0.0,0.0,0.0,0.0,0.0,0.0,0.0,0.019833189903548997,0.058155731024876596,9.809893137549057,0.0,0.0,0.0,0.0,0.0,0.0,0.0,0.0,0.0
2025/05/19 02:27:32.231630812,1747614452,229476016,mA1/imu,0.8822339852869276,0.4708102495774675,-0.00032507390237008176,0.0008935460290025248,0.0,0.0,0.0,0.0,0.0,0.0,0.0,0.0,0.0,-0.0004148643844364716,-0.005664025807103767,-0.0002511125567500665,0.0,0.0,0.0,0.0,0.0,0.0,0.0,0.0,0.0,0.016473186318959318,0.5736325086534135,9.811514924754428,0.0,0.0,0.0,0.0,0.0,0.0,0.0,0.0,0.0
2025/05/19 02:27:32.280107081,1747614452,279280426,mA1/imu,0.8822310586607893,0.47081551839336633,-0.0004469102973562192,0.0009523893294059004,0.0,0.0,0.0,0.0,0.0,0.0,0.0,0.0,0.0,-0.0007030947203528464,-0.005193167162001198,-0.0002347096809315335,0.0,0.0,0.0,0.0,0.0,0.0,0.0,0.0,0.0,0.016093523657050454,0.33583564070335686,9.8116229608894,0.0,0.0,0.0,0.0,0.0,0.0,0.0,0.0,0.0
2025/05/19 02:27:32.330411057,1747614452,330204698,mA1/imu,0.8822284686494688,0.4708201558761946,-0.0005562706253098976,0.0010002440304170664,0.0,0.0,0.0,0.0,0.0,0.0,0.0,0.0,0.0,6.277595379771863e-05,-0.004423783069609719,-0.0002030842897838205,0.0,0.0,0.0,0.0,0.0,0.0,0.0,0.0,0.0,0.014453935432361655,-0.01063004757648306,9.810516275283263,0.0,0.0,0.0,0.0,0.0,0.0,0.0,0.0,0.0
2025/05/19 02:27:32.370349798,1747614452,369995572,mA1/imu,0.8822262455190187,0.47082412261587436,-0.0006424053763930289,0.0010414392639719848,0.0,0.0,0.0,0.0,0.0,0.0,0.0,0.0,0.0,2.2251986671003785e-05,-0.0033857872275477297,-0.0001718602656663296,0.0,0.0,0.0,0.0,0.0,0.0,0.0,0.0,0.0,0.013855873602566519,-0.6357477843688567,9.81088378225867,0.0,0.0,0.0,0.0,0.0,0.0,0.0,0.0,0.0
2025/05/19 02:27:32.423712775,1747614452,421022627,mA1/imu,0.8822244316832255,0.470827381084062,-0.0007062725890179623,0.0010632693747460909,0.0,0.0,0.0,0.0,0.0,0.0,0.0,0.0,0.0,0.0008496416357119376,-0.002165477098045941,-0.0001365769912416366,0.0,0.0,0.0,0.0,0.0,0.0,0.0,0.0,0.0,0.013335166921768681,-0.42975203403278806,9.809690859392969,0.0,0.0,0.0,0.0,0.0,0.0,0.0,0.0,0.0
2025/05/19 02:27:32.471198338,1747614452,470865076,mA1/imu,0.8822230563368242,0.4708298777531086,-0.000737519189535495,0.0010775658451064097,0.0,0.0,0.0,0.0,0.0,0.0,0.0,0.0,0.0,-0.00042815185761053737,-0.0008334645392983164,-0.00010057303178153145,0.0,0.0,0.0,0.0,0.0,0.0,0.0,0.0,0.0,0.01406842153172463,0.5991414066747777,9.81186484566947,0.0,0.0,0.0,0.0,0.0,0.0,0.0,0.0,0.0
2025/05/19 02:27:32.522772024,1747614452,521844820,mA1/imu,0.8822221308736238,0.47083160273367947,-0.0007352387832012971,0.0010830918561614874,0.0,0.0,0.0,0.0,0.0,0.0,0.0,0.0,0.0,-0.001469485432274645,0.0005167824835286626,-6.277032184856574e-05,0.0,0.0,0.0,0.0,0.0,0.0,0.0,0.0,0.0,0.014246269490710731,0.37177477222432315,9.81143052938778,0.0,0.0,0.0,0.0,0.0,0.0,0.0,0.0,0.0
2025/05/19 02:27:32.574911589,1747614452,571654665,mA1/imu,0.8822216855876182,0.47083252199940473,-0.0007081803751137954,0.0010640428460215656,0.0,0.0,0.0,0.0,0.0,0.0,0.0,0.0,0.0,0.00035950623547851364,0.0018361149932278366,-2.5451263170576393e-05,0.0,0.0,0.0,0.0,0.0,0.0,0.0,0.0,0.0,0.013524085403334291,-0.5900223048253859,9.810033158901145,0.0,0.0,0.0,0.0,0.0,0.0,0.0,0.0,0.0
2025/05/19 02:27:32.623517148,1747614452,622635819,mA1/imu,0.8822210360307161,0.4708338774929877,-0.000649051538565303,0.0010402508871491397,0.0,0.0,0.0,0.0,0.0,0.0,0.0,0.0,0.0,-0.0005966569835265781,0.0028712335174008196,-0.00017991635965739367,0.0,0.0,0.0,0.0,0.0,0.0,0.0,0.0,0.0,0.027639115105302287,-0.042276254078466115,9.815933860256907,0.0,0.0,0.0,0.0,0.0,0.0,0.0,0.0,0.0
2025/05/19 02:27:32.673151941,1747614452,672724740,mA1/imu,0.8822163529171074,0.4708428139024786,-0.0005680040088452533,0.0010142058369359626,0.0,0.0,0.0,0.0,0.0,0.0,0.0,0.0,0.0,-0.0023646345772931135,0.0037270861052717055,-0.0005327656623261837,0.0,0.0,0.0,0.0,0.0,0.0,0.0,0.0,0.0,0.017945429846611002,0.4145178461589526,9.811013458622105,0.0,0.0,0.0,0.0,0.0,0.0,0.0,0.0,0.0
2025/05/19 02:27:32.725477276,1747614452,723942465,mA1/imu,0.882206831840526,0.47086084708675935,-0.00047673924877381665,0.0009701826273145172,0.0,0.0,0.0,0.0,0.0,0.0,0.0,0.0,0.0,-0.0019582213729099416,0.0043756534108405345,-0.0009770365456962394,0.0,0.0,0.0,0.0,0.0,0.0,0.0,0.0,0.0,0.018318233785357605,0.536635860228576,9.810215968316042,0.0,0.0,0.0,0.0,0.0,0.0,0.0,0.0,0.0
2025/05/19 02:27:32.774209360,1747614452,773658351,mA1/imu,0.8821942536493622,0.47088460115107794,-0.00035796943687846285,0.0009290235290154293,0.0,0.0,0.0,0.0,0.0,0.0,0.0,0.0,0.0,-0.0005170957618639832,0.005450958391457352,-0.001083745835130471,0.0,0.0,0.0,0.0,0.0,0.0,0.0,0.0,0.0,-0.005491002113026807,0.6561839761714174,9.81071624653371,0.0,0.0,0.0,0.0,0.0,0.0,0.0,0.0,0.0
2025/05/19 02:27:32.825183105,1747614452,824625000,mA1/imu,0.8821830081798502,0.47090585078201674,-0.00020728985403624254,0.0008813676486332559,0.0,0.0,0.0,0.0,0.0,0.0,0.0,0.0,0.0,0.0003787684225866229,0.006810206755727383,-0.0007663299406626194,0.0,0.0,0.0,0.0,0.0,0.0,0.0,0.0,0.0,-0.025864282216516148,-0.5352636008105178,9.81028843983566,0.0,0.0,0.0,0.0,0.0,0.0,0.0,0.0,0.0
2025/05/19 02:27:32.876415493,1747614452,874484857,mA1/imu,0.882174929572696,0.4709211343723756,-3.121073292757263e-05,0.0008233229827148144,0.0,0.0,0.0,0.0,0.0,0.0,0.0,0.0,0.0,-0.0008077005639621716,0.007460627312947543,-0.0007036500594873109,0.0,0.0,0.0,0.0,0.0,0.0,0.0,0.0,0.0,-0.0009643455081701988,0.013134058937347754,9.80867854124025,0.0,0.0,0.0,0.0,0.0,0.0,0.0,0.0,0.0
2025/05/19 02:27:32.926092875,1747614452,925684836,mA1/imu,0.8821662447991339,0.4709374934492134,0.00014730525849296016,0.0007563741981055036,0.0,0.0,0.0,0.0,0.0,0.0,0.0,0.0,0.0,-0.0011872655256085322,0.007575511177489389,-0.0007607024085740635,0.0,0.0,0.0,0.0,0.0,0.0,0.0,0.0,0.0,-0.0004626634314001529,-0.013404705117983449,9.806960807385334,0.0,0.0,0.0,0.0,0.0,0.0,0.0,0.0,0.0
2025/05/19 02:27:32.976217729,1747614452,975312800,mA1/imu,0.8821565674327305,0.47095563145331787,0.00032373165115532205,0.0006920516795835174,0.0,0.0,0.0,0.0,0.0,0.0,0.0,0.0,0.0,-0.0009686183049918282,0.007287321731045914,-0.0008564372452546131,0.0,0.0,0.0,0.0,0.0,0.0,0.0,0.0,0.0,-0.0004972177621376146,-0.006495731171185485,9.809445545781632,0.0,0.0,0.0,0.0,0.0,0.0,0.0,0.0,0.0
2025/05/19 02:27:33.27923065,1747614453,26975681,mA1/imu,0.8821466461703363,0.4709741671803558,0.00048455313882023925,0.0006274611172341042,0.0,0.0,0.0,0.0,0.0,0.0,0.0,0.0,0.0,-0.001539028456505464,0.0065781098653732205,-0.0008120341685886893,0.0,0.0,0.0,0.0,0.0,0.0,0.0,0.0,0.0,0.0021818587262728032,-0.056429693689047114,9.810686901596428,0.0,0.0,0.0,0.0,0.0,0.0,0.0,0.0,0.0
2025/05/19 02:27:33.76837419,1747614453,76638853,mA1/imu,0.8821375435973196,0.47099113245243995,0.0006209351629663146,0.0005672449017267746,0.0,0.0,0.0,0.0,0.0,0.0,0.0,0.0,0.0,-0.001409206783478243,0.005497924370484364,-0.0007379164540781805,0.0,0.0,0.0,0.0,0.0,0.0,0.0,0.0,0.0,0.0021497482402267594,0.5657444451854302,9.810228605467541,0.0,0.0,0.0,0.0,0.0,0.0,0.0,0.0,0.0
