time,header_stamp_secs,header_stamp_nsecs,header_frame_id,orientation_x,orientation_y,orientation_z,orientation_w,orientation_covariance_0,orientation_covariance_1,orientation_covariance_2,orientation_covariance_3,orientation_covariance_4,orientation_covariance_5,orientation_covariance_6,orientation_covariance_7,orientation_covariance_8,angular_velocity_x,angular_velocity_y,angular_velocity_z,angular_velocity_covariance_0,angular_velocity_covariance_1,angular_velocity_covariance_2,angular_velocity_covariance_3,angular_velocity_covariance_4,angular_velocity_covariance_5,angular_velocity_covariance_6,angular_velocity_covariance_7,angular_velocity_covariance_8,linear_acceleration_x,linear_acceleration_y,linear_acceleration_z,linear_acceleration_covariance_0,linear_acceleration_covariance_1,linear_acceleration_covariance_2,linear_acceleration_covariance_3,linear_acceleration_covariance_4,linear_acceleration_covariance_5,linear_acceleration_covariance_6,linear_acceleration_covariance_7,linear_acceleration_covariance_8
2025/05/21 12:18:41.838146052,1747822721,775867772,mA1/imu,0.04223922234471466,0.9991071514610752,0.0007436860694710422,0.0004415043373791043,0.0,0.0,0.0,0.0,0.0,0.0,0.0,0.0,0.0,-0.00030073929079199076,1.8240402074136685e-05,-6.724219962584776e-06,0.0,0.0,0.0,0.0,0.0,0.0,0.0,0.0,0.0,0.007878132761517147,0.5504363559340653,9.810464620880015,0.0,0.0,0.0,0.0,0.0,0.0,0.0,0.0,0.0
2025/05/21 12:18:41.846536050,1747822721,828948193,mA1/imu,0.042239064590881226,0.9991071725066214,0.0007247288233075937,0.0004404956802873487,0.0,0.0,0.0,0.0,0.0,0.0,0.0,0.0,0.0,0.0012001013845786138,1.241148635448928e-05,-6.595691730808803e-06,0.0,0.0,0.0,0.0,0.0,0.0,0.0,0.0,0.0,0.007471521329867879,0.03087177609341039,9.809515343290077,0.0,0.0,0.0,0.0,0.0,0.0,0.0,0.0,0.0
2025/05/21 12:18:41.879675957,1747822721,879183769,mA1/imu,0.04223890436309092,0.9991071859089306,0.000715983341303292,0.00043976266122040813,0.0,0.0,0.0,0.0,0.0,0.0,0.0,0.0,0.0,0.0012151876567152904,6.954146170720086e-06,-6.486528565859486e-06,0.0,0.0,0.0,0.0,0.0,0.0,0.0,0.0,0.0,0.008239643481438966,0.0356142831787183,9.81173677049274,0.0,0.0,0.0,0.0,0.0,0.0,0.0,0.0,0.0
2025/05/21 12:18:41.935412261,1747822721,934913174,mA1/imu,0.042238745289609525,0.9991071967337869,0.0007106835233426747,0.0004390444661894177,0.0,0.0,0.0,0.0,0.0,0.0,0.0,0.0,0.0,0.0012481259722172844,1.3393514421529253e-05,-6.37028816604082e-06,0.0,0.0,0.0,0.0,0.0,0.0,0.0,0.0,0.0,0.007753248912840273,-0.5804787081481758,9.81067175721326,0.0,0.0,0.0,0.0,0.0,0.0,0.0,0.0,0.0
2025/05/21 12:18:41.982807282,1747822721,982390786,mA1/imu,0.04223858752560487,0.9991072045612805,0.0007094185346863076,0.00043845516035134736,0.0,0.0,0.0,0.0,0.0,0.0,0.0,0.0,0.0,-0.00047738091647988885,1.998684875341286e-05,-6.288750021193381e-06,0.0,0.0,0.0,0.0,0.0,0.0,0.0,0.0,0.0,0.008301323655397059,-0.0612203383762889,9.80901385599074,0.0,0.0,0.0,0.0,0.0,0.0,0.0,0.0,0.0
2025/05/21 12:18:42.34446231,1747822722,34174561,mA1/imu,0.04223843520939356,0.9991072153674543,0.0007037242339868071,0.0004376801979541694,0.0,0.0,0.0,0.0,0.0,0.0,0.0,0.0,0.0,-0.0007434590843773046,2.6049213096133906e-05,-6.157436923591734e-06,0.0,0.0,0.0,0.0,0.0,0.0,0.0,0.0,0.0,0.008293769793664986,-0.07003602998993819,9.809325603640653,0.0,0.0,0.0,0.0,0.0,0.0,0.0,0.0,0.0
2025/05/21 12:18:42.85004503,1747822722,84829418,mA1/imu,0.04223828495946925,0.9991072238888422,0.0007010218126893987,0.00043706433363411293,0.0,0.0,0.0,0.0,0.0,0.0,0.0,0.0,0.0,-0.0010262730971997225,3.1154743882496705e-05,-6.026975811029871e-06,0.0,0.0,0.0,0.0,0.0,0.0,0.0,0.0,0.0,0.00790729247691657,0.5503381880140152,9.810767702757186,0.0,0.0,0.0,0.0,0.0,0.0,0.0,0.0,0.0
2025/05/21 12:18:42.127943985,1747822722,127742447,mA1/imu,0.04223813697673817,0.999107230238696,0.0007011565248788663,0.0004366337401772452,0.0,0.0,0.0,0.0,0.0,0.0,0.0,0.0,0.0,0.00041428284489509223,1.8823013628985347e-05,-5.838592548997798e-06,0.0,0.0,0.0,0.0,0.0,0.0,0.0,0.0,0.0,0.007497527217977912,0.03086658302688454,9.809673512912335,0.0,0.0,0.0,0.0,0.0,0.0,0.0,0.0,0.0
2025/05/21 12:18:42.177774594,1747822722,177601485,mA1/imu,0.042237987156738946,0.9991072285363566,0.0007124815572906102,0.00043668910944644776,0.0,0.0,0.0,0.0,0.0,0.0,0.0,0.0,0.0,0.0004043115026690303,6.631383343000734e-06,-5.70768511459132e-06,0.0,0.0,0.0,0.0,0.0,0.0,0.0,0.0,0.0,0.008265604828018162,0.03559973927736684,9.811827300048801,0.0,0.0,0.0,0.0,0.0,0.0,0.0,0.0,0.0
2025/05/21 12:18:42.228798260,1747822722,228587068,mA1/imu,0.042237838620812304,0.9991072240245412,0.0007273071713583214,0.0004369380918643974,0.0,0.0,0.0,0.0,0.0,0.0,0.0,0.0,0.0,0.0004508366571277869,6.047422012228143e-06,-5.6051427352833e-06,0.0,0.0,0.0,0.0,0.0,0.0,0.0,0.0,0.0,0.007774057590587967,-0.5803639346050778,9.81055838837924,0.0,0.0,0.0,0.0,0.0,0.0,0.0,0.0,0.0
2025/05/21 12:18:42.278652470,1747822722,278470617,mA1/imu,0.04223769128725066,0.9991072167594818,0.0007453154502364816,0.00043744568181748,0.0,0.0,0.0,0.0,0.0,0.0,0.0,0.0,0.0,-0.0012267958125143999,6.2946891391825895e-06,-5.539194441361345e-06,0.0,0.0,0.0,0.0,0.0,0.0,0.0,0.0,0.0,0.008316973694857814,-0.061131281014825234,9.808897058589293,0.0,0.0,0.0,0.0,0.0,0.0,0.0,0.0,0.0
2025/05/21 12:18:42.330020049,1747822722,329499076,mA1/imu,0.04223754920121273,0.9991072136902139,0.0007571609307009189,0.00043783213380075713,0.0,0.0,0.0,0.0,0.0,0.0,0.0,0.0,0.0,-0.001410370457247756,7.229494078451949e-06,-5.477599185923751e-06,0.0,0.0,0.0,0.0,0.0,0.0,0.0,0.0,0.0,0.00831330136155908,-0.06985686637334565,9.809110538990582,0.0,0.0,0.0,0.0,0.0,0.0,0.0,0.0,0.0
2025/05/21 12:18:42.379449126,1747822722,379308906,mA1/imu,0.042237408532884664,0.9991072101524767,0.0007692633021990747,0.00043837852662640455,0.0,0.0,0.0,0.0,0.0,0.0,0.0,0.0,0.0,-0.0015392990818466892,8.254149575211672e-06,-5.44013723464731e-06,0.0,0.0,0.0,0.0,0.0,0.0,0.0,0.0,0.0,0.0079008090470785,0.5352920064125928,9.81054892895118,0.0,0.0,0.0,0.0,0.0,0.0,0.0,0.0,0.0
2025/05/21 12:18:42.430802568,1747822722,430358436,mA1/imu,0.04223726890398031,0.9991072070166253,0.0007805615095705786,0.0004390064929888941,0.0,0.0,0.0,0.0,0.0,0.0,0.0,0.0,0.0,1.439414614467338e-05,-4.816892151340103e-06,-5.379747432339769e-06,0.0,0.0,0.0,0.0,0.0,0.0,0.0,0.0,0.0,0.007484863640505996,0.03231651196738827,9.809344227314797,0.0,0.0,0.0,0.0,0.0,0.0,0.0,0.0,0.0
2025/05/21 12:18:42.480690996,1747822722,480354579,mA1/imu,0.04223712557577349,0.9991071974707821,0.0007997440816161765,0.00043999384069083255,0.0,0.0,0.0,0.0,0.0,0.0,0.0,0.0,0.0,0.00014742215685916,-1.7301997592806216e-05,-5.379678183390452e-06,0.0,0.0,0.0,0.0,0.0,0.0,0.0,0.0,0.0,0.008248241304161356,0.03629650058596417,9.81144700878457,0.0,0.0,0.0,0.0,0.0,0.0,0.0,0.0,0.0
2025/05/21 12:18:42.533211090,1747822722,531772082,mA1/imu,0.04223786044789115,0.9991071506909719,0.0008185306117137499,0.0004411242337290826,0.0,0.0,0.0,0.0,0.0,0.0,0.0,0.0,0.0,0.00035843369116699654,-3.950414612417545e-05,8.369219025835606e-05,0.0,0.0,0.0,0.0,0.0,0.0,0.0,0.0,0.0,0.00976886845969769,-0.5764122882003474,9.811361162767659,0.0,0.0,0.0,0.0,0.0,0.0,0.0,0.0,0.0
2025/05/21 12:18:42.581789948,1747822722,581619144,mA1/imu,0.04224070118021896,0.9991070150820097,0.0008361485120694174,0.0004432080615625657,0.0,0.0,0.0,0.0,0.0,0.0,0.0,0.0,0.0,-0.0011471332888350378,-5.53731912956862e-05,0.00011280175604510787,0.0,0.0,0.0,0.0,0.0,0.0,0.0,0.0,0.0,0.008273766298749466,-0.06111682931412524,9.808654289938845,0.0,0.0,0.0,0.0,0.0,0.0,0.0,0.0,0.0
2025/05/21 12:18:42.633931656,1747822722,633689978,mA1/imu,0.04224347561261576,0.9991068909155693,0.0008434571126060496,0.00044482950690462233,0.0,0.0,0.0,0.0,0.0,0.0,0.0,0.0,0.0,-0.0011661549464530962,-4.651738637834668e-05,0.00011012757700099672,0.0,0.0,0.0,0.0,0.0,0.0,0.0,0.0,0.0,0.008253974845227264,-0.06984437784359344,9.808908172254952,0.0,0.0,0.0,0.0,0.0,0.0,0.0,0.0,0.0
2025/05/21 12:18:42.683503804,1747822722,683272604,mA1/imu,0.04224618284089073,0.999106772539637,0.000847345532198146,0.00044621334941456905,0.0,0.0,0.0,0.0,0.0,0.0,0.0,0.0,0.0,-0.0011852930499911033,-3.471244213907643e-05,0.00010748487029272156,0.0,0.0,0.0,0.0,0.0,0.0,0.0,0.0,0.0,0.00786034516359054,0.5506536901733226,9.810233227728158,0.0,0.0,0.0,0.0,0.0,0.0,0.0,0.0,0.0
2025/05/21 12:18:42.735219029,1747822722,734985851,mA1/imu,0.04224882744518261,0.9991066601843807,0.0008474104749384604,0.00044726972478876517,0.0,0.0,0.0,0.0,0.0,0.0,0.0,0.0,0.0,0.0005224432226235513,-3.6251614161547386e-05,0.0001048414338564154,0.0,0.0,0.0,0.0,0.0,0.0,0.0,0.0,0.0,0.0074410730186569695,0.031142367746150586,9.809117221005891,0.0,0.0,0.0,0.0,0.0,0.0,0.0,0.0,0.0
2025/05/21 12:18:42.784797791,1747822722,784470716,mA1/imu,0.04225141003522712,0.9991065466069162,0.0008520410111749982,0.0004482224361934079,0.0,0.0,0.0,0.0,0.0,0.0,0.0,0.0,0.0,0.0007731580820467957,-3.475867223079682e-05,0.00010240813149619663,0.0,0.0,0.0,0.0,0.0,0.0,0.0,0.0,0.0,0.008185186175601905,0.035826292230520584,9.811290857023936,0.0,0.0,0.0,0.0,0.0,0.0,0.0,0.0,0.0
2025/05/21 12:18:42.835629373,1747822722,835433390,mA1/imu,0.04225393783761798,0.9991064378901938,0.0008538993869477246,0.00044873089922916096,0.0,0.0,0.0,0.0,0.0,0.0,0.0,0.0,0.0,0.0010620048060502219,-2.005391595959016e-05,0.00010038201237079631,0.0,0.0,0.0,0.0,0.0,0.0,0.0,0.0,0.0,0.00770010632941661,-0.5802937866729634,9.810298430251498,0.0,0.0,0.0,0.0,0.0,0.0,0.0,0.0,0.0
2025/05/21 12:18:42.885826951,1747822722,885616877,mA1/imu,0.042256414833963356,0.9991063335985674,0.0008532865887648873,0.0004488547712428947,0.0,0.0,0.0,0.0,0.0,0.0,0.0,0.0,0.0,-0.00039963375436057145,-3.281789777272647e-06,9.839432691392915e-05,0.0,0.0,0.0,0.0,0.0,0.0,0.0,0.0,0.0,0.008248990826291642,-0.06102340274057903,9.808707944542558,0.0,0.0,0.0,0.0,0.0,0.0,0.0,0.0,0.0
2025/05/21 12:18:42.926893647,1747822722,926680507,mA1/imu,0.042258849145022044,0.9991062407038529,0.0008417470542619538,0.0004482381615850087,0.0,0.0,0.0,0.0,0.0,0.0,0.0,0.0,0.0,-0.00040723207028784634,1.4426827410687354e-05,9.650947136398325e-05,0.0,0.0,0.0,0.0,0.0,0.0,0.0,0.0,0.0,0.008248443352719657,-0.0699087845166275,9.809073309056691,0.0,0.0,0.0,0.0,0.0,0.0,0.0,0.0,0.0
2025/05/21 12:18:42.976787735,1747822722,976535780,mA1/imu,0.042261239817746925,0.9991061523564809,0.0008269955259579359,0.00044722577651279107,0.0,0.0,0.0,0.0,0.0,0.0,0.0,0.0,0.0,-0.00044695920868287445,3.141334841465347e-05,9.472043216064409e-05,0.0,0.0,0.0,0.0,0.0,0.0,0.0,0.0,0.0,0.007854756999499933,0.5506159004082625,9.810378976639878,0.0,0.0,0.0,0.0,0.0,0.0,0.0,0.0,0.0
2025/05/21 12:18:43.27963066,1747822723,27590685,mA1/imu,0.042263588528129135,0.9991060679675049,0.0008094656192225214,0.00044587066249291427,0.0,0.0,0.0,0.0,0.0,0.0,0.0,0.0,0.0,0.0012055425667917927,3.0369640452395195e-05,9.306976996385645e-05,0.0,0.0,0.0,0.0,0.0,0.0,0.0,0.0,0.0,0.007460813904562137,0.03103988551004972,9.80939828599972,0.0,0.0,0.0,0.0,0.0,0.0,0.0,0.0,0.0
2025/05/21 12:18:43.77707653,1747822723,77416381,mA1/imu,0.04226589228780492,0.9991059800777526,0.000798323585017857,0.00044452383827393144,0.0,0.0,0.0,0.0,0.0,0.0,0.0,0.0,0.0,0.0013715824914181268,2.890425345938217e-05,9.144889086726746e-05,0.0,0.0,0.0,0.0,0.0,0.0,0.0,0.0,0.0,0.008223730058542083,0.03573732330322624,9.811615649312857,0.0,0.0,0.0,0.0,0.0,0.0,0.0,0.0,0.0
2025/05/21 12:18:43.128755904,1747822723,128618604,mA1/imu,0.04226815568195228,0.9991058940554375,0.0007869309774131427,0.00044296565070402655,0.0,0.0,0.0,0.0,0.0,0.0,0.0,0.0,0.0,0.001548053050323488,3.742390170327067e-05,8.986222609376815e-05,0.0,0.0,0.0,0.0,0.0,0.0,0.0,0.0,0.0,0.007748246775016553,-0.5804613472177368,9.810730956050936,0.0,0.0,0.0,0.0,0.0,0.0,0.0,0.0,0.0
2025/05/21 12:18:43.178833238,1747822723,178501338,mA1/imu,0.04227037991397278,0.9991058090835148,0.0007761692236349159,0.00044136021569442154,0.0,0.0,0.0,0.0,0.0,0.0,0.0,0.0,0.0,-4.616093824427826e-05,4.466536312686944e-05,8.82766371308899e-05,0.0,0.0,0.0,0.0,0.0,0.0,0.0,0.0,0.0,0.008298179870548943,-0.06119659336629188,9.809086616005477,0.0,0.0,0.0,0.0,0.0,0.0,0.0,0.0,0.0
2025/05/21 12:18:43.232852865,1747822723,232153776,mA1/imu,0.04227214501960585,0.9991057487816413,0.0007580779952456438,0.00044025523311241985,0.0,0.0,0.0,0.0,0.0,0.0,0.0,0.0,0.0,-0.00021786920045848348,-0.00011189126843930449,1.5966787806997542e-06,0.0,0.0,0.0,0.0,0.0,0.0,0.0,0.0,0.0,0.031746682579904574,-0.07234204298106481,9.807531094712662,0.0,0.0,0.0,0.0,0.0,0.0,0.0,0.0,0.0
2025/05/21 12:18:43.282226786,1747822723,281821524,mA1/imu,0.042269558453462384,0.9991058679727884,0.0007409699456952313,0.00044718455908185735,0.0,0.0,0.0,0.0,0.0,0.0,0.0,0.0,0.0,-0.00042821314697859476,-0.0002985629627196846,-0.00011223156418856043,0.0,0.0,0.0,0.0,0.0,0.0,0.0,0.0,0.0,0.00751542635387196,0.5506904709722817,9.810701245362422,0.0,0.0,0.0,0.0,0.0,0.0,0.0,0.0,0.0
2025/05/21 12:18:43.333181660,1747822723,332899064,mA1/imu,0.0422668058870918,0.9991059931856062,0.0007250179300202218,0.0004537066315431249,0.0,0.0,0.0,0.0,0.0,0.0,0.0,0.0,0.0,0.0010671130659772612,-0.00026712671012861196,-0.0001096759539982673,0.0,0.0,0.0,0.0,0.0,0.0,0.0,0.0,0.0,0.007025358054459,0.031112969996589093,9.809708667645577,0.0,0.0,0.0,0.0,0.0,0.0,0.0,0.0,0.0
2025/05/21 12:18:43.382799170,1747822723,382597020,mA1/imu,0.042264110050529956,0.9991061087770027,0.0007193091025656551,0.0004593479375875481,0.0,0.0,0.0,0.0,0.0,0.0,0.0,0.0,0.0,0.0010832260330243982,-0.00022012938875451773,-0.00010710912048526163,0.0,0.0,0.0,0.0,0.0,0.0,0.0,0.0,0.0,0.007736851316567014,0.03547536266193427,9.811877078054803,0.0,0.0,0.0,0.0,0.0,0.0,0.0,0.0,0.0
2025/05/21 12:18:43.433723067,1747822723,433585470,mA1/imu,0.04226147344577023,0.9991062200939094,0.0007169360297040869,0.00046350251630420856,0.0,0.0,0.0,0.0,0.0,0.0,0.0,0.0,0.0,0.0011250351308703397,-0.0001495632336419558,-0.00010464780189391893,0.0,0.0,0.0,0.0,0.0,0.0,0.0,0.0,0.0,0.0072204994185245605,-0.5806412722659638,9.810910392692252,0.0,0.0,0.0,0.0,0.0,0.0,0.0,0.0,0.0
2025/05/21 12:18:43.484210295,1747822723,483428000,mA1/imu,0.04225889646168772,0.9991063268916565,0.0007183602061218467,0.0004660402525177859,0.0,0.0,0.0,0.0,0.0,0.0,0.0,0.0,0.0,-0.0005846515407995363,-7.126180054920248e-05,-0.00010227514290422348,0.0,0.0,0.0,0.0,0.0,0.0,0.0,0.0,0.0,0.007815189568402117,-0.061407203819266565,9.809210890722822,0.0,0.0,0.0,0.0,0.0,0.0,0.0,0.0,0.0
2025/05/21 12:18:43.534945675,1747822723,534749021,mA1/imu,0.04225638417877103,0.9991064353514153,0.000714996100339018,0.00046649340936617774,0.0,0.0,0.0,0.0,0.0,0.0,0.0,0.0,0.0,-0.0008296502937761601,1.1099757731453202e-05,-9.976142355559149e-05,0.0,0.0,0.0,0.0,0.0,0.0,0.0,0.0,0.0,0.007834861595794851,-0.07020266033440455,9.809442419763425,0.0,0.0,0.0,0.0,0.0,0.0,0.0,0.0,0.0
2025/05/21 12:18:43.585299331,1747822723,585146602,mA1/imu,0.04225393313945714,0.9991065402241419,0.0007141499834682206,0.0004651939301673628,0.0,0.0,0.0,0.0,0.0,0.0,0.0,0.0,0.0,-0.001087346637337205,9.114823746980359e-05,-9.724432759281126e-05,0.0,0.0,0.0,0.0,0.0,0.0,0.0,0.0,0.0,0.00749264203358542,0.5505280907180944,9.810652901713604,0.0,0.0,0.0,0.0,0.0,0.0,0.0,0.0,0.0
2025/05/21 12:18:43.626256151,1747822723,626059777,mA1/imu,0.042251541934490135,0.9991066416922362,0.0007155738890239546,0.00046226034741492244,0.0,0.0,0.0,0.0,0.0,0.0,0.0,0.0,0.0,0.0003789123369735216,0.00014815340828341482,-9.465325908529409e-05,0.0,0.0,0.0,0.0,0.0,0.0,0.0,0.0,0.0,0.007152999674750956,0.03104238194440001,9.809465873417945,0.0,0.0,0.0,0.0,0.0,0.0,0.0,0.0,0.0
2025/05/21 12:18:43.676094557,1747822723,675923132,mA1/imu,0.042249204084157534,0.9991067337901204,0.0007275390853843163,0.00045818814040671024,0.0,0.0,0.0,0.0,0.0,0.0,0.0,0.0,0.0,0.0003968231725735657,0.00019614492775350906,-9.209238986996983e-05,0.0,0.0,0.0,0.0,0.0,0.0,0.0,0.0,0.0,0.00792250556799682,0.03558930786071375,9.811554410510194,0.0,0.0,0.0,0.0,0.0,0.0,0.0,0.0,0.0
2025/05/21 12:18:43.727093603,1747822723,726905031,mA1/imu,0.04224692183243041,0.9991068218056507,0.0007423196760609912,0.00045296643876092843,0.0,0.0,0.0,0.0,0.0,0.0,0.0,0.0,0.0,0.00047195730319806215,0.0002422439250727985,-8.991100468928809e-05,0.0,0.0,0.0,0.0,0.0,0.0,0.0,0.0,0.0,0.0075466230690701755,-0.5804280315620275,9.810401393060403,0.0,0.0,0.0,0.0,0.0,0.0,0.0,0.0,0.0
2025/05/21 12:18:43.776975441,1747822723,776758282,mA1/imu,0.04224469336624496,0.9991069057323957,0.0007595934101693585,0.00044701015763046187,0.0,0.0,0.0,0.0,0.0,0.0,0.0,0.0,0.0,-0.0011763343825717616,0.00027506193418985503,-8.77944235018269e-05,0.0,0.0,0.0,0.0,0.0,0.0,0.0,0.0,0.0,0.008136780578377922,-0.06120573962299059,9.808706989480841,0.0,0.0,0.0,0.0,0.0,0.0,0.0,0.0,0.0
2025/05/21 12:18:43.828160433,1747822723,827835136,mA1/imu,0.04224252059556419,0.999106992551596,0.0007700511883321522,0.00044035145711790767,0.0,0.0,0.0,0.0,0.0,0.0,0.0,0.0,0.0,-0.0013325504207261723,0.0002912637512608489,-8.58536458258805e-05,0.0,0.0,0.0,0.0,0.0,0.0,0.0,0.0,0.0,0.008242886519544055,-0.069931741279403,9.808916954472387,0.0,0.0,0.0,0.0,0.0,0.0,0.0,0.0,0.0
2025/05/21 12:18:43.877849835,1747822723,877591604,mA1/imu,0.04224039755324173,0.9991070771995473,0.000780388427665886,0.00043370292129449057,0.0,0.0,0.0,0.0,0.0,0.0,0.0,0.0,0.0,-0.0014802666936806982,0.0002911512625253233,-8.404199449150114e-05,0.0,0.0,0.0,0.0,0.0,0.0,0.0,0.0,0.0,0.00785795050148849,0.5505939649756562,9.81019272368858,0.0,0.0,0.0,0.0,0.0,0.0,0.0,0.0,0.0
2025/05/21 12:18:43.928930262,1747822723,928713763,mA1/imu,0.04223832176359592,0.9991071602015685,0.0007898681341642174,0.00042745395366815443,0.0,0.0,0.0,0.0,0.0,0.0,0.0,0.0,0.0,0.00011441680776863839,0.00025785103055199715,-8.206871395837857e-05,0.0,0.0,0.0,0.0,0.0,0.0,0.0,0.0,0.0,0.007536474439125021,0.031139759208995685,9.809035834321024,0.0,0.0,0.0,0.0,0.0,0.0,0.0,0.0,0.0
2025/05/21 12:18:43.978702221,1747822723,978444808,mA1/imu,0.04223628668866269,0.9991072352206646,0.0008064309478837482,0.000422238793965657,0.0,0.0,0.0,0.0,0.0,0.0,0.0,0.0,0.0,0.0002710273524523292,0.00021150377618144492,-8.019825067057649e-05,0.0,0.0,0.0,0.0,0.0,0.0,0.0,0.0,0.0,0.008317015655911402,0.035779561783769696,9.81118675245064,0.0,0.0,0.0,0.0,0.0,0.0,0.0,0.0,0.0
2025/05/21 12:18:44.29798667,1747822724,29532829,mA1/imu,0.04223429425246993,0.9991073083680655,0.0008221747472411628,0.00041807080756439674,0.0,0.0,0.0,0.0,0.0,0.0,0.0,0.0,0.0,0.0004891322877180101,0.00016507717598415812,-7.854827339820453e-05,0.0,0.0,0.0,0.0,0.0,0.0,0.0,0.0,0.0,0.007876002871990766,-0.580274458742567,9.81014248058999,0.0,0.0,0.0,0.0,0.0,0.0,0.0,0.0,0.0
2025/05/21 12:18:44.82600048,1747822724,82006427,mA1/imu,0.04223234513741719,0.9991073798229378,0.000836761493295007,0.00041525623574228965,0.0,0.0,0.0,0.0,0.0,0.0,0.0,0.0,0.0,-0.0010182087652456525,0.00011109769976291711,-7.701709686257831e-05,0.0,0.0,0.0,0.0,0.0,0.0,0.0,0.0,0.0,0.0084230118194665,-0.06106102124051311,9.808561982671314,0.0,0.0,0.0,0.0,0.0,0.0,0.0,0.0,0.0
2025/05/21 12:18:44.133506477,1747822724,133104125,mA1/imu,0.04223044431777833,0.9991074572756473,0.0008410374874055174,0.0004135756982835972,0.0,0.0,0.0,0.0,0.0,0.0,0.0,0.0,0.0,-0.0010418328520361447,5.309970616342282e-05,-7.543911285408868e-05,0.0,0.0,0.0,0.0,0.0,0.0,0.0,0.0,0.0,0.008417317646801606,-0.06987780718792087,9.808912371777936,0.0,0.0,0.0,0.0,0.0,0.0,0.0,0.0,0.0
2025/05/21 12:18:44.184092812,1747822724,183751991,mA1/imu,0.042228584982492025,0.9991075351109513,0.0008420140837216973,0.0004134092144640803,0.0,0.0,0.0,0.0,0.0,0.0,0.0,0.0,0.0,-0.0010704432780664832,-6.6728407243873674e-06,-7.395027233440361e-05,0.0,0.0,0.0,0.0,0.0,0.0,0.0,0.0,0.0,0.00803818769150298,0.5507795054629153,9.810271674209943,0.0,0.0,0.0,0.0,0.0,0.0,0.0,0.0,0.0
2025/05/21 12:18:44.235287917,1747822724,234828929,mA1/imu,0.04222676529997926,0.9991076136639909,0.0008394134961323765,0.0004147239183146933,0.0,0.0,0.0,0.0,0.0,0.0,0.0,0.0,0.0,0.0006223286637441777,-7.91644158117582e-05,-7.232288277572347e-05,0.0,0.0,0.0,0.0,0.0,0.0,0.0,0.0,0.0,0.007577655401476892,0.03128954462399136,9.809256222494552,0.0,0.0,0.0,0.0,0.0,0.0,0.0,0.0,0.0
2025/05/21 12:18:44.285905465,1747822724,285014122,mA1/imu,0.04222497905796916,0.9991076859650794,0.0008417421897450179,0.00041768306690764465,0.0,0.0,0.0,0.0,0.0,0.0,0.0,0.0,0.0,0.0008537973547311952,-0.0001447572557876886,-7.090289143708926e-05,0.0,0.0,0.0,0.0,0.0,0.0,0.0,0.0,0.0,0.00824737458459736,0.03574523452828231,9.8114903717116,0.0,0.0,0.0,0.0,0.0,0.0,0.0,0.0,0.0
2025/05/21 12:18:44.326331403,1747822724,326143805,mA1/imu,0.042222450505811665,0.9991077903604185,0.0008419429906696538,0.00042313875593836067,0.0,0.0,0.0,0.0,0.0,0.0,0.0,0.0,0.0,0.0011000584386747579,-0.00032579160658645237,-0.00014764666811838695,0.0,0.0,0.0,0.0,0.0,0.0,0.0,0.0,0.0,0.014269072612977728,-0.5830632189517395,9.811080146327228,0.0,0.0,0.0,0.0,0.0,0.0,0.0,0.0,0.0
2025/05/21 12:18:44.376176570,1747822724,375873746,mA1/imu,0.042217013914341454,0.9991080164710212,0.0008405268905944997,0.0004343662553955895,0.0,0.0,0.0,0.0,0.0,0.0,0.0,0.0,0.0,-0.00041216501361163524,-0.0005437625014686772,-0.00026562037410633656,0.0,0.0,0.0,0.0,0.0,0.0,0.0,0.0,0.0,0.014995690336521603,-0.06403620999055319,9.80832135430613,0.0,0.0,0.0,0.0,0.0,0.0,0.0,0.0,0.0
2025/05/21 12:18:44.427769426,1747822724,427443136,mA1/imu,0.042208643405368465,0.9991083726817588,0.0008291241674701158,0.0004501246508613098,0.0,0.0,0.0,0.0,0.0,0.0,0.0,0.0,0.0,-0.0004603964465327164,-0.000706721117899388,-0.0003804465100635271,0.0,0.0,0.0,0.0,0.0,0.0,0.0,0.0,0.0,0.014389563753971758,-0.07290494770820616,9.80872846572135,0.0,0.0,0.0,0.0,0.0,0.0,0.0,0.0,0.0
2025/05/21 12:18:44.477554691,1747822724,477272062,mA1/imu,0.04219741767155504,0.9991088491742145,0.0008155055834222172,0.00046946168372535586,0.0,0.0,0.0,0.0,0.0,0.0,0.0,0.0,0.0,-0.0005375085837329519,-0.0008166755161505878,-0.000492237794064866,0.0,0.0,0.0,0.0,0.0,0.0,0.0,0.0,0.0,0.011941597025759582,0.5497710808470803,9.810730034690904,0.0,0.0,0.0,0.0,0.0,0.0,0.0,0.0,0.0
2025/05/21 12:18:44.528734620,1747822724,528482722,mA1/imu,0.042183417825906004,0.9991094425361291,0.0008000623026627989,0.0004909134162577257,0.0,0.0,0.0,0.0,0.0,0.0,0.0,0.0,0.0,0.0010732259328601482,-0.0008962765034793075,-0.0006047804786482489,0.0,0.0,0.0,0.0,0.0,0.0,0.0,0.0,0.0,0.010952255555715752,0.030369193961349995,9.809768765964936,0.0,0.0,0.0,0.0,0.0,0.0,0.0,0.0,0.0
2025/05/21 12:18:44.578352868,1747822724,578167598,mA1/imu,0.04216673763034039,0.9991101420292111,0.0007918216367220731,0.0005131768498011645,0.0,0.0,0.0,0.0,0.0,0.0,0.0,0.0,0.0,0.0012037579518121273,-0.0009162162871373668,-0.0007144542890145305,0.0,0.0,0.0,0.0,0.0,0.0,0.0,0.0,0.0,0.01295060813598298,0.033365586108906733,9.812440605408309,0.0,0.0,0.0,0.0,0.0,0.0,0.0,0.0,0.0
2025/05/21 12:18:44.629472770,1747822724,629114928,mA1/imu,0.04214515467948082,0.9991110454257351,0.0007846614343646696,0.0005377283426671517,0.0,0.0,0.0,0.0,0.0,0.0,0.0,0.0,0.0,0.001278335555623948,-0.0011580185112516211,-0.0010485528218450195,0.0,0.0,0.0,0.0,0.0,0.0,0.0,0.0,0.0,0.024489412563789604,-0.5949189095153823,9.813074539981859,0.0,0.0,0.0,0.0,0.0,0.0,0.0,0.0,0.0
2025/05/21 12:18:44.679710222,1747822724,679526453,mA1/imu,0.04211190753234605,0.9991124307135538,0.0007828458355318397,0.0005702543633680222,0.0,0.0,0.0,0.0,0.0,0.0,0.0,0.0,0.0,-0.0005132840185039265,-0.001436861558533684,-0.0015200505609163338,0.0,0.0,0.0,0.0,0.0,0.0,0.0,0.0,0.0,0.02830320353457788,-0.08084905817639132,9.807565559756409,0.0,0.0,0.0,0.0,0.0,0.0,0.0,0.0,0.0
2025/05/21 12:18:44.730580436,1747822724,730482013,mA1/imu,0.04206808939285785,0.9991142611710311,0.0007748009846247976,0.0006071761964848177,0.0,0.0,0.0,0.0,0.0,0.0,0.0,0.0,0.0,-0.000677597078912186,-0.0014943234020994283,-0.001885323291862105,0.0,0.0,0.0,0.0,0.0,0.0,0.0,0.0,0.0,0.027399858436119244,-0.0855761827312264,9.807713535259662,0.0,0.0,0.0,0.0,0.0,0.0,0.0,0.0,0.0
2025/05/21 12:18:44.780393115,1747822724,780111202,mA1/imu,0.042014644690222196,0.9991164858749461,0.0007748062685179986,0.0006457241668174426,0.0,0.0,0.0,0.0,0.0,0.0,0.0,0.0,0.0,-0.00120450000372631,-0.001511826333092271,-0.0023006654575933165,0.0,0.0,0.0,0.0,0.0,0.0,0.0,0.0,0.0,0.020545622380751326,-0.1092316945959535,9.811105919623529,0.0,0.0,0.0,0.0,0.0,0.0,0.0,0.0,0.0
2025/05/21 12:18:44.831289805,1747822724,831190143,mA1/imu,0.041956341977112545,0.9991189189665391,0.0007704713252759469,0.0006763911373333225,0.0,0.0,0.0,0.0,0.0,0.0,0.0,0.0,0.0,-0.00203144412797986,-0.0010064038382553559,-0.002356022392219046,0.0,0.0,0.0,0.0,0.0,0.0,0.0,0.0,0.0,0.008838791946208723,0.4695094957233005,9.81093946265633,0.0,0.0,0.0,0.0,0.0,0.0,0.0,0.0,0.0
2025/05/21 12:18:44.881534493,1747822724,881192015,mA1/imu,0.04189686294836783,0.9991214131318314,0.0007581160599375404,0.0006927889847258241,0.0,0.0,0.0,0.0,0.0,0.0,0.0,0.0,0.0,8.956517304524922e-05,-0.0004338301220283505,-0.0024041831076759665,0.0,0.0,0.0,0.0,0.0,0.0,0.0,0.0,0.0,0.008281111719580354,0.07379369597690305,9.811468003977623,0.0,0.0,0.0,0.0,0.0,0.0,0.0,0.0,0.0
2025/05/21 12:18:44.934913649,1747822724,934597530,mA1/imu,0.04183944615879837,0.9991238203943891,0.0007578888918663254,0.00069128147176121,0.0,0.0,0.0,0.0,0.0,0.0,0.0,0.0,0.0,0.0009200099910855989,0.0005287460296173796,-0.0021192116558148206,0.0,0.0,0.0,0.0,0.0,0.0,0.0,0.0,0.0,-0.012923665042306734,0.11334825586404147,9.810672693460578,0.0,0.0,0.0,0.0,0.0,0.0,0.0,0.0,0.0
2025/05/21 12:18:44.984917177,1747822724,984290081,mA1/imu,0.041790121527917785,0.9991259004209149,0.0007613841904088117,0.0006641873926142997,0.0,0.0,0.0,0.0,0.0,0.0,0.0,0.0,0.0,0.00020870497812512212,0.001365493541378371,-0.0019379849086719975,0.0,0.0,0.0,0.0,0.0,0.0,0.0,0.0,0.0,0.0028351595859265923,-0.007496195242886862,9.808470711932179,0.0,0.0,0.0,0.0,0.0,0.0,0.0,0.0,0.0
2025/05/21 12:18:45.35885231,1747822725,35619955,mA1/imu,0.04173964965553604,0.9991280334036164,0.0007647084275713531,0.0006242873342968067,0.0,0.0,0.0,0.0,0.0,0.0,0.0,0.0,0.0,-0.0009981929571572547,0.0016313665822585784,-0.0021718029094501554,0.0,0.0,0.0,0.0,0.0,0.0,0.0,0.0,0.0,0.02205819787727965,0.40461344785096176,9.812096457362513,0.0,0.0,0.0,0.0,0.0,0.0,0.0,0.0,0.0
2025/05/21 12:18:45.85419907,1747822725,85230212,mA1/imu,0.04167902012363497,0.9991305906149169,0.0007625023020656711,0.000583754451924705,0.0,0.0,0.0,0.0,0.0,0.0,0.0,0.0,0.0,0.0009246158063720699,0.0015626788567151978,-0.0025953896923720777,0.0,0.0,0.0,0.0,0.0,0.0,0.0,0.0,0.0,0.023152585063038827,-0.5900596438911048,9.80763247154062,0.0,0.0,0.0,0.0,0.0,0.0,0.0,0.0,0.0
2025/05/21 12:18:45.127640892,1747822725,127411372,mA1/imu,0.041613540297779306,0.9991333467383963,0.0007600033167349038,0.0005395314403597984,0.0,0.0,0.0,0.0,0.0,0.0,0.0,0.0,0.0,0.000735701743321676,0.0018762698965060986,-0.0026369186937439375,0.0,0.0,0.0,0.0,0.0,0.0,0.0,0.0,0.0,0.007298576671182481,0.03930630578293498,9.810621030541288,0.0,0.0,0.0,0.0,0.0,0.0,0.0,0.0,0.0
2025/05/21 12:18:45.177126866,1747822725,176859800,mA1/imu,0.04154701603355304,0.9991361358014779,0.0007666098012050613,0.0004897997665648764,0.0,0.0,0.0,0.0,0.0,0.0,0.0,0.0,0.0,-0.0008770800865306705,0.0020749937976165486,-0.0026777323641412965,0.0,0.0,0.0,0.0,0.0,0.0,0.0,0.0,0.0,0.00789324462141891,0.5564262687931909,9.811154740932938,0.0,0.0,0.0,0.0,0.0,0.0,0.0,0.0,0.0
2025/05/21 12:18:45.228710084,1747822725,228271950,mA1/imu,0.041479650522512505,0.9991389521744974,0.0007755640949906667,0.00043742486433650315,0.0,0.0,0.0,0.0,0.0,0.0,0.0,0.0,0.0,-0.0008523402922624692,0.0021323890069985633,-0.00268341999974813,0.0,0.0,0.0,0.0,0.0,0.0,0.0,0.0,0.0,0.008552529056269038,-0.06869205672928846,9.809802378478379,0.0,0.0,0.0,0.0,0.0,0.0,0.0,0.0,0.0
2025/05/21 12:18:45.277902240,1747822725,277692017,mA1/imu,0.04141339521089113,0.9991417257057402,0.0007715413587780153,0.00038389424771333636,0.0,0.0,0.0,0.0,0.0,0.0,0.0,0.0,0.0,0.0010178265230502013,0.002110811901210796,-0.0026565472656317392,0.0,0.0,0.0,0.0,0.0,0.0,0.0,0.0,0.0,0.008310810109015378,-0.5731234063965089,9.808625046198433,0.0,0.0,0.0,0.0,0.0,0.0,0.0,0.0,0.0
2025/05/21 12:18:45.329383818,1747822725,328995335,mA1/imu,0.041346374479428204,0.9991445136786418,0.0007791380231979096,0.00033323747976353696,0.0,0.0,0.0,0.0,0.0,0.0,0.0,0.0,0.0,0.0012171831895204787,0.0019610825673435184,-0.0026964076619936024,0.0,0.0,0.0,0.0,0.0,0.0,0.0,0.0,0.0,0.007836467155901776,-0.5585834833244169,9.808001703404537,0.0,0.0,0.0,0.0,0.0,0.0,0.0,0.0,0.0
2025/05/21 12:18:45.378647271,1747822725,378487199,mA1/imu,0.04127843105414442,0.9991473381926875,0.0007779137022265022,0.00028733681889804954,0.0,0.0,0.0,0.0,0.0,0.0,0.0,0.0,0.0,-7.464700581239236e-05,0.0017371357110560577,-0.0027306478506470525,0.0,0.0,0.0,0.0,0.0,0.0,0.0,0.0,0.0,0.0077285128847184754,-0.020486782768676524,9.809863667271296,0.0,0.0,0.0,0.0,0.0,0.0,0.0,0.0,0.0
2025/05/21 12:18:45.430182910,1747822725,429844535,mA1/imu,0.04121067000378867,0.9991501437880403,0.000780454454930239,0.0002484693567693584,0.0,0.0,0.0,0.0,0.0,0.0,0.0,0.0,0.0,-1.2361953162671994e-05,0.0014344276660557662,-0.002672549069277334,0.0,0.0,0.0,0.0,0.0,0.0,0.0,0.0,0.0,0.007146901055926417,-0.013710804644792064,9.80965671815285,0.0,0.0,0.0,0.0,0.0,0.0,0.0,0.0,0.0
2025/05/21 12:18:45.479477163,1747822725,479319176,mA1/imu,0.04114419553325964,0.9991528890003235,0.0007822942476190971,0.0002181557659733609,0.0,0.0,0.0,0.0,0.0,0.0,0.0,0.0,0.0,-0.00034458681312493004,0.0010634037791082166,-0.0026708928475086776,0.0,0.0,0.0,0.0,0.0,0.0,0.0,0.0,0.0,0.007498406055527358,-0.040071577067434506,9.810198112197904,0.0,0.0,0.0,0.0,0.0,0.0,0.0,0.0,0.0
2025/05/21 12:18:45.530767000,1747822725,530489081,mA1/imu,0.04107699590875553,0.9991556622891032,0.0007769542296537007,0.0001981536292861977,0.0,0.0,0.0,0.0,0.0,0.0,0.0,0.0,0.0,0.0012235752840349364,0.0006110038013537324,-0.002701739462575395,0.0,0.0,0.0,0.0,0.0,0.0,0.0,0.0,0.0,0.0070426959169203815,-0.5608607607680749,9.80858315911214,0.0,0.0,0.0,0.0,0.0,0.0,0.0,0.0,0.0
2025/05/21 12:18:45.581241793,1747822725,580842665,mA1/imu,0.0410090780799826,0.9991584517894172,0.0007795250155926929,0.00018993039505813886,0.0,0.0,0.0,0.0,0.0,0.0,0.0,0.0,0.0,-0.00047677476620758285,0.00014980602196817264,-0.002729884394750228,0.0,0.0,0.0,0.0,0.0,0.0,0.0,0.0,0.0,0.007747975395128561,0.5790012961843525,9.810605828250548,0.0,0.0,0.0,0.0,0.0,0.0,0.0,0.0,0.0
2025/05/21 12:18:45.632325455,1747822725,632107597,mA1/imu,0.04094049167662451,0.9991612616704545,0.0007823128360750894,0.0001931450443750377,0.0,0.0,0.0,0.0,0.0,0.0,0.0,0.0,0.0,-0.0005067319240820798,-0.00029482968878033765,-0.002756217759446716,0.0,0.0,0.0,0.0,0.0,0.0,0.0,0.0,0.0,0.006497224662105255,-0.01578138230179204,9.809737299828997,0.0,0.0,0.0,0.0,0.0,0.0,0.0,0.0,0.0
2025/05/21 12:18:45.682126067,1747822725,681892044,mA1/imu,0.0408712733477775,0.9991640917669119,0.0007835596573385381,0.00020681585207959173,0.0,0.0,0.0,0.0,0.0,0.0,0.0,0.0,0.0,-0.0003016557444874391,-0.0006982308815726886,-0.0027805705987294714,0.0,0.0,0.0,0.0,0.0,0.0,0.0,0.0,0.0,0.005947709909831443,-0.0328168019643703,9.810105222235586,0.0,0.0,0.0,0.0,0.0,0.0,0.0,0.0,0.0
2025/05/21 12:18:45.733037970,1747822725,732769730,mA1/imu,0.040802321572559426,0.9991669082588472,0.000779464465775043,0.00022897574633142268,0.0,0.0,0.0,0.0,0.0,0.0,0.0,0.0,0.0,0.00041962915704726395,-0.0009998087360641424,-0.002720665541325231,0.0,0.0,0.0,0.0,0.0,0.0,0.0,0.0,0.0,0.004492087207200322,0.020749255230786884,9.810207064599032,0.0,0.0,0.0,0.0,0.0,0.0,0.0,0.0,0.0
2025/05/21 12:18:45.782894399,1747822725,782679278,mA1/imu,0.04073454411600969,0.9991696649363199,0.0007816019249229674,0.0002582346491748888,0.0,0.0,0.0,0.0,0.0,0.0,0.0,0.0,0.0,-0.0008324547362712608,-0.001261718529569383,-0.0027362930811973686,0.0,0.0,0.0,0.0,0.0,0.0,0.0,0.0,0.0,0.006423555487931566,0.5582724992080184,9.811863660460485,0.0,0.0,0.0,0.0,0.0,0.0,0.0,0.0,0.0
2025/05/21 12:18:45.833907638,1747822725,833594818,mA1/imu,0.04066380983777594,0.9991725341271023,0.0007834839037309286,0.000296257445962288,0.0,0.0,0.0,0.0,0.0,0.0,0.0,0.0,0.0,-0.000722868801828011,-0.0015192844966736738,-0.002820156223136628,0.0,0.0,0.0,0.0,0.0,0.0,0.0,0.0,0.0,-0.0015256429682602643,-0.063998176522673,9.810127774500137,0.0,0.0,0.0,0.0,0.0,0.0,0.0,0.0,0.0
2025/05/21 12:18:45.883798223,1747822725,883504163,mA1/imu,0.04059466632531203,0.9991753391987416,0.0007773204547396482,0.00033222872724150893,0.0,0.0,0.0,0.0,0.0,0.0,0.0,0.0,0.0,0.0008814136765767341,-0.0013923922162767763,-0.002735842163034476,0.0,0.0,0.0,0.0,0.0,0.0,0.0,0.0,0.0,-0.0017528926309539443,-0.5832652437661064,9.809328230387813,0.0,0.0,0.0,0.0,0.0,0.0,0.0,0.0,0.0
2025/05/21 12:18:45.935475648,1747822725,934892534,mA1/imu,0.040527597017388034,0.9991780553276088,0.0007716535415069655,0.0003635691767177118,0.0,0.0,0.0,0.0,0.0,0.0,0.0,0.0,0.0,0.0007642435759351568,-0.0011676986155482517,-0.0026535370786309126,0.0,0.0,0.0,0.0,0.0,0.0,0.0,0.0,0.0,-0.0031399961085108834,0.03799072158773931,9.810813009276846,0.0,0.0,0.0,0.0,0.0,0.0,0.0,0.0,0.0
2025/05/21 12:18:45.985169171,1747822725,984321020,mA1/imu,0.04046252932228228,0.9991806812039653,0.0007737997449056484,0.00038892618597685484,0.0,0.0,0.0,0.0,0.0,0.0,0.0,0.0,0.0,-0.0008094227094477903,-0.0008903678965011853,-0.0025737584596647466,0.0,0.0,0.0,0.0,0.0,0.0,0.0,0.0,0.0,-0.0024779563220298784,0.5566344553981014,9.811436831066397,0.0,0.0,0.0,0.0,0.0,0.0,0.0,0.0,0.0
2025/05/21 12:18:46.36897424,1747822726,35384504,mA1/imu,0.040398697354859174,0.999183255323988,0.0007752683359398934,0.00040803332714052954,0.0,0.0,0.0,0.0,0.0,0.0,0.0,0.0,0.0,-0.0006765112780359254,-0.0007021982762369181,-0.0025673752690246235,0.0,0.0,0.0,0.0,0.0,0.0,0.0,0.0,0.0,0.004713384523057225,-0.0680114328875382,9.809831649202177,0.0,0.0,0.0,0.0,0.0,0.0,0.0,0.0,0.0
2025/05/21 12:18:46.85469046,1747822726,85277330,mA1/imu,0.040335122368000804,0.9991858229653388,0.0007690469523246414,0.00042149190032635705,0.0,0.0,0.0,0.0,0.0,0.0,0.0,0.0,0.0,0.0009184089886688525,-0.00041427489279195626,-0.002515651345295374,0.0,0.0,0.0,0.0,0.0,0.0,0.0,0.0,0.0,-0.0022806060861768496,-0.5838405449117279,9.809231087812266,0.0,0.0,0.0,0.0,0.0,0.0,0.0,0.0,0.0
2025/05/21 12:18:46.126474382,1747822726,126266720,mA1/imu,0.04027393039955338,0.9991882936132517,0.000763509599149017,0.0004260158475912969,0.0,0.0,0.0,0.0,0.0,0.0,0.0,0.0,0.0,0.0008247455073780958,5.9285659300996114e-05,-0.002335658758077544,0.0,0.0,0.0,0.0,0.0,0.0,0.0,0.0,0.0,-0.024004286859760623,0.05277487294827132,9.811669941759016,0.0,0.0,0.0,0.0,0.0,0.0,0.0,0.0,0.0
2025/05/21 12:18:46.176246020,1747822726,176063462,mA1/imu,0.04022151236481462,0.9991904086520963,0.000764674234654534,0.0004152999624209959,0.0,0.0,0.0,0.0,0.0,0.0,0.0,0.0,0.0,-0.000701527231221064,0.0005703717202290015,-0.0020020377660829496,0.0,0.0,0.0,0.0,0.0,0.0,0.0,0.0,0.0,-0.0007133478470567707,0.5593180079517012,9.811252471317223,0.0,0.0,0.0,0.0,0.0,0.0,0.0,0.0,0.0
2025/05/21 12:18:46.227227845,1747822726,227024885,mA1/imu,0.04017545815804076,0.9991922688413083,0.0007649012798738643,0.00039670591420342896,0.0,0.0,0.0,0.0,0.0,0.0,0.0,0.0,0.0,-0.0005598852356443754,0.0010714600142780759,-0.0015992020085244878,0.0,0.0,0.0,0.0,0.0,0.0,0.0,0.0,0.0,-0.05084321547439079,-0.055666925384774794,9.807525768545817,0.0,0.0,0.0,0.0,0.0,0.0,0.0,0.0,0.0
2025/05/21 12:18:46.278059699,1747822726,276880922,mA1/imu,0.040145418337917634,0.9991934970781139,0.0007573700976471714,0.00035661438286863604,0.0,0.0,0.0,0.0,0.0,0.0,0.0,0.0,0.0,0.0010627443743440267,0.001656598917057004,-0.001095748246673267,0.0,0.0,0.0,0.0,0.0,0.0,0.0,0.0,0.0,0.0033521881028805356,-0.5822652384278495,9.80867687596892,0.0,0.0,0.0,0.0,0.0,0.0,0.0,0.0,0.0
2025/05/21 12:18:46.328635453,1747822726,328347867,mA1/imu,0.04012060758853979,0.999194512905316,0.0007502139704019078,0.0003152865884984841,0.0,0.0,0.0,0.0,0.0,0.0,0.0,0.0,0.0,0.0009337757432700875,0.0016058995745739102,-0.000923912753154502,0.0,0.0,0.0,0.0,0.0,0.0,0.0,0.0,0.0,0.0028183962821060086,0.04015337775292318,9.810216714460442,0.0,0.0,0.0,0.0,0.0,0.0,0.0,0.0,0.0
2025/05/21 12:18:46.378128845,1747822726,377725719,mA1/imu,0.0401000003823689,0.9991953507742259,0.0007510396851764371,0.0002773083063930494,0.0,0.0,0.0,0.0,0.0,0.0,0.0,0.0,0.0,-0.0006627721846578935,0.00145971657408234,-0.000758096414730475,0.0,0.0,0.0,0.0,0.0,0.0,0.0,0.0,0.0,0.0034652274948837923,0.5590816699086257,9.810936283095465,0.0,0.0,0.0,0.0,0.0,0.0,0.0,0.0,0.0
2025/05/21 12:18:46.429264534,1747822726,428953631,mA1/imu,0.040083453852820944,0.9991960228257923,0.0007515020453860097,0.00024482855882540126,0.0,0.0,0.0,0.0,0.0,0.0,0.0,0.0,0.0,-0.0005612227141172225,0.0011930565791435975,-0.0005979470994640307,0.0,0.0,0.0,0.0,0.0,0.0,0.0,0.0,0.0,0.005446508449435434,-0.06383947359842816,9.809414255600064,0.0,0.0,0.0,0.0,0.0,0.0,0.0,0.0,0.0
2025/05/21 12:18:46.478772284,1747822726,478561854,mA1/imu,0.04007082439431625,0.9991965410932714,0.0007437458848071229,0.0002194120808162965,0.0,0.0,0.0,0.0,0.0,0.0,0.0,0.0,0.0,0.0010605165215090333,0.0008597973912045704,-0.0004434079138290665,0.0,0.0,0.0,0.0,0.0,0.0,0.0,0.0,0.0,0.005137532482533709,-0.5779599799956889,9.808311614405646,0.0,0.0,0.0,0.0,0.0,0.0,0.0,0.0,0.0
2025/05/21 12:18:46.530464676,1747822726,530157438,mA1/imu,0.040060890194025166,0.9991969479295523,0.0007371049274806536,0.0002024881616210558,0.0,0.0,0.0,0.0,0.0,0.0,0.0,0.0,0.0,0.0008333805009416454,0.0005198902213232245,-0.0003983006243615394,0.0,0.0,0.0,0.0,0.0,0.0,0.0,0.0,0.0,0.004076325738911533,0.037961285638117716,9.81002839459899,0.0,0.0,0.0,0.0,0.0,0.0,0.0,0.0,0.0
2025/05/21 12:18:46.579721821,1747822726,579471457,mA1/imu,0.04005107253619251,0.999197340438033,0.0007405030615996988,0.00019520624501937598,0.0,0.0,0.0,0.0,0.0,0.0,0.0,0.0,0.0,-0.0008493070053601844,0.00015132129434339552,-0.00038926163839256,0.0,0.0,0.0,0.0,0.0,0.0,0.0,0.0,0.0,0.004476212353141518,0.5558277992692989,9.81066876746798,0.0,0.0,0.0,0.0,0.0,0.0,0.0,0.0,0.0
2025/05/21 12:18:46.630942264,1747822726,630561278,mA1/imu,0.04004064133325524,0.9991977527206799,0.0007476535922221922,0.00019751878513919329,0.0,0.0,0.0,0.0,0.0,0.0,0.0,0.0,0.0,-0.0009569886510364298,-0.00023112202404261303,-0.00046524289975901506,0.0,0.0,0.0,0.0,0.0,0.0,0.0,0.0,0.0,0.005267173563779709,-0.08012280638543991,9.809673793448827,0.0,0.0,0.0,0.0,0.0,0.0,0.0,0.0,0.0
2025/05/21 12:18:46.680698485,1747822726,680484449,mA1/imu,0.04002710409360258,0.99919829455433,0.0007453318790452327,0.00020875341509146735,0.0,0.0,0.0,0.0,0.0,0.0,0.0,0.0,0.0,-0.0002589169974868185,-0.0005887129374829413,-0.0005922497482647946,0.0,0.0,0.0,0.0,0.0,0.0,0.0,0.0,0.0,0.0044861532703194444,-0.022895043418114033,9.807933772995822,0.0,0.0,0.0,0.0,0.0,0.0,0.0,0.0,0.0
2025/05/21 12:18:46.731995676,1747822726,731515070,mA1/imu,0.040010305215846004,0.9991989581078892,0.0007518532923927607,0.00022871219969705157,0.0,0.0,0.0,0.0,0.0,0.0,0.0,0.0,0.0,-0.0003172185374395956,-0.0009106458829645918,-0.0007251749079527035,0.0,0.0,0.0,0.0,0.0,0.0,0.0,0.0,0.0,0.003912610464482383,-0.02115611512482071,9.811872361867957,0.0,0.0,0.0,0.0,0.0,0.0,0.0,0.0,0.0
2025/05/21 12:18:46.782111631,1747822726,781341512,mA1/imu,0.039991737350633556,0.9991996891730781,0.0007593443168724985,0.00025592246934612285,0.0,0.0,0.0,0.0,0.0,0.0,0.0,0.0,0.0,-0.0003562359401193252,-0.001174885386756687,-0.0007357617631049328,0.0,0.0,0.0,0.0,0.0,0.0,0.0,0.0,0.0,0.003958405242765184,-0.015508535074702172,9.810768091812244,0.0,0.0,0.0,0.0,0.0,0.0,0.0,0.0,0.0
2025/05/21 12:18:46.833265821,1747822726,833066466,mA1/imu,0.03997368292385858,0.9992003990457329,0.0007642056314846699,0.0002884616154946192,0.0,0.0,0.0,0.0,0.0,0.0,0.0,0.0,0.0,-0.00025887682111207027,-0.0013585954267307983,-0.000715750085718399,0.0,0.0,0.0,0.0,0.0,0.0,0.0,0.0,0.0,0.003447723155279488,-0.0065973999151394645,9.808902159034224,0.0,0.0,0.0,0.0,0.0,0.0,0.0,0.0,0.0
2025/05/21 12:18:46.883018585,1747822726,882710904,mA1/imu,0.03995611834524191,0.9992010855998221,0.000770582572903549,0.00032456958606769196,0.0,0.0,0.0,0.0,0.0,0.0,0.0,0.0,0.0,0.0004403071417608809,-0.0014775251329202847,-0.0006965142853540754,0.0,0.0,0.0,0.0,0.0,0.0,0.0,0.0,0.0,0.003809311355008011,0.01635956366036547,9.809894193412216,0.0,0.0,0.0,0.0,0.0,0.0,0.0,0.0,0.0
2025/05/21 12:18:46.933934723,1747822726,933745132,mA1/imu,0.03993900669469444,0.9992017483605072,0.0007814311959294342,0.0003621917073589095,0.0,0.0,0.0,0.0,0.0,0.0,0.0,0.0,0.0,-0.0012034972284843794,-0.0014840631330711076,-0.0006788809533982203,0.0,0.0,0.0,0.0,0.0,0.0,0.0,0.0,0.0,0.0028606230646725213,0.5576881534790337,9.81131873081135,0.0,0.0,0.0,0.0,0.0,0.0,0.0,0.0,0.0
2025/05/21 12:18:46.984046002,1747822726,983696553,mA1/imu,0.03992233683561132,0.9992023921680184,0.0007920559395809286,0.0003989419532485688,0.0,0.0,0.0,0.0,0.0,0.0,0.0,0.0,0.0,-0.0010615952777925585,-0.0014138933086851133,-0.0006613532548547477,0.0,0.0,0.0,0.0,0.0,0.0,0.0,0.0,0.0,0.0023990950131351696,-0.06096115428707836,9.810506387466722,0.0,0.0,0.0,0.0,0.0,0.0,0.0,0.0,0.0
2025/05/21 12:18:47.35174027,1747822727,34929850,mA1/imu,0.03990528626306044,0.9992030572932578,0.0007945571831978149,0.000432553988039542,0.0,0.0,0.0,0.0,0.0,0.0,0.0,0.0,0.0,0.0005429416498145161,-0.0012793612123353337,-0.0007254027977788972,0.0,0.0,0.0,0.0,0.0,0.0,0.0,0.0,0.0,0.003314484203507717,-0.5879290641946879,9.808788841629612,0.0,0.0,0.0,0.0,0.0,0.0,0.0,0.0,0.0
2025/05/21 12:18:47.87045039,1747822727,85251043,mA1/imu,0.03988681312711323,0.9992037794054764,0.0007974680288328359,0.0004619579173445145,0.0,0.0,0.0,0.0,0.0,0.0,0.0,0.0,0.0,0.00043640683403534027,-0.0010884124464242953,-0.0007321610776034879,0.0,0.0,0.0,0.0,0.0,0.0,0.0,0.0,0.0,0.003098423498938291,0.033119751159897834,9.810029481682195,0.0,0.0,0.0,0.0,0.0,0.0,0.0,0.0,0.0
2025/05/21 12:18:47.126399731,1747822727,126131262,mA1/imu,0.03986890094095209,0.9992044750359355,0.0008071856516241104,0.00048606300511640937,0.0,0.0,0.0,0.0,0.0,0.0,0.0,0.0,0.0,-0.0010900482213117662,-0.00087349790032135,-0.0006998723311589684,0.0,0.0,0.0,0.0,0.0,0.0,0.0,0.0,0.0,0.0072829503369550574,0.5601539522698007,9.811559371585673,0.0,0.0,0.0,0.0,0.0,0.0,0.0,0.0,0.0
2025/05/21 12:18:47.176395528,1747822727,175983550,mA1/imu,0.039853092882692516,0.9992050904776071,0.0008139916553591839,0.0005055382335821944,0.0,0.0,0.0,0.0,0.0,0.0,0.0,0.0,0.0,-0.0008398254800761756,-0.000663886030063006,-0.0005767077548513219,0.0,0.0,0.0,0.0,0.0,0.0,0.0,0.0,0.0,0.0035047546107680417,-0.058387340605549606,9.810838402363691,0.0,0.0,0.0,0.0,0.0,0.0,0.0,0.0,0.0
2025/05/21 12:18:47.227418919,1747822727,227239785,mA1/imu,0.039841987682179315,0.9992055302701257,0.0008106513620304591,0.0005168553947881882,0.0,0.0,0.0,0.0,0.0,0.0,0.0,0.0,0.0,0.000848339203293852,-0.00010099243661603849,-0.00022229886616643535,0.0,0.0,0.0,0.0,0.0,0.0,0.0,0.0,0.0,-0.046980996835209704,-0.5741701009293696,9.806763524775405,0.0,0.0,0.0,0.0,0.0,0.0,0.0,0.0,0.0
2025/05/21 12:18:47.277061928,1747822727,276862303,mA1/imu,0.03984552486163027,0.9992053994502538,0.0008061815277649512,0.0005039139848244553,0.0,0.0,0.0,0.0,0.0,0.0,0.0,0.0,0.0,0.0008259327694151077,0.0006557496720895184,0.00022819856589133402,0.0,0.0,0.0,0.0,0.0,0.0,0.0,0.0,0.0,0.0065579061063831675,0.03483622506154903,9.809885828900596,0.0,0.0,0.0,0.0,0.0,0.0,0.0,0.0,0.0
2025/05/21 12:18:47.328593060,1747822727,328341878,mA1/imu,0.03985270449031009,0.9992051214963619,0.000807253111210449,0.0004852449517087448,0.0,0.0,0.0,0.0,0.0,0.0,0.0,0.0,0.0,-0.0006690971921606744,0.0007715292630108546,0.0003132703262628005,0.0,0.0,0.0,0.0,0.0,0.0,0.0,0.0,0.0,0.009820396389099161,0.5587528870252583,9.811535998613161,0.0,0.0,0.0,0.0,0.0,0.0,0.0,0.0,0.0
2025/05/21 12:18:47.377866013,1747822727,377649212,mA1/imu,0.03986202843596998,0.999204760888374,0.0008053766521745506,0.0004646239614486392,0.0,0.0,0.0,0.0,0.0,0.0,0.0,0.0,0.0,-0.0004380743131854388,0.0008679466268974557,0.00042327080188728943,0.0,0.0,0.0,0.0,0.0,0.0,0.0,0.0,0.0,0.006332148173344311,-0.05942016676787463,9.810723688341415,0.0,0.0,0.0,0.0,0.0,0.0,0.0,0.0,0.0
2025/05/21 12:18:47.429349701,1747822727,429072567,mA1/imu,0.03988029295744028,0.9992040563551103,0.0007934811329271068,0.0004317230755643608,0.0,0.0,0.0,0.0,0.0,0.0,0.0,0.0,0.0,0.0012758388632841768,0.001891549988586653,0.0011331967166408959,0.0,0.0,0.0,0.0,0.0,0.0,0.0,0.0,0.0,-0.04127366571042413,-0.575616752717486,9.806611796522635,0.0,0.0,0.0,0.0,0.0,0.0,0.0,0.0,0.0
2025/05/21 12:18:47.479044099,1747822727,478675798,mA1/imu,0.03991498794873028,0.999202702358464,0.0007810922904436313,0.0003784592834934741,0.0,0.0,0.0,0.0,0.0,0.0,0.0,0.0,0.0,0.001176255621019553,0.002014899450331829,0.0014273078047525169,0.0,0.0,0.0,0.0,0.0,0.0,0.0,0.0,0.0,0.011121043339902504,0.03400333436089856,9.809688325894479,0.0,0.0,0.0,0.0,0.0,0.0,0.0,0.0,0.0
2025/05/21 12:18:47.530278205,1747822727,529825093,mA1/imu,0.03995187963877705,0.9992012487504968,0.0007756383533907051,0.0003319546978027101,0.0,0.0,0.0,0.0,0.0,0.0,0.0,0.0,0.0,-0.0003954846447392909,0.001699355499507922,0.0015022901714088258,0.0,0.0,0.0,0.0,0.0,0.0,0.0,0.0,0.0,0.013758683187216365,0.5579404074178695,9.81134219123423,0.0,0.0,0.0,0.0,0.0,0.0,0.0,0.0,0.0
2025/05/21 12:18:47.580460516,1747822727,579591180,mA1/imu,0.039990066817550116,0.9991997377873566,0.0007687826646913297,0.0002958628400057477,0.0,0.0,0.0,0.0,0.0,0.0,0.0,0.0,0.0,-0.0002485245803916747,0.0012663553379882566,0.001559434860914062,0.0,0.0,0.0,0.0,0.0,0.0,0.0,0.0,0.0,0.010223170380996295,-0.060264167244505756,9.810399199382953,0.0,0.0,0.0,0.0,0.0,0.0,0.0,0.0,0.0
2025/05/21 12:18:47.631487660,1747822727,631192839,mA1/imu,0.04003058520884746,0.9991981338313738,0.0007539820868652154,0.00027038259925566484,0.0,0.0,0.0,0.0,0.0,0.0,0.0,0.0,0.0,0.001318647651712986,0.0008830074707280667,0.0017095151728460886,0.0,0.0,0.0,0.0,0.0,0.0,0.0,0.0,0.0,-0.0053512475667863435,-0.5754562786123005,9.807555259145122,0.0,0.0,0.0,0.0,0.0,0.0,0.0,0.0,0.0
2025/05/21 12:18:47.681101646,1747822727,680781586,mA1/imu,0.04007687255688301,0.9991962946934538,0.0007387410616817801,0.00025143304485070916,0.0,0.0,0.0,0.0,0.0,0.0,0.0,0.0,0.0,0.0012244795862370655,0.0005310847350844701,0.0018945749130586294,0.0,0.0,0.0,0.0,0.0,0.0,0.0,0.0,0.0,0.012760387419230688,0.03868923491195102,9.809585398061644,0.0,0.0,0.0,0.0,0.0,0.0,0.0,0.0,0.0
2025/05/21 12:18:47.732103019,1747822727,731826559,mA1/imu,0.04012529746419478,0.9991943565733078,0.0007333821276298241,0.0002458579226984947,0.0,0.0,0.0,0.0,0.0,0.0,0.0,0.0,0.0,-0.0005620611673682551,-1.2165897233814145e-05,0.0019662757892678086,0.0,0.0,0.0,0.0,0.0,0.0,0.0,0.0,0.0,0.011345940309778993,0.5527819733067322,9.810953293781555,0.0,0.0,0.0,0.0,0.0,0.0,0.0,0.0,0.0
2025/05/21 12:18:47.783202036,1747822727,782827256,mA1/imu,0.04017545782847383,0.999192341466328,0.0007298566215494231,0.0002542687980210424,0.0,0.0,0.0,0.0,0.0,0.0,0.0,0.0,0.0,-0.000477183493954003,-0.0005486634087043894,0.002035652766231393,0.0,0.0,0.0,0.0,0.0,0.0,0.0,0.0,0.0,0.01051336020033438,-0.06211078943195299,9.810147083074892,0.0,0.0,0.0,0.0,0.0,0.0,0.0,0.0,0.0
2025/05/21 12:18:47.833872000,1747822727,833705278,mA1/imu,0.04022517106875496,0.999190342942465,0.0007202838744327569,0.0002745435277341178,0.0,0.0,0.0,0.0,0.0,0.0,0.0,0.0,0.0,0.0009913602779915848,-0.000968137806692111,0.0019530603381160798,0.0,0.0,0.0,0.0,0.0,0.0,0.0,0.0,0.0,0.006394947772469611,-0.5892941874393456,9.80838138136195,0.0,0.0,0.0,0.0,0.0,0.0,0.0,0.0,0.0
2025/05/21 12:18:47.883735007,1747822727,883506256,mA1/imu,0.040273394808631006,0.999188397691342,0.0007131764937435358,0.000301610486089142,0.0,0.0,0.0,0.0,0.0,0.0,0.0,0.0,0.0,0.0007819131272130068,-0.0011656173184500865,0.0019261193601036112,0.0,0.0,0.0,0.0,0.0,0.0,0.0,0.0,0.0,0.003424595974292607,0.0331675696522018,9.809395988911614,0.0,0.0,0.0,0.0,0.0,0.0,0.0,0.0,0.0
2025/05/21 12:18:47.935204628,1747822727,934757573,mA1/imu,0.04032135555715905,0.9991864483369639,0.0007206730977896487,0.00033222896159658735,0.0,0.0,0.0,0.0,0.0,0.0,0.0,0.0,0.0,-0.0012657074551422193,-0.0012496277751200778,0.0019147916935161552,0.0,0.0,0.0,0.0,0.0,0.0,0.0,0.0,0.0,0.002477053181548526,0.5354245401544475,9.8108973260307,0.0,0.0,0.0,0.0,0.0,0.0,0.0,0.0,0.0
2025/05/21 12:18:47.985396778,1747822727,985020993,mA1/imu,0.040369021051052396,0.9991845085073391,0.0007262110762855993,0.0003643017973626287,0.0,0.0,0.0,0.0,0.0,0.0,0.0,0.0,0.0,-0.0009405958905775504,-0.0012649756527207648,0.0019018540667842775,0.0,0.0,0.0,0.0,0.0,0.0,0.0,0.0,0.0,0.0012013592942817933,-0.059188012527363804,9.810300130281163,0.0,0.0,0.0,0.0,0.0,0.0,0.0,0.0,0.0
2025/05/21 12:18:48.26613645,1747822728,26301643,mA1/imu,0.04041849434133863,0.9991824944112662,0.000731058053683421,0.00039208593659945286,0.0,0.0,0.0,0.0,0.0,0.0,0.0,0.0,0.0,1.0627414171436383e-05,-0.0008722338256681148,0.0020970866906335267,0.0,0.0,0.0,0.0,0.0,0.0,0.0,0.0,0.0,-0.014969140706273556,0.009173682467923742,9.810436997959465,0.0,0.0,0.0,0.0,0.0,0.0,0.0,0.0,0.0
2025/05/21 12:18:48.76038863,1747822728,75851900,mA1/imu,0.04047560356619026,0.999180165138911,0.0007471826150620343,0.00040598900382923906,0.0,0.0,0.0,0.0,0.0,0.0,0.0,0.0,0.0,-0.0006776631247490231,-0.00032102923106203855,0.0024121140783887086,0.0,0.0,0.0,0.0,0.0,0.0,0.0,0.0,0.0,-0.012664220657743645,-0.029414203445274706,9.809655057989739,0.0,0.0,0.0,0.0,0.0,0.0,0.0,0.0,0.0
2025/05/21 12:18:48.127612835,1747822728,127181959,mA1/imu,0.04053891105815542,0.9991775813851012,0.0007685894253334877,0.00040843351206743586,0.0,0.0,0.0,0.0,0.0,0.0,0.0,0.0,0.0,-0.002638956000119012,3.0459986665370982e-05,0.002559432972148953,0.0,0.0,0.0,0.0,0.0,0.0,0.0,0.0,0.0,0.002809444342755909,0.39645660081425327,9.8103723419135,0.0,0.0,0.0,0.0,0.0,0.0,0.0,0.0,0.0
2025/05/21 12:18:48.178598195,1747822728,178409885,mA1/imu,0.040602477343774854,0.9991749925085316,0.0007792921672828623,0.0004072871744051632,0.0,0.0,0.0,0.0,0.0,0.0,0.0,0.0,0.0,-0.0011201253070041077,0.00011244804741915543,0.0025338937264299697,0.0,0.0,0.0,0.0,0.0,0.0,0.0,0.0,0.0,0.0008102264508657569,-0.04474284996794559,9.810718423240155,0.0,0.0,0.0,0.0,0.0,0.0,0.0,0.0,0.0
2025/05/21 12:18:48.229603943,1747822728,229469028,mA1/imu,0.04066539662722195,0.9991724253419888,0.0007913864448093228,0.00040455018665381745,0.0,0.0,0.0,0.0,0.0,0.0,0.0,0.0,0.0,-0.0005284288176952875,0.00013762767479980856,0.002505592154108309,0.0,0.0,0.0,0.0,0.0,0.0,0.0,0.0,0.0,0.0031909075314754684,-0.007048622837932795,9.809670222211231,0.0,0.0,0.0,0.0,0.0,0.0,0.0,0.0,0.0
2025/05/21 12:18:48.279589741,1747822728,279381437,mA1/imu,0.040727606854324444,0.9991698797040235,0.000807524699244025,0.00040179102368381037,0.0,0.0,0.0,0.0,0.0,0.0,0.0,0.0,0.0,-0.00043179073733668534,0.0001419588143989523,0.0024788607401239147,0.0,0.0,0.0,0.0,0.0,0.0,0.0,0.0,0.0,0.0033433656136285907,0.5890723183063044,9.81180046924623,0.0,0.0,0.0,0.0,0.0,0.0,0.0,0.0,0.0
2025/05/21 12:18:48.330520428,1747822728,330302293,mA1/imu,0.04078903294776369,0.9991673574883134,0.0008290885426403014,0.0003989150232723036,0.0,0.0,0.0,0.0,0.0,0.0,0.0,0.0,0.0,-0.0015406696928989562,0.00015211545986182446,0.002446290286737814,0.0,0.0,0.0,0.0,0.0,0.0,0.0,0.0,0.0,0.003700349428415817,0.43119056757916413,9.811020677388676,0.0,0.0,0.0,0.0,0.0,0.0,0.0,0.0,0.0
2025/05/21 12:18:48.380336321,1747822728,380151247,mA1/imu,0.04084971566879498,0.9991648696591773,0.0008411636408695379,0.00039549016086332794,0.0,0.0,0.0,0.0,0.0,0.0,0.0,0.0,0.0,0.0002933998425482476,0.00014064743431407817,0.0024223218434715602,0.0,0.0,0.0,0.0,0.0,0.0,0.0,0.0,0.0,0.0028485734390273822,-0.5947001452345086,9.808443960512582,0.0,0.0,0.0,0.0,0.0,0.0,0.0,0.0,0.0
2025/05/21 12:18:48.431382309,1747822728,431185560,mA1/imu,0.040909772760057896,0.9991624045939779,0.0008519862088382491,0.000392247626010191,0.0,0.0,0.0,0.0,0.0,0.0,0.0,0.0,0.0,0.00012806000820726897,0.00012440879892560808,0.0023977018812635794,0.0,0.0,0.0,0.0,0.0,0.0,0.0,0.0,0.0,0.0028777540624101055,-0.6144249741377332,9.80829334925337,0.0,0.0,0.0,0.0,0.0,0.0,0.0,0.0,0.0
2025/05/21 12:18:48.481445928,1747822728,481050108,mA1/imu,0.0409693778797716,0.9991599571511941,0.0008590646723924325,0.00039001238045839853,0.0,0.0,0.0,0.0,0.0,0.0,0.0,0.0,0.0,-0.0014927985895322067,8.795189836559368e-05,0.002373909133814174,0.0,0.0,0.0,0.0,0.0,0.0,0.0,0.0,0.0,0.004243280291453581,0.5257468716386802,9.811158782453079,0.0,0.0,0.0,0.0,0.0,0.0,0.0,0.0,0.0
2025/05/21 12:18:48.534072529,1747822728,533859213,mA1/imu,0.04102801386424816,0.9991575493215622,0.0008613470737499707,0.00038960660102349326,0.0,0.0,0.0,0.0,0.0,0.0,0.0,0.0,0.0,-0.0014205784345546549,-3.1482396842360704e-05,0.00231183853138753,0.0,0.0,0.0,0.0,0.0,0.0,0.0,0.0,0.0,0.0072072973309553635,0.5227609261002251,9.8108983141356,0.0,0.0,0.0,0.0,0.0,0.0,0.0,0.0,0.0
2025/05/21 12:18:48.583618902,1747822728,583461969,mA1/imu,0.04108520465955245,0.9991551977922026,0.0008621672618455295,0.00039159994896864804,0.0,0.0,0.0,0.0,0.0,0.0,0.0,0.0,0.0,-6.256519866474704e-05,-8.260005956780304e-05,0.0022831871794723995,0.0,0.0,0.0,0.0,0.0,0.0,0.0,0.0,0.0,0.0026035502815347483,-0.27826460718171675,9.81050341591563,0.0,0.0,0.0,0.0,0.0,0.0,0.0,0.0,0.0
2025/05/21 12:18:48.635280188,1747822728,634888493,mA1/imu,0.04114191617500081,0.9991528699141955,0.0008543092109392586,0.0003942479524365981,0.0,0.0,0.0,0.0,0.0,0.0,0.0,0.0,0.0,0.0016998821738182896,-0.00014651930404658523,0.002260386528508272,0.0,0.0,0.0,0.0,0.0,0.0,0.0,0.0,0.0,0.003522896109062754,-0.5404795971348623,9.808851611002751,0.0,0.0,0.0,0.0,0.0,0.0,0.0,0.0,0.0
2025/05/21 12:18:48.684994727,1747822728,684335572,mA1/imu,0.041198105722203754,0.9991505567247753,0.0008503020316497161,0.0003975775756633212,0.0,0.0,0.0,0.0,0.0,0.0,0.0,0.0,0.0,1.5980301058447174e-05,-0.00015242087700784586,0.0022436034899468915,0.0,0.0,0.0,0.0,0.0,0.0,0.0,0.0,0.0,0.00424570244884866,-0.03999308858118615,9.810204087227238,0.0,0.0,0.0,0.0,0.0,0.0,0.0,0.0,0.0
2025/05/21 12:18:48.736594923,1747822728,735351520,mA1/imu,0.041253821698268335,0.9991482634643877,0.0008419467567813516,0.0004011695961334263,0.0,0.0,0.0,0.0,0.0,0.0,0.0,0.0,0.0,-0.0014823903290454082,-0.00015141174483741395,0.0022216497279063494,0.0,0.0,0.0,0.0,0.0,0.0,0.0,0.0,0.0,0.004893249639071808,0.47557368081889356,9.81061577911381,0.0,0.0,0.0,0.0,0.0,0.0,0.0,0.0,0.0
2025/05/21 12:18:48.785488433,1747822728,785220823,mA1/imu,0.04130908450180969,0.9991459959355079,0.0008213575385491568,0.00040461766915503023,0.0,0.0,0.0,0.0,0.0,0.0,0.0,0.0,0.0,0.00017172689456641829,-0.00015183927392612635,0.0022065567393528304,0.0,0.0,0.0,0.0,0.0,0.0,0.0,0.0,0.0,0.002168782839043308,-0.042304043963830945,9.810867280870722,0.0,0.0,0.0,0.0,0.0,0.0,0.0,0.0,0.0
2025/05/21 12:18:48.826406949,1747822728,826247017,mA1/imu,0.04136393412531097,0.9991437442759082,0.0007978654552619252,0.00040821405047211754,0.0,0.0,0.0,0.0,0.0,0.0,0.0,0.0,0.0,0.0017592001997692804,-0.00018024403113454902,0.002186693016581535,0.0,0.0,0.0,0.0,0.0,0.0,0.0,0.0,0.0,0.002156673491858915,0.060419401743591866,9.811073490007386,0.0,0.0,0.0,0.0,0.0,0.0,0.0,0.0,0.0
2025/05/21 12:18:48.876508694,1747822728,876131192,mA1/imu,0.041418269348787895,0.9991415053374456,0.0007807388384553322,0.00041197456304455744,0.0,0.0,0.0,0.0,0.0,0.0,0.0,0.0,0.0,0.0018712866203338854,-0.0002047663285123238,0.0021677406350375655,0.0,0.0,0.0,0.0,0.0,0.0,0.0,0.0,0.0,0.005038605217463033,0.061381842789069066,9.810025976275483,0.0,0.0,0.0,0.0,0.0,0.0,0.0,0.0,0.0
2025/05/21 12:18:48.927398124,1747822728,927202614,mA1/imu,0.041472233971377406,0.9991392728434478,0.0007709237605263245,0.0004158699853321775,0.0,0.0,0.0,0.0,0.0,0.0,0.0,0.0,0.0,0.0005095379892237674,-0.00018903204993781997,0.002153170740232281,0.0,0.0,0.0,0.0,0.0,0.0,0.0,0.0,0.0,0.005116344347640798,-0.032414341241875644,9.809431559517602,0.0,0.0,0.0,0.0,0.0,0.0,0.0,0.0,0.0
2025/05/21 12:18:48.977330712,1747822728,977002926,mA1/imu,0.04152574263057931,0.9991370623340041,0.0007533775523717504,0.0004192753495969366,0.0,0.0,0.0,0.0,0.0,0.0,0.0,0.0,0.0,0.0005876174302117696,-0.00016650487481517006,0.0021347478677007574,0.0,0.0,0.0,0.0,0.0,0.0,0.0,0.0,0.0,0.004644205363636109,-0.6545162097690205,9.809042286696183,0.0,0.0,0.0,0.0,0.0,0.0,0.0,0.0,0.0
2025/05/21 12:18:49.29975779,1747822729,28923658,mA1/imu,0.04157869044585992,0.9991348770590411,0.0007289919291175972,0.000422511288739011,0.0,0.0,0.0,0.0,0.0,0.0,0.0,0.0,0.0,0.00036213629720087203,-0.0001790040613597441,0.002097875562548489,0.0,0.0,0.0,0.0,0.0,0.0,0.0,0.0,0.0,0.009270519165164606,-0.03914992372257174,9.809362677405444,0.0,0.0,0.0,0.0,0.0,0.0,0.0,0.0,0.0
2025/05/21 12:18:49.78543961,1747822729,78076151,mA1/imu,0.04162992942808133,0.999132758191976,0.0007055775859474412,0.00042736843331771506,0.0,0.0,0.0,0.0,0.0,0.0,0.0,0.0,0.0,9.77870033631267e-05,-0.00021181523042923222,0.0020335140249715116,0.0,0.0,0.0,0.0,0.0,0.0,0.0,0.0,0.0,0.0035547803869626273,0.5767813769262737,9.810986085887736,0.0,0.0,0.0,0.0,0.0,0.0,0.0,0.0,0.0
2025/05/21 12:18:49.129770657,1747822729,129469238,mA1/imu,0.041680350082874795,0.9991306637193457,0.0006913574015433098,0.00043273277233971043,0.0,0.0,0.0,0.0,0.0,0.0,0.0,0.0,0.0,3.160213312064305e-05,-0.0002287349504453333,0.002009147261062886,0.0,0.0,0.0,0.0,0.0,0.0,0.0,0.0,0.0,0.0036280211835135953,0.5798460949891829,9.811550678342511,0.0,0.0,0.0,0.0,0.0,0.0,0.0,0.0,0.0
2025/05/21 12:18:49.180579623,1747822729,180319139,mA1/imu,0.04173022375227951,0.999128587907713,0.0006794669379628613,0.0004376937336425252,0.0,0.0,0.0,0.0,0.0,0.0,0.0,0.0,0.0,0.0016980623964903648,-0.0002372767035910667,0.001985765575741205,0.0,0.0,0.0,0.0,0.0,0.0,0.0,0.0,0.0,0.005837662290521172,-0.5551275246801848,9.808483961341945,0.0,0.0,0.0,0.0,0.0,0.0,0.0,0.0,0.0
2025/05/21 12:18:49.232445411,1747822729,231330515,mA1/imu,0.04177943698689667,0.9991265344504178,0.0006718511638512743,0.0004420612734968797,0.0,0.0,0.0,0.0,0.0,0.0,0.0,0.0,0.0,0.001636298743788008,-0.00019587286000048165,0.0019595301949022316,0.0,0.0,0.0,0.0,0.0,0.0,0.0,0.0,0.0,0.005884769796392363,-0.5490220473166048,9.807844248400494,0.0,0.0,0.0,0.0,0.0,0.0,0.0,0.0,0.0
2025/05/21 12:18:49.281368264,1747822729,281169542,mA1/imu,0.04182807462955391,0.9991244996989835,0.0006689080402285039,0.00044591038791412535,0.0,0.0,0.0,0.0,0.0,0.0,0.0,0.0,0.0,-0.00015812326949594528,-0.00014933152349345109,0.0019391728961938202,0.0,0.0,0.0,0.0,0.0,0.0,0.0,0.0,0.0,0.006294416150738338,-0.03512174358031761,9.809431211336568,0.0,0.0,0.0,0.0,0.0,0.0,0.0,0.0,0.0
2025/05/21 12:18:49.332561547,1747822729,332360771,mA1/imu,0.04187552111493145,0.999122511651402,0.0006672716375998028,0.00044965687914776126,0.0,0.0,0.0,0.0,0.0,0.0,0.0,0.0,0.0,-0.0014635776812859365,-0.00016116492417169823,0.0018580973744159361,0.0,0.0,0.0,0.0,0.0,0.0,0.0,0.0,0.0,0.009694996713946717,0.4267910278231865,9.809820203124678,0.0,0.0,0.0,0.0,0.0,0.0,0.0,0.0,0.0
2025/05/21 12:18:49.383041290,1747822729,382770948,mA1/imu,0.041921125392053615,0.9991206021295697,0.0006607374521659544,0.00045284890326288295,0.0,0.0,0.0,0.0,0.0,0.0,0.0,0.0,0.0,-0.00027419443825751867,-7.505094483146518e-05,0.00181012785219851,0.0,0.0,0.0,0.0,0.0,0.0,0.0,0.0,0.0,0.003142996771498036,-0.02031691580670262,9.809666762952105,0.0,0.0,0.0,0.0,0.0,0.0,0.0,0.0,0.0
2025/05/21 12:18:49.434652741,1747822729,434424137,mA1/imu,0.041966013869352614,0.9991187152775954,0.0006634170723304934,0.0004542463567329217,0.0,0.0,0.0,0.0,0.0,0.0,0.0,0.0,0.0,-0.00045713522546124706,-9.656183669354769e-06,0.0017843274764699584,0.0,0.0,0.0,0.0,0.0,0.0,0.0,0.0,0.0,0.0036339925493749526,0.6032410802724683,9.811450286469038,0.0,0.0,0.0,0.0,0.0,0.0,0.0,0.0,0.0
2025/05/21 12:18:49.484125038,1747822729,483725530,mA1/imu,0.04201022238185104,0.999116853527726,0.0006696107967431028,0.0004536889519049471,0.0,0.0,0.0,0.0,0.0,0.0,0.0,0.0,0.0,0.0011783474325294306,2.7430622038195323e-05,0.0017608788193254486,0.0,0.0,0.0,0.0,0.0,0.0,0.0,0.0,0.0,0.006074438141419206,-0.5361293580417321,9.809254911057723,0.0,0.0,0.0,0.0,0.0,0.0,0.0,0.0,0.0
2025/05/21 12:18:49.535030944,1747822729,534665567,mA1/imu,0.042053206188674884,0.9991150340567417,0.000686832278175187,0.0004525842133351364,0.0,0.0,0.0,0.0,0.0,0.0,0.0,0.0,0.0,-0.0005301295423103043,3.8730006875111134e-05,0.0016839947526582273,0.0,0.0,0.0,0.0,0.0,0.0,0.0,0.0,0.0,0.009624350165773884,-0.014668591490967144,9.809572100393877,0.0,0.0,0.0,0.0,0.0,0.0,0.0,0.0,0.0
2025/05/21 12:18:49.586327305,1747822729,584688384,mA1/imu,0.04209457666298834,0.9991132809649053,0.0007032481163125825,0.00045150547403063787,0.0,0.0,0.0,0.0,0.0,0.0,0.0,0.0,0.0,-0.0007565363678184438,8.285982919231235e-05,0.0016478936536010395,0.0,0.0,0.0,0.0,0.0,0.0,0.0,0.0,0.0,0.00606268931769164,-0.6551788661681377,9.809680046108223,0.0,0.0,0.0,0.0,0.0,0.0,0.0,0.0,0.0
2025/05/21 12:18:49.636718090,1747822729,636417290,mA1/imu,0.04213531595522855,0.9991115573900128,0.000713839998374438,0.0004488557816345658,0.0,0.0,0.0,0.0,0.0,0.0,0.0,0.0,0.0,-0.0016441832545963796,0.00016129437035848276,0.0016173994214953309,0.0,0.0,0.0,0.0,0.0,0.0,0.0,0.0,0.0,0.00565198529657133,-0.14581459505982478,9.812143954104666,0.0,0.0,0.0,0.0,0.0,0.0,0.0,0.0,0.0
2025/05/21 12:18:49.676196885,1747822729,675674140,mA1/imu,0.04217537469383465,0.9991098667451312,0.0007173231621217833,0.00044428531561374097,0.0,0.0,0.0,0.0,0.0,0.0,0.0,0.0,0.0,-0.0006528997000057125,0.0002315901155366892,0.001605628164769512,0.0,0.0,0.0,0.0,0.0,0.0,0.0,0.0,0.0,0.0036701085792945724,0.23113055306086377,9.812495819732387,0.0,0.0,0.0,0.0,0.0,0.0,0.0,0.0,0.0
2025/05/21 12:18:49.727150135,1747822729,726935381,mA1/imu,0.04221510318727249,0.9991081799174923,0.0007328006611833162,0.00043919020348204057,0.0,0.0,0.0,0.0,0.0,0.0,0.0,0.0,0.0,-0.0008692949495125815,0.000229946472876808,0.001567116852120281,0.0,0.0,0.0,0.0,0.0,0.0,0.0,0.0,0.0,0.007894741762858835,0.6044566472379738,9.811457478421495,0.0,0.0,0.0,0.0,0.0,0.0,0.0,0.0,0.0
2025/05/21 12:18:49.776698849,1747822729,776465849,mA1/imu,0.04225321677633659,0.9991065597803506,0.000747396274558517,0.00043505716108437856,0.0,0.0,0.0,0.0,0.0,0.0,0.0,0.0,0.0,0.000262160690062334,0.00015327043197847502,0.0015142819120191626,0.0,0.0,0.0,0.0,0.0,0.0,0.0,0.0,0.0,0.007243190532244893,0.04645009567162594,9.811047566535347,0.0,0.0,0.0,0.0,0.0,0.0,0.0,0.0,0.0
2025/05/21 12:18:49.828175939,1747822729,827896119,mA1/imu,0.04229104902434549,0.9991049498206025,0.0007618089490391029,0.00043135080480940125,0.0,0.0,0.0,0.0,0.0,0.0,0.0,0.0,0.0,0.00011996663434082658,0.00017247024281554573,0.001506684359410138,0.0,0.0,0.0,0.0,0.0,0.0,0.0,0.0,0.0,0.003759757251318163,0.03831177879638304,9.808602177480964,0.0,0.0,0.0,0.0,0.0,0.0,0.0,0.0,0.0
2025/05/21 12:18:49.877466054,1747822729,877257170,mA1/imu,0.04232848750275927,0.9991033520054807,0.0007801229676255206,0.0004272766041082249,0.0,0.0,0.0,0.0,0.0,0.0,0.0,0.0,0.0,0.0003987422253653639,0.0001678397480026092,0.001495646946230924,0.0,0.0,0.0,0.0,0.0,0.0,0.0,0.0,0.0,0.006620577249881324,-0.5799448572153073,9.809960416786772,0.0,0.0,0.0,0.0,0.0,0.0,0.0,0.0,0.0
2025/05/21 12:18:49.929388789,1747822729,929069095,mA1/imu,0.04236491057458867,0.9991017974153931,0.0007957115166538147,0.0004237882963844881,0.0,0.0,0.0,0.0,0.0,0.0,0.0,0.0,0.0,-0.0010390334276591624,0.00010675937436263356,0.0014241833244349456,0.0,0.0,0.0,0.0,0.0,0.0,0.0,0.0,0.0,0.010598416086419479,-0.056217357682673455,9.810488945761195,0.0,0.0,0.0,0.0,0.0,0.0,0.0,0.0,0.0
2025/05/21 12:18:49.978313457,1747822729,978134031,mA1/imu,0.04239966488460394,0.9991003262354012,0.0007930595568103767,0.0004214149112607965,0.0,0.0,0.0,0.0,0.0,0.0,0.0,0.0,0.0,-0.0003826055459514704,0.00010630637441972355,0.0013894753248104598,0.0,0.0,0.0,0.0,0.0,0.0,0.0,0.0,0.0,0.004716271807453385,-0.018210012048637383,9.81182670493039,0.0,0.0,0.0,0.0,0.0,0.0,0.0,0.0,0.0
2025/05/21 12:18:50.29819171,1747822730,29435269,mA1/imu,0.04243594560276838,0.999098781630117,0.0007998868409188326,0.00041862519786231,0.0,0.0,0.0,0.0,0.0,0.0,0.0,0.0,0.0,-0.00016874545246015662,0.00021032069207714622,0.0015602032672683455,0.0,0.0,0.0,0.0,0.0,0.0,0.0,0.0,0.0,-0.005948627253248482,-0.010160954390853898,9.814460865444238,0.0,0.0,0.0,0.0,0.0,0.0,0.0,0.0,0.0
2025/05/21 12:18:50.79327342,1747822730,79111504,mA1/imu,0.042479358905428304,0.9990969448349679,0.0007942791455387177,0.0004098890776774361,0.0,0.0,0.0,0.0,0.0,0.0,0.0,0.0,0.0,0.0014541977173436625,0.00038703581720567133,0.0018441586953971845,0.0,0.0,0.0,0.0,0.0,0.0,0.0,0.0,0.0,-0.0007011721686850693,-0.5150214936143187,9.808552098261028,0.0,0.0,0.0,0.0,0.0,0.0,0.0,0.0,0.0
2025/05/21 12:18:50.130241376,1747822730,130135451,mA1/imu,0.042530065062651355,0.9990947917854983,0.0007956713453316064,0.00039686265709044385,0.0,0.0,0.0,0.0,0.0,0.0,0.0,0.0,0.0,0.00011485191403802654,0.0005318897467555081,0.002159541066066107,0.0,0.0,0.0,0.0,0.0,0.0,0.0,0.0,0.0,0.002862525016754775,-0.006700003925367019,9.80881865653428,0.0,0.0,0.0,0.0,0.0,0.0,0.0,0.0,0.0
2025/05/21 12:18:50.180191421,1747822730,179986427,mA1/imu,0.04259523433043627,0.9990920369133973,0.0007804290511513838,0.0003724500909083866,0.0,0.0,0.0,0.0,0.0,0.0,0.0,0.0,0.0,0.0007715157876090271,0.0013055069440418704,0.002978200055235219,0.0,0.0,0.0,0.0,0.0,0.0,0.0,0.0,0.0,-0.024297173158357818,0.023594341708104954,9.807490645675387,0.0,0.0,0.0,0.0,0.0,0.0,0.0,0.0,0.0
2025/05/21 12:18:50.231680509,1747822730,231112906,mA1/imu,0.04267918167612234,0.9990884791927549,0.0007658301762977948,0.0003342153581038611,0.0,0.0,0.0,0.0,0.0,0.0,0.0,0.0,0.0,0.0006244175553646687,0.0014538139749012016,0.003524168443321872,0.0,0.0,0.0,0.0,0.0,0.0,0.0,0.0,0.0,0.005604958629701572,-0.002665993717766744,9.808122693469501,0.0,0.0,0.0,0.0,0.0,0.0,0.0,0.0,0.0
2025/05/21 12:18:50.281104827,1747822730,280852196,mA1/imu,0.04277103662191563,0.9990845739118865,0.0007494024839823109,0.00030165130219126355,0.0,0.0,0.0,0.0,0.0,0.0,0.0,0.0,0.0,0.0007630376298495219,0.0011700418147843885,0.003781080177627173,0.0,0.0,0.0,0.0,0.0,0.0,0.0,0.0,0.0,0.002380212457481543,-0.008860658950802016,9.811845926312685,0.0,0.0,0.0,0.0,0.0,0.0,0.0,0.0,0.0
2025/05/21 12:18:50.332086279,1747822730,331856205,mA1/imu,0.042863432942704574,0.9990806329027084,0.0007308773160469878,0.00028441771796498474,0.0,0.0,0.0,0.0,0.0,0.0,0.0,0.0,0.0,0.0007650431066374688,0.00034547480479222507,0.0036398517304787143,0.0,0.0,0.0,0.0,0.0,0.0,0.0,0.0,0.0,0.016075916049853256,-0.011333127652890582,9.81197441606183,0.0,0.0,0.0,0.0,0.0,0.0,0.0,0.0,0.0
2025/05/21 12:18:50.382008936,1747822730,381745898,mA1/imu,0.042952325213888906,0.9990768277360662,0.000712181391625915,0.0002878145661368967,0.0,0.0,0.0,0.0,0.0,0.0,0.0,0.0,0.0,0.0007280530795524087,-0.0005331579184609089,0.0035101082624759378,0.0,0.0,0.0,0.0,0.0,0.0,0.0,0.0,0.0,0.02253392549302035,-0.007034681507555088,9.808281167719032,0.0,0.0,0.0,0.0,0.0,0.0,0.0,0.0,0.0
2025/05/21 12:18:50.433872820,1747822730,433697550,mA1/imu,0.04303895680258504,0.9990731077705652,0.0006901724266689977,0.00031175155366743805,0.0,0.0,0.0,0.0,0.0,0.0,0.0,0.0,0.0,-0.00019588953383901586,-0.001250427929243732,0.00346207062358276,0.0,0.0,0.0,0.0,0.0,0.0,0.0,0.0,0.0,0.015561188928775007,0.5659279366320922,9.809305960786167,0.0,0.0,0.0,0.0,0.0,0.0,0.0,0.0,0.0
2025/05/21 12:18:50.483721666,1747822730,483486224,mA1/imu,0.04312430655526568,0.9990694272627051,0.0006703545270355558,0.0003525874445064674,0.0,0.0,0.0,0.0,0.0,0.0,0.0,0.0,0.0,0.0006778142711503956,-0.0019505973702744735,0.0033698226072490295,0.0,0.0,0.0,0.0,0.0,0.0,0.0,0.0,0.0,0.02069012097074433,0.250296189114276,9.80901731924293,0.0,0.0,0.0,0.0,0.0,0.0,0.0,0.0,0.0
2025/05/21 12:18:50.535610092,1747822730,534875510,mA1/imu,0.04320457417745054,0.9990659470949561,0.0006543712268618559,0.0004122180256990912,0.0,0.0,0.0,0.0,0.0,0.0,0.0,0.0,0.0,0.0013463233760608235,-0.0027595579851062324,0.003028072668709378,0.0,0.0,0.0,0.0,0.0,0.0,0.0,0.0,0.0,0.029480028546286566,0.05951805327598027,9.808621388328998,0.0,0.0,0.0,0.0,0.0,0.0,0.0,0.0,0.0
2025/05/21 12:18:50.585258239,1747822730,584990022,mA1/imu,0.04327670033840641,0.9990628001570507,0.0006405528076469094,0.0004881006794955304,0.0,0.0,0.0,0.0,0.0,0.0,0.0,0.0,0.0,9.343843685855986e-05,-0.003190268192312927,0.0028460445967523245,0.0,0.0,0.0,0.0,0.0,0.0,0.0,0.0,0.0,0.01837429332612979,0.6092817568069864,9.810330078312926,0.0,0.0,0.0,0.0,0.0,0.0,0.0,0.0,0.0
2025/05/21 12:18:50.626601339,1747822730,626348308,mA1/imu,0.043347015222025435,0.9990597140151131,0.0006320625631690813,0.000569737043063749,0.0,0.0,0.0,0.0,0.0,0.0,0.0,0.0,0.0,0.0010041774344122733,-0.0032915606051606545,0.002803482270086172,0.0,0.0,0.0,0.0,0.0,0.0,0.0,0.0,0.0,0.014457094342391267,0.05953834786608489,9.808581605483043,0.0,0.0,0.0,0.0,0.0,0.0,0.0,0.0,0.0
2025/05/21 12:18:50.676231739,1747822730,675890059,mA1/imu,0.0434158988492575,0.9990566731792859,0.000631554585335408,0.0006516454975970798,0.0,0.0,0.0,0.0,0.0,0.0,0.0,0.0,0.0,0.0004976917499393641,-0.0032532951767469303,0.0027204073454402977,0.0,0.0,0.0,0.0,0.0,0.0,0.0,0.0,0.0,0.016303615202117972,0.03179783805779237,9.807888186791052,0.0,0.0,0.0,0.0,0.0,0.0,0.0,0.0,0.0
2025/05/21 12:18:50.727463283,1747822730,727230437,mA1/imu,0.043482711885560056,0.9990537138012897,0.0006312143328907506,0.0007295720623525094,0.0,0.0,0.0,0.0,0.0,0.0,0.0,0.0,0.0,0.001372425603438162,-0.002982810920535201,0.002657462878790109,0.0,0.0,0.0,0.0,0.0,0.0,0.0,0.0,0.0,0.00864512475919646,-0.5206316742821969,9.807659068456335,0.0,0.0,0.0,0.0,0.0,0.0,0.0,0.0,0.0
2025/05/21 12:18:50.777616375,1747822730,777215484,mA1/imu,0.043548676989153955,0.9990507878489258,0.0006328842243990838,0.0007971753218258054,0.0,0.0,0.0,0.0,0.0,0.0,0.0,0.0,0.0,0.000500771777831653,-0.0025254911935857216,0.0026116938526175074,0.0,0.0,0.0,0.0,0.0,0.0,0.0,0.0,0.0,0.015061043450038116,0.051959072422412655,9.810730803062965,0.0,0.0,0.0,0.0,0.0,0.0,0.0,0.0,0.0
2025/05/21 12:18:50.829986201,1747822730,829667871,mA1/imu,0.043610344766485766,0.9990480444763922,0.0006411307805887484,0.0008553411992923203,0.0,0.0,0.0,0.0,0.0,0.0,0.0,0.0,0.0,0.0003514678213219513,-0.0022288081898195903,0.002291621493012979,0.0,0.0,0.0,0.0,0.0,0.0,0.0,0.0,0.0,0.024807384535447778,0.0558189143524348,9.810580036580802,0.0,0.0,0.0,0.0,0.0,0.0,0.0,0.0,0.0
2025/05/21 12:18:50.879722363,1747822730,879508804,mA1/imu,0.04366378801862269,0.9990456581507654,0.0006553540571282635,0.0009039120691388913,0.0,0.0,0.0,0.0,0.0,0.0,0.0,0.0,0.0,-0.0003030629821671717,-0.0016831613358107432,0.0020797823427906263,0.0,0.0,0.0,0.0,0.0,0.0,0.0,0.0,0.0,0.017436873881722638,0.017396032669870113,9.808631564702106,0.0,0.0,0.0,0.0,0.0,0.0,0.0,0.0,0.0
2025/05/21 12:18:50.930778683,1747822730,930523584,mA1/imu,0.043714292882158154,0.9990434097041356,0.0006719836580400446,0.000935180469571742,0.0,0.0,0.0,0.0,0.0,0.0,0.0,0.0,0.0,-0.0006273866732258124,-0.0009322326340087126,0.0019666284515025725,0.0,0.0,0.0,0.0,0.0,0.0,0.0,0.0,0.0,0.016613233801806994,0.0001059663236609356,9.809428462259909,0.0,0.0,0.0,0.0,0.0,0.0,0.0,0.0,0.0
2025/05/21 12:18:50.980806003,1747822730,980470974,mA1/imu,0.04376207722984876,0.9990412974353272,0.0006854707521687994,0.0009469662692014275,0.0,0.0,0.0,0.0,0.0,0.0,0.0,0.0,0.0,0.0003663213444008379,-0.00010546717965916699,0.0018900160811350832,0.0,0.0,0.0,0.0,0.0,0.0,0.0,0.0,0.0,0.01224589096950627,-0.41217987390552546,9.809521083925286,0.0,0.0,0.0,0.0,0.0,0.0,0.0,0.0,0.0
2025/05/21 12:18:51.31824413,1747822731,31525900,mA1/imu,0.043811038799641384,0.9990391500368824,0.0007047076203023446,0.0009343233112786934,0.0,0.0,0.0,0.0,0.0,0.0,0.0,0.0,0.0,-0.0008691977015034223,0.0010495828650010106,0.002094528673825974,0.0,0.0,0.0,0.0,0.0,0.0,0.0,0.0,0.0,-0.0022249583905667933,0.03868851389552702,9.810819196279569,0.0,0.0,0.0,0.0,0.0,0.0,0.0,0.0,0.0
2025/05/21 12:18:51.81497931,1747822731,81302337,mA1/imu,0.04386382337602172,0.9990368557770317,0.0007227785416447558,0.0008963197862141297,0.0,0.0,0.0,0.0,0.0,0.0,0.0,0.0,0.0,-0.0016206728221239291,0.0017928672196126753,0.00206304813506336,0.0,0.0,0.0,0.0,0.0,0.0,0.0,0.0,0.0,0.017928771386449275,0.5574047407802231,9.810776644728607,0.0,0.0,0.0,0.0,0.0,0.0,0.0,0.0,0.0
2025/05/21 12:18:51.134757472,1747822731,133581948,mA1/imu,0.04391229771065155,0.9990347577105949,0.0007405426072493263,0.000845335762175448,0.0,0.0,0.0,0.0,0.0,0.0,0.0,0.0,0.0,-0.0006716769737007211,0.002179813302397541,0.0017856222410257265,0.0,0.0,0.0,0.0,0.0,0.0,0.0,0.0,0.0,0.02484279935074744,0.2805952540966656,9.809978338516595,0.0,0.0,0.0,0.0,0.0,0.0,0.0,0.0,0.0
2025/05/21 12:18:51.183526419,1747822731,183357220,mA1/imu,0.043953395269803706,0.9990329863173376,0.0007575562456792802,0.0007857497394806336,0.0,0.0,0.0,0.0,0.0,0.0,0.0,0.0,0.0,0.00014268907911401432,0.0025722719599454397,0.001600775004922621,0.0,0.0,0.0,0.0,0.0,0.0,0.0,0.0,0.0,0.01686041072035241,-0.5847370508486853,9.810574715856509,0.0,0.0,0.0,0.0,0.0,0.0,0.0,0.0,0.0
2025/05/21 12:18:51.235728193,1747822731,234322913,mA1/imu,0.043993222376758595,0.999031272379909,0.0007756457139334703,0.0007152381531418219,0.0,0.0,0.0,0.0,0.0,0.0,0.0,0.0,0.0,-0.00040271222096119726,0.003029806920919347,0.0016166131315414442,0.0,0.0,0.0,0.0,0.0,0.0,0.0,0.0,0.0,0.010515678336500885,-0.3644761969233483,9.812459196870185,0.0,0.0,0.0,0.0,0.0,0.0,0.0,0.0,0.0
2025/05/21 12:18:51.284291810,1747822731,284116478,mA1/imu,0.044033457990670336,0.9990295442120888,0.0007871650137378138,0.0006361918037268207,0.0,0.0,0.0,0.0,0.0,0.0,0.0,0.0,0.0,-0.0011531667768440836,0.0032385484212280424,0.0015973790188341394,0.0,0.0,0.0,0.0,0.0,0.0,0.0,0.0,0.0,0.015798470156344252,-0.06301145003980507,9.810935692524943,0.0,0.0,0.0,0.0,0.0,0.0,0.0,0.0,0.0
2025/05/21 12:18:51.335901838,1747822731,335321159,mA1/imu,0.04407222806606434,0.9990278754766715,0.0007958164774268772,0.0005562463442850669,0.0,0.0,0.0,0.0,0.0,0.0,0.0,0.0,0.0,-0.0010266699480152215,0.003138901576054866,0.0015094780021751276,0.0,0.0,0.0,0.0,0.0,0.0,0.0,0.0,0.0,0.021807262135400865,-0.06510354410820543,9.809473742148958,0.0,0.0,0.0,0.0,0.0,0.0,0.0,0.0,0.0
2025/05/21 12:18:51.385257782,1747822731,385019620,mA1/imu,0.044108850866926876,0.9990263114629626,0.0007795099070814572,0.0004802543198943752,0.0,0.0,0.0,0.0,0.0,0.0,0.0,0.0,0.0,8.860738342713866e-05,0.0029446902537391896,0.0014523260928960596,0.0,0.0,0.0,0.0,0.0,0.0,0.0,0.0,0.0,0.016541810696574597,0.6326986637068444,9.811477917513116,0.0,0.0,0.0,0.0,0.0,0.0,0.0,0.0,0.0
2025/05/21 12:18:51.426136632,1747822731,425972683,mA1/imu,0.044144045912951665,0.9990247787068274,0.0007899707714270531,0.0004131420939348367,0.0,0.0,0.0,0.0,0.0,0.0,0.0,0.0,0.0,0.0022939823387398317,0.002485712757885718,0.0013685246495393176,0.0,0.0,0.0,0.0,0.0,0.0,0.0,0.0,0.0,0.0197963787781789,-0.47968300190238833,9.80897853692408,0.0,0.0,0.0,0.0,0.0,0.0,0.0,0.0,0.0
2025/05/21 12:18:51.476233178,1747822731,475914930,mA1/imu,0.0441772900815095,0.9990233270060354,0.0007943717632230111,0.0003579278530678824,0.0,0.0,0.0,0.0,0.0,0.0,0.0,0.0,0.0,0.00044541476063469676,0.0020166321487160785,0.0013202613515796108,0.0,0.0,0.0,0.0,0.0,0.0,0.0,0.0,0.0,0.017117013497188548,0.006531282603952374,9.81094852288758,0.0,0.0,0.0,0.0,0.0,0.0,0.0,0.0,0.0
2025/05/21 12:18:51.527590686,1747822731,527325439,mA1/imu,0.04420933151630757,0.9990219309642152,0.0007855089173849423,0.00031533339960675843,0.0,0.0,0.0,0.0,0.0,0.0,0.0,0.0,0.0,0.00029701864950678155,0.0014029481500671668,0.001202035281794134,0.0,0.0,0.0,0.0,0.0,0.0,0.0,0.0,0.0,0.028850204769950753,-0.015034169711003348,9.813546829646983,0.0,0.0,0.0,0.0,0.0,0.0,0.0,0.0,0.0
2025/05/21 12:18:51.577049226,1747822731,576771769,mA1/imu,0.04423616192543186,0.999020757574374,0.0007767269552990971,0.00029087603513637317,0.0,0.0,0.0,0.0,0.0,0.0,0.0,0.0,0.0,0.00045518355920318973,0.000719539426146689,0.001053884239791889,0.0,0.0,0.0,0.0,0.0,0.0,0.0,0.0,0.0,0.015865206777770077,-0.006181098041768357,9.808588240480173,0.0,0.0,0.0,0.0,0.0,0.0,0.0,0.0,0.0
2025/05/21 12:18:51.628122479,1747822731,627933475,mA1/imu,0.04426274891184606,0.9990195928988281,0.0007639367871904485,0.0002801135693472717,0.0,0.0,0.0,0.0,0.0,0.0,0.0,0.0,0.0,0.0005806659329983208,0.00023132768960256944,0.0010942341570293057,0.0,0.0,0.0,0.0,0.0,0.0,0.0,0.0,0.0,0.01041208735617817,-0.002534424398928991,9.807600892736838,0.0,0.0,0.0,0.0,0.0,0.0,0.0,0.0,0.0
2025/05/21 12:18:51.678164632,1747822731,677719132,mA1/imu,0.04429025917431595,0.9990183910597884,0.0007402753022936628,0.0002815298568812558,0.0,0.0,0.0,0.0,0.0,0.0,0.0,0.0,0.0,0.001370178077107443,-0.00034060084945052634,0.0010916690994784144,0.0,0.0,0.0,0.0,0.0,0.0,0.0,0.0,0.0,0.015661536481954536,0.04352438010062287,9.808107679243964,0.0,0.0,0.0,0.0,0.0,0.0,0.0,0.0,0.0
2025/05/21 12:18:51.730969106,1747822731,728743377,mA1/imu,0.04431712988215785,0.9990172085101656,0.0007214112179063279,0.0002977673903799615,0.0,0.0,0.0,0.0,0.0,0.0,0.0,0.0,0.0,0.0022297334334066676,-0.0009281105540516077,0.0010538151126205312,0.0,0.0,0.0,0.0,0.0,0.0,0.0,0.0,0.0,0.01808525944332095,-0.526316111782789,9.806244639740036,0.0,0.0,0.0,0.0,0.0,0.0,0.0,0.0,0.0
2025/05/21 12:18:51.778962792,1747822731,778596721,mA1/imu,0.04434262107736301,0.9990160812212338,0.0007025597165568551,0.0003283705280318638,0.0,0.0,0.0,0.0,0.0,0.0,0.0,0.0,0.0,0.0011713318653986662,-0.0014579532061938987,0.0010092206095672007,0.0,0.0,0.0,0.0,0.0,0.0,0.0,0.0,0.0,0.014841036281111422,0.02401949582368048,9.80921032728071,0.0,0.0,0.0,0.0,0.0,0.0,0.0,0.0,0.0
2025/05/21 12:18:51.829689971,1747822731,829608540,mA1/imu,0.04436751543563109,0.9990149733238427,0.0006853888800066168,0.0003699877211355417,0.0,0.0,0.0,0.0,0.0,0.0,0.0,0.0,0.0,0.0006365807014394387,-0.0018531402650108335,0.0009778120456511515,0.0,0.0,0.0,0.0,0.0,0.0,0.0,0.0,0.0,0.016235585461023813,-0.00718515532862434,9.807906249731282,0.0,0.0,0.0,0.0,0.0,0.0,0.0,0.0,0.0
2025/05/21 12:18:51.879782554,1747822731,879506620,mA1/imu,0.044391303285226426,0.9990139127894535,0.0006616359512714461,0.00042009952747515736,0.0,0.0,0.0,0.0,0.0,0.0,0.0,0.0,0.0,0.0009054056717293775,-0.0021400834428141027,0.0009422958620409999,0.0,0.0,0.0,0.0,0.0,0.0,0.0,0.0,0.0,0.012863413167305111,0.01341344999099698,9.808119832056281,0.0,0.0,0.0,0.0,0.0,0.0,0.0,0.0,0.0
2025/05/21 12:18:51.930957038,1747822731,930765720,mA1/imu,0.04441464150749435,0.9990128634511948,0.0006423419934569566,0.00047505322733898246,0.0,0.0,0.0,0.0,0.0,0.0,0.0,0.0,0.0,0.002526185948671726,-0.002277517789395182,0.0009264167261957643,0.0,0.0,0.0,0.0,0.0,0.0,0.0,0.0,0.0,0.011257153731831072,-0.4964957870922781,9.807079093370577,0.0,0.0,0.0,0.0,0.0,0.0,0.0,0.0,0.0
2025/05/21 12:18:51.980623199,1747822731,980340155,mA1/imu,0.04443759388993605,0.9990118227635199,0.0006294320616875462,0.0005310774543274661,0.0,0.0,0.0,0.0,0.0,0.0,0.0,0.0,0.0,0.0001320835977377845,-0.0022445043249382838,0.00091160655125264,0.0,0.0,0.0,0.0,0.0,0.0,0.0,0.0,0.0,0.011802248424765032,-0.027951160007978433,9.80981721576769,0.0,0.0,0.0,0.0,0.0,0.0,0.0,0.0,0.0
2025/05/21 12:18:52.31940381,1747822732,31297556,mA1/imu,0.04445978846889615,0.999010810187851,0.000621167267220806,0.000585225034222249,0.0,0.0,0.0,0.0,0.0,0.0,0.0,0.0,0.0,-0.0013272111352561624,-0.002132737808092637,0.0008584145210480379,0.0,0.0,0.0,0.0,0.0,0.0,0.0,0.0,0.0,0.0138872087289727,0.32335093492177486,9.81077662407719,0.0,0.0,0.0,0.0,0.0,0.0,0.0,0.0,0.0
2025/05/21 12:18:52.81640573,1747822732,81169175,mA1/imu,0.044480829138112826,0.9990098534870325,0.0006051107054024613,0.0006342838781647866,0.0,0.0,0.0,0.0,0.0,0.0,0.0,0.0,0.0,-0.00011838677051384217,-0.0018519930923640486,0.0008374293968936681,0.0,0.0,0.0,0.0,0.0,0.0,0.0,0.0,0.0,0.00974957726264207,-0.02497300607460725,9.80882316513948,0.0,0.0,0.0,0.0,0.0,0.0,0.0,0.0,0.0
2025/05/21 12:18:52.132469526,1747822732,132282999,mA1/imu,0.04450127676745064,0.9990089203120691,0.0005992207929239665,0.0006741197385042388,0.0,0.0,0.0,0.0,0.0,0.0,0.0,0.0,0.0,0.00034150251423967735,-0.0014034047047072837,0.0007914611482864101,0.0,0.0,0.0,0.0,0.0,0.0,0.0,0.0,0.0,0.006620298901571315,-0.11581819748518117,9.81017515200473,0.0,0.0,0.0,0.0,0.0,0.0,0.0,0.0,0.0
2025/05/21 12:18:52.182320635,1747822732,182092546,mA1/imu,0.044520558208068266,0.9990080456839595,0.0005939075246570907,0.000701305503900717,0.0,0.0,0.0,0.0,0.0,0.0,0.0,0.0,0.0,0.00033717172889343534,-0.0008960197756075039,0.0007661898651942831,0.0,0.0,0.0,0.0,0.0,0.0,0.0,0.0,0.0,0.009381421261508456,0.02681021928486941,9.811421237346448,0.0,0.0,0.0,0.0,0.0,0.0,0.0,0.0,0.0
2025/05/21 12:18:52.234358861,1747822732,234137765,mA1/imu,0.04453906613673167,0.9990072067743551,0.0005990953119234758,0.0007165789389808266,0.0,0.0,0.0,0.0,0.0,0.0,0.0,0.0,0.0,-0.0007064749482181958,-0.00042229937218723573,0.0007071895996407669,0.0,0.0,0.0,0.0,0.0,0.0,0.0,0.0,0.0,0.01277605281171582,0.4178855737693622,9.813217888538231,0.0,0.0,0.0,0.0,0.0,0.0,0.0,0.0,0.0
2025/05/21 12:18:52.283464016,1747822732,283319714,mA1/imu,0.04455610664714303,0.9990064399288993,0.0006070563824767619,0.0007195995992759374,0.0,0.0,0.0,0.0,0.0,0.0,0.0,0.0,0.0,0.0008752537354900623,0.00011106741882840601,0.000678455892339748,0.0,0.0,0.0,0.0,0.0,0.0,0.0,0.0,0.0,0.008820514855527935,-0.5350728635969658,9.81039585381917,0.0,0.0,0.0,0.0,0.0,0.0,0.0,0.0,0.0
2025/05/21 12:18:52.334799499,1747822732,334375918,mA1/imu,0.044572889105805986,0.9990056895435044,0.0006224475775085541,0.0007087845100662275,0.0,0.0,0.0,0.0,0.0,0.0,0.0,0.0,0.0,-0.001446772740967616,0.0006795890192301158,0.0006690450878005371,0.0,0.0,0.0,0.0,0.0,0.0,0.0,0.0,0.0,0.009559081469309451,0.5335509082674517,9.812270714387553,0.0,0.0,0.0,0.0,0.0,0.0,0.0,0.0,0.0
2025/05/21 12:18:52.384604062,1747822732,384293202,mA1/imu,0.04458944120164962,0.9990049579460912,0.0006380279150926437,0.0006845822322856615,0.0,0.0,0.0,0.0,0.0,0.0,0.0,0.0,0.0,-0.001790315791840704,0.0011937016873350297,0.0006602597433212833,0.0,0.0,0.0,0.0,0.0,0.0,0.0,0.0,0.0,0.009750048762957342,0.3405482916328378,9.812655865833895,0.0,0.0,0.0,0.0,0.0,0.0,0.0,0.0,0.0
2025/05/21 12:18:52.435921078,1747822732,435535590,mA1/imu,0.044605344386371794,0.9990042642940498,0.000648991416409042,0.0006496034319858761,0.0,0.0,0.0,0.0,0.0,0.0,0.0,0.0,0.0,-0.0016045285914500819,0.0015606205814030019,0.0006153438108865354,0.0,0.0,0.0,0.0,0.0,0.0,0.0,0.0,0.0,0.011019640922698918,0.5624425559681088,9.811945803574508,0.0,0.0,0.0,0.0,0.0,0.0,0.0,0.0,0.0
2025/05/21 12:18:52.485886759,1747822732,485514158,mA1/imu,0.04462046906388892,0.9990036052041577,0.0006652738597817916,0.0006065808318994975,0.0,0.0,0.0,0.0,0.0,0.0,0.0,0.0,0.0,0.0002866546467641286,0.0018679024658863788,0.000603757501799328,0.0,0.0,0.0,0.0,0.0,0.0,0.0,0.0,0.0,0.009869191080198616,-0.17616906462065982,9.811879496414594,0.0,0.0,0.0,0.0,0.0,0.0,0.0,0.0,0.0
2025/05/21 12:18:52.526996128,1747822732,526502743,mA1/imu,0.04463536444838549,0.9990029549609992,0.0006855146170956737,0.0005570363198494783,0.0,0.0,0.0,0.0,0.0,0.0,0.0,0.0,0.0,-0.0006356064277638439,0.0020936191400874374,0.0005946395336358965,0.0,0.0,0.0,0.0,0.0,0.0,0.0,0.0,0.0,0.01084093632038085,0.3479362699502754,9.812043963333783,0.0,0.0,0.0,0.0,0.0,0.0,0.0,0.0,0.0
2025/05/21 12:18:52.576500952,1747822732,576217999,mA1/imu,0.04465003516209448,0.9990023100617399,0.000710422544961387,0.0005041340485318882,0.0,0.0,0.0,0.0,0.0,0.0,0.0,0.0,0.0,-0.00220868572866237,0.0021976571938737686,0.0005857324280549771,0.0,0.0,0.0,0.0,0.0,0.0,0.0,0.0,0.0,0.010794421729941061,0.5258507950558159,9.810923699682604,0.0,0.0,0.0,0.0,0.0,0.0,0.0,0.0,0.0
2025/05/21 12:18:52.627526346,1747822732,627248339,mA1/imu,0.0446639933408911,0.9990017030135572,0.0007222137395309548,0.0004510899819082667,0.0,0.0,0.0,0.0,0.0,0.0,0.0,0.0,0.0,-0.00012483312979539156,0.0020819414092593078,0.0005270551952829387,0.0,0.0,0.0,0.0,0.0,0.0,0.0,0.0,0.0,0.015230921840669771,0.03572248310980095,9.809211793181394,0.0,0.0,0.0,0.0,0.0,0.0,0.0,0.0,0.0
2025/05/21 12:18:52.677458602,1747822732,677154585,mA1/imu,0.04467658315504554,0.9990011469336763,0.0007412387094274626,0.0004023778888495302,0.0,0.0,0.0,0.0,0.0,0.0,0.0,0.0,0.0,3.6326815263965695e-06,0.0019012300878903411,0.000502969871663246,0.0,0.0,0.0,0.0,0.0,0.0,0.0,0.0,0.0,0.012261861384862488,0.034593020084280335,9.810300022971798,0.0,0.0,0.0,0.0,0.0,0.0,0.0,0.0,0.0
2025/05/21 12:18:52.728391237,1747822732,728101009,mA1/imu,0.04468969886009286,0.9990005669990397,0.0007548550182095032,0.00035797387161389356,0.0,0.0,0.0,0.0,0.0,0.0,0.0,0.0,0.0,-0.00037858434444722124,0.0017513816339387823,0.0005665098072012912,0.0,0.0,0.0,0.0,0.0,0.0,0.0,0.0,0.0,0.006144854887587193,0.21782819477080098,9.810830529810442,0.0,0.0,0.0,0.0,0.0,0.0,0.0,0.0,0.0
2025/05/21 12:18:52.778171682,1747822732,777897324,mA1/imu,0.044703586985041524,0.9989999449986584,0.0007722969228927886,0.00032056327221048544,0.0,0.0,0.0,0.0,0.0,0.0,0.0,0.0,0.0,-0.0009448895005220716,0.0013298783003620391,0.0005255164925320675,0.0,0.0,0.0,0.0,0.0,0.0,0.0,0.0,0.0,0.015701023198402844,-0.041276898722390286,9.810023006086993,0.0,0.0,0.0,0.0,0.0,0.0,0.0,0.0,0.0
2025/05/21 12:18:52.829185340,1747822732,828985806,mA1/imu,0.04471618797493523,0.9989993879086941,0.000773783900910325,0.0002945327142140319,0.0,0.0,0.0,0.0,0.0,0.0,0.0,0.0,0.0,0.0007144291497279453,0.0008235363811631399,0.00047606406541235034,0.0,0.0,0.0,0.0,0.0,0.0,0.0,0.0,0.0,0.01637921745684115,-0.5678450203061006,9.80728641679014,0.0,0.0,0.0,0.0,0.0,0.0,0.0,0.0,0.0
2025/05/21 12:18:52.879302607,1747822732,878958142,mA1/imu,0.04472687936346218,0.9989989128971963,0.0007735618184784575,0.00028265657457622053,0.0,0.0,0.0,0.0,0.0,0.0,0.0,0.0,0.0,0.0006481523247480389,0.0002301368376844491,0.00039733411497158277,0.0,0.0,0.0,0.0,0.0,0.0,0.0,0.0,0.0,0.016683096513807397,0.044302701385014326,9.80798832602243,0.0,0.0,0.0,0.0,0.0,0.0,0.0,0.0,0.0
2025/05/21 12:18:52.930364161,1747822732,930032816,mA1/imu,0.044733555851887714,0.9989986094140445,0.000777480897845831,0.0002879116265793922,0.0,0.0,0.0,0.0,0.0,0.0,0.0,0.0,0.0,-0.0008093801575184652,-0.0005595582771428983,0.00011128915680465437,0.0,0.0,0.0,0.0,0.0,0.0,0.0,0.0,0.0,0.025419518836279215,0.5637465949116317,9.810407835746126,0.0,0.0,0.0,0.0,0.0,0.0,0.0,0.0,0.0
2025/05/21 12:18:52.980200503,1747822732,979890643,mA1/imu,0.04473343810793985,0.998998608820629,0.0007760673291822902,0.00031114143322365467,0.0,0.0,0.0,0.0,0.0,0.0,0.0,0.0,0.0,-0.0004983945894774004,-0.0011218430968806697,-3.709870570107011e-05,0.0,0.0,0.0,0.0,0.0,0.0,0.0,0.0,0.0,0.014002011802856287,-0.04928153064082862,9.808818158754383,0.0,0.0,0.0,0.0,0.0,0.0,0.0,0.0,0.0
2025/05/21 12:18:53.33099735,1747822733,32512094,mA1/imu,0.044731398970489195,0.9989986994923601,0.0007622162793446847,0.0003455214315660266,0.0,0.0,0.0,0.0,0.0,0.0,0.0,0.0,0.0,0.0012454610827106773,-0.00156413232828675,-0.0001134157077194326,0.0,0.0,0.0,0.0,0.0,0.0,0.0,0.0,0.0,0.013965707347181534,-0.5714535228312263,9.806484699961796,0.0,0.0,0.0,0.0,0.0,0.0,0.0,0.0,0.0
2025/05/21 12:18:53.82720636,1747822733,82446977,mA1/imu,0.04472749284094204,0.998998872875528,0.000743001201782589,0.00038900745805552843,0.0,0.0,0.0,0.0,0.0,0.0,0.0,0.0,0.0,0.001356076601943028,-0.0018994101018882626,-0.00018647167993828478,0.0,0.0,0.0,0.0,0.0,0.0,0.0,0.0,0.0,0.013809477404010562,0.05396198560125483,9.808029302480803,0.0,0.0,0.0,0.0,0.0,0.0,0.0,0.0,0.0
2025/05/21 12:18:53.133913126,1747822733,133645411,mA1/imu,0.044722544994532196,0.9989990826929286,0.0007306712706610924,0.00043916670373802614,0.0,0.0,0.0,0.0,0.0,0.0,0.0,0.0,0.0,0.0003309901829122262,-0.002108766812292393,-0.0001795910759398301,0.0,0.0,0.0,0.0,0.0,0.0,0.0,0.0,0.0,0.012658195039936544,0.06748975562332453,9.808733165809244,0.0,0.0,0.0,0.0,0.0,0.0,0.0,0.0,0.0
2025/05/21 12:18:53.183694533,1747822733,183494235,mA1/imu,0.04471928316203945,0.9989992217104747,0.0007055877095695887,0.0004928299133743234,0.0,0.0,0.0,0.0,0.0,0.0,0.0,0.0,0.0,0.0015370276577267978,-0.0022501300175839798,-9.677950965355948e-05,0.0,0.0,0.0,0.0,0.0,0.0,0.0,0.0,0.0,0.014828070540075983,-0.06700985675017804,9.809523172789198,0.0,0.0,0.0,0.0,0.0,0.0,0.0,0.0,0.0
2025/05/21 12:18:53.234993268,1747822733,234739372,mA1/imu,0.04471788083445567,0.9989992685245197,0.0006873554787494695,0.0005478718790192416,0.0,0.0,0.0,0.0,0.0,0.0,0.0,0.0,0.0,-7.40710381956218e-05,-0.00220802860900562,-5.742882676837947e-05,0.0,0.0,0.0,0.0,0.0,0.0,0.0,0.0,0.0,0.01247303454174887,0.56914542647668,9.809441888048134,0.0,0.0,0.0,0.0,0.0,0.0,0.0,0.0,0.0
2025/05/21 12:18:53.285158213,1747822733,284999129,mA1/imu,0.04471556970916998,0.9989993600474196,0.0006601085854898062,0.000600588949098763,0.0,0.0,0.0,0.0,0.0,0.0,0.0,0.0,0.0,0.0021288233790168407,-0.0020932160911743794,-0.00011980978941022635,0.0,0.0,0.0,0.0,0.0,0.0,0.0,0.0,0.0,0.01193809315429396,-0.24084366491386933,9.809635357266345,0.0,0.0,0.0,0.0,0.0,0.0,0.0,0.0,0.0
2025/05/21 12:18:53.326793153,1747822733,326542749,mA1/imu,0.044711540337739636,0.9989995181673216,0.0006484685925957374,0.0006483444842551014,0.0,0.0,0.0,0.0,0.0,0.0,0.0,0.0,0.0,0.0008386312525650156,-0.001820572072280853,-0.00018703062391399388,0.0,0.0,0.0,0.0,0.0,0.0,0.0,0.0,0.0,0.011839460618531712,0.005489670002906793,9.809302471867323,0.0,0.0,0.0,0.0,0.0,0.0,0.0,0.0,0.0
2025/05/21 12:18:53.376142325,1747822733,375801772,mA1/imu,0.044705943383179354,0.9989997548827271,0.0006289205785793446,0.0006876258990875916,0.0,0.0,0.0,0.0,0.0,0.0,0.0,0.0,0.0,-0.00021828928683856764,-0.0014501164325532332,-0.00025151220031298957,0.0,0.0,0.0,0.0,0.0,0.0,0.0,0.0,0.0,0.012284106270494219,0.3711921962022689,9.810187038098396,0.0,0.0,0.0,0.0,0.0,0.0,0.0,0.0,0.0
2025/05/21 12:18:53.427336084,1747822733,427092849,mA1/imu,0.04469906497882733,0.9990000536948578,0.0006102370081640462,0.0007168810805559518,0.0,0.0,0.0,0.0,0.0,0.0,0.0,0.0,0.0,0.0011759775518170644,-0.0010377648126464797,-0.0002747325604900262,0.0,0.0,0.0,0.0,0.0,0.0,0.0,0.0,0.0,0.012990570387722654,-0.5849353615373379,9.811355779680017,0.0,0.0,0.0,0.0,0.0,0.0,0.0,0.0,0.0
2025/05/21 12:18:53.476983415,1747822733,476613418,mA1/imu,0.04469269875112338,0.9990003346435773,0.0005946649869053531,0.0007351421054320682,0.0,0.0,0.0,0.0,0.0,0.0,0.0,0.0,0.0,0.0010185384859721204,-0.0005700387875840939,-0.0002685261145582814,0.0,0.0,0.0,0.0,0.0,0.0,0.0,0.0,0.0,0.012765689851285934,-0.07577087573628484,9.81189736011832,0.0,0.0,0.0,0.0,0.0,0.0,0.0,0.0,0.0
2025/05/21 12:18:53.528091056,1747822733,527918819,mA1/imu,0.04468621007678898,0.9990006239475058,0.0005905661299243868,0.0007397385441237072,0.0,0.0,0.0,0.0,0.0,0.0,0.0,0.0,0.0,-0.0005260275145166975,0.00011349249250446095,-0.00021720554707726586,0.0,0.0,0.0,0.0,0.0,0.0,0.0,0.0,0.0,0.003553230049470767,0.5372149207816608,9.8131996724072,0.0,0.0,0.0,0.0,0.0,0.0,0.0,0.0,0.0
2025/05/21 12:18:53.577563785,1747822733,577384623,mA1/imu,0.044680934110601124,0.9990008714119804,0.0005858174905524981,0.0007279168742117135,0.0,0.0,0.0,0.0,0.0,0.0,0.0,0.0,0.0,0.0006081758646560223,0.0006434757576986156,-0.0002296132157494106,0.0,0.0,0.0,0.0,0.0,0.0,0.0,0.0,0.0,0.012845951526418676,-0.19635068242163892,9.81200568378763,0.0,0.0,0.0,0.0,0.0,0.0,0.0,0.0,0.0
2025/05/21 12:18:53.628568802,1747822733,628351713,mA1/imu,0.044675176877375926,0.9990011430937823,0.0005897000950692997,0.0007049270102757616,0.0,0.0,0.0,0.0,0.0,0.0,0.0,0.0,0.0,-0.0008808182059247945,0.001104815667329023,-0.00020163798870591188,0.0,0.0,0.0,0.0,0.0,0.0,0.0,0.0,0.0,0.013237946747803991,0.4035475694141037,9.812414336746828,0.0,0.0,0.0,0.0,0.0,0.0,0.0,0.0,0.0
2025/05/21 12:18:53.678432513,1747822733,678255267,mA1/imu,0.04467006123528128,0.9990013913112568,0.0005951878266200384,0.0006719664132932515,0.0,0.0,0.0,0.0,0.0,0.0,0.0,0.0,0.0,-0.0005849892571669218,0.001470591748151096,-0.00022526519886666185,0.0,0.0,0.0,0.0,0.0,0.0,0.0,0.0,0.0,0.01372025795266018,0.4048218537883881,9.81266475037948,0.0,0.0,0.0,0.0,0.0,0.0,0.0,0.0,0.0
2025/05/21 12:18:53.732035853,1747822733,729326305,mA1/imu,0.04466355976001382,0.9990017028041659,0.0006040885396472071,0.0006319026639631067,0.0,0.0,0.0,0.0,0.0,0.0,0.0,0.0,0.0,0.0008890846331492618,0.0017022639101345316,-0.00028254058626365114,0.0,0.0,0.0,0.0,0.0,0.0,0.0,0.0,0.0,0.014627860651652691,-0.5402128713154696,9.809728988457168,0.0,0.0,0.0,0.0,0.0,0.0,0.0,0.0,0.0
2025/05/21 12:18:53.779897904,1747822733,779673160,mA1/imu,0.04465568528131961,0.9990020673513097,0.0006271322516453449,0.0005881368920964349,0.0,0.0,0.0,0.0,0.0,0.0,0.0,0.0,0.0,-0.0006492573343159901,0.0018308346726520785,-0.00033085215125926246,0.0,0.0,0.0,0.0,0.0,0.0,0.0,0.0,0.0,0.014737973840194167,-0.009300165636631578,9.812180374951591,0.0,0.0,0.0,0.0,0.0,0.0,0.0,0.0,0.0
2025/05/21 12:18:53.830991594,1747822733,830729508,mA1/imu,0.04464729171936973,0.9990024589742087,0.0006428812028195736,0.0005413033982868122,0.0,0.0,0.0,0.0,0.0,0.0,0.0,0.0,0.0,1.897656243810579e-05,0.0019566300020837655,-0.00031715994343054854,0.0,0.0,0.0,0.0,0.0,0.0,0.0,0.0,0.0,0.01189298856209519,-0.5697962214801624,9.811316024552895,0.0,0.0,0.0,0.0,0.0,0.0,0.0,0.0,0.0
2025/05/21 12:18:53.880749415,1747822733,880573304,mA1/imu,0.0446395943206817,0.9990028099287968,0.0006703057618106841,0.0004930146437149396,0.0,0.0,0.0,0.0,0.0,0.0,0.0,0.0,0.0,-0.0011091582561394587,0.0019710440984666306,-0.0003002323502713795,0.0,0.0,0.0,0.0,0.0,0.0,0.0,0.0,0.0,0.012674877148164688,-0.22746218463416215,9.808883938651507,0.0,0.0,0.0,0.0,0.0,0.0,0.0,0.0,0.0
2025/05/21 12:18:53.931875260,1747822733,931750481,mA1/imu,0.04463267972099166,0.9990031274757449,0.0006906813914252655,0.00044514471715560093,0.0,0.0,0.0,0.0,0.0,0.0,0.0,0.0,0.0,-0.0005340131676057784,0.0019376375525145923,-0.00024167578427650068,0.0,0.0,0.0,0.0,0.0,0.0,0.0,0.0,0.0,0.009500740567720803,-0.6105331514388488,9.808917367497482,0.0,0.0,0.0,0.0,0.0,0.0,0.0,0.0,0.0
2025/05/21 12:18:53.983034671,1747822733,982752027,mA1/imu,0.0446272542175394,0.999003373143589,0.0007132273726098144,0.0003999193031431999,0.0,0.0,0.0,0.0,0.0,0.0,0.0,0.0,0.0,-5.125311134948993e-05,0.0017470986347577256,-0.00021121980313294867,0.0,0.0,0.0,0.0,0.0,0.0,0.0,0.0,0.0,0.013533669633537542,-0.5746250853003442,9.80863523812632,0.0,0.0,0.0,0.0,0.0,0.0,0.0,0.0,0.0
2025/05/21 12:18:54.34776529,1747822734,34585718,mA1/imu,0.04462140888169469,0.9990036318744502,0.0007362061565994205,0.00036245215618041943,0.0,0.0,0.0,0.0,0.0,0.0,0.0,0.0,0.0,-0.0013680293029489584,0.0013553134232055497,-0.0002687796258221091,0.0,0.0,0.0,0.0,0.0,0.0,0.0,0.0,0.0,0.01783020987238044,0.5918077182202448,9.80896588172393,0.0,0.0,0.0,0.0,0.0,0.0,0.0,0.0,0.0
2025/05/21 12:18:54.85326541,1747822734,84414102,mA1/imu,0.044613104350738245,0.9990039928328213,0.0007613833359894816,0.00033692682604003534,0.0,0.0,0.0,0.0,0.0,0.0,0.0,0.0,0.0,-0.0012580294440706615,0.0008755099945425746,-0.0003719713786733808,0.0,0.0,0.0,0.0,0.0,0.0,0.0,0.0,0.0,0.016417623297863747,-0.031370015643447144,9.80749779166353,0.0,0.0,0.0,0.0,0.0,0.0,0.0,0.0,0.0
2025/05/21 12:18:54.127033277,1747822734,126910889,mA1/imu,0.044601604299146454,0.9990044932045055,0.0007844405726403752,0.0003226517309658457,0.0,0.0,0.0,0.0,0.0,0.0,0.0,0.0,0.0,-0.0011487362235190765,0.00031278222945080363,-0.0006368274864537001,0.0,0.0,0.0,0.0,0.0,0.0,0.0,0.0,0.0,0.02886502153335785,-0.04452066089151356,9.810382128992869,0.0,0.0,0.0,0.0,0.0,0.0,0.0,0.0,0.0
2025/05/21 12:18:54.176955671,1747822734,176651925,mA1/imu,0.04458197097915068,0.999005358089532,0.0007980772091079788,0.00032472263334925,0.0,0.0,0.0,0.0,0.0,0.0,0.0,0.0,0.0,0.00044716287199018717,-0.000251052849335381,-0.0008318299847816064,0.0,0.0,0.0,0.0,0.0,0.0,0.0,0.0,0.0,0.015147864858154728,-0.5568338707728337,9.80803310970225,0.0,0.0,0.0,0.0,0.0,0.0,0.0,0.0,0.0
2025/05/21 12:18:54.228352717,1747822734,228179520,mA1/imu,0.04456011605630934,0.999006314216003,0.0008164850049541721,0.0003369953138545927,0.0,0.0,0.0,0.0,0.0,0.0,0.0,0.0,0.0,-0.0010409046470361445,-0.000551340363572556,-0.0008751766877943511,0.0,0.0,0.0,0.0,0.0,0.0,0.0,0.0,0.0,0.005889360057679814,0.4623122746573856,9.807894470066422,0.0,0.0,0.0,0.0,0.0,0.0,0.0,0.0,0.0
2025/05/21 12:18:54.278394781,1747822734,278077828,mA1/imu,0.044539241322998774,0.999007231156223,0.0008266724714528202,0.0003531183561186614,0.0,0.0,0.0,0.0,0.0,0.0,0.0,0.0,0.0,-0.00030361636283735563,-0.0006726089072166517,-0.0008083330236303439,0.0,0.0,0.0,0.0,0.0,0.0,0.0,0.0,0.0,0.005353854787055776,0.0006214771066950925,9.806629695196435,0.0,0.0,0.0,0.0,0.0,0.0,0.0,0.0,0.0
2025/05/21 12:18:54.329792781,1747822734,329318199,mA1/imu,0.044516777775977574,0.999008213870908,0.0008392018325142633,0.000375306789818754,0.0,0.0,0.0,0.0,0.0,0.0,0.0,0.0,0.0,0.0004293330962464927,-0.0011368073604162022,-0.0010818974917510442,0.0,0.0,0.0,0.0,0.0,0.0,0.0,0.0,0.0,0.025191441552781562,-0.6001125872323309,9.808693571924374,0.0,0.0,0.0,0.0,0.0,0.0,0.0,0.0,0.0
2025/05/21 12:18:54.379162318,1747822734,378903422,mA1/imu,0.04448793824889816,0.9990094859472107,0.0008398494164362804,0.0004061906076962271,0.0,0.0,0.0,0.0,0.0,0.0,0.0,0.0,0.0,0.0004419682886346419,-0.0012048234735179849,-0.0011240980518098112,0.0,0.0,0.0,0.0,0.0,0.0,0.0,0.0,0.0,0.003369679052190061,-0.5973822007435393,9.808374629358767,0.0,0.0,0.0,0.0,0.0,0.0,0.0,0.0,0.0
2025/05/21 12:18:54.430182658,1747822734,429997085,mA1/imu,0.044460812712707146,0.9990106828089199,0.0008382718024769447,0.00043481831397584794,0.0,0.0,0.0,0.0,0.0,0.0,0.0,0.0,0.0,0.000296649920748632,-0.0011011364572096663,-0.0010592527940937397,0.0,0.0,0.0,0.0,0.0,0.0,0.0,0.0,0.0,0.0028986961482586207,0.01174067540652321,9.808142506637033,0.0,0.0,0.0,0.0,0.0,0.0,0.0,0.0,0.0
2025/05/21 12:18:54.480217743,1747822734,479954393,mA1/imu,0.044435342570267246,0.9990118016935845,0.0008419088253205735,0.00045999688160654206,0.0,0.0,0.0,0.0,0.0,0.0,0.0,0.0,0.0,-0.0015494615457415538,-0.0009043925562199135,-0.0009939939753617543,0.0,0.0,0.0,0.0,0.0,0.0,0.0,0.0,0.0,0.0022226771662402015,0.5021688040374255,9.80980319220231,0.0,0.0,0.0,0.0,0.0,0.0,0.0,0.0,0.0
2025/05/21 12:18:54.531461038,1747822734,531038500,mA1/imu,0.04441085685568756,0.9990128970600228,0.0008237411114557902,0.0004782799022429033,0.0,0.0,0.0,0.0,0.0,0.0,0.0,0.0,0.0,1.4664408667820759e-05,-0.0006353360190205151,-0.0010151648192122016,0.0,0.0,0.0,0.0,0.0,0.0,0.0,0.0,0.0,0.002220275532105574,-0.03913809774561325,9.811672324348208,0.0,0.0,0.0,0.0,0.0,0.0,0.0,0.0,0.0
2025/05/21 12:18:54.580961540,1747822734,580715195,mA1/imu,0.04438573859707767,0.9990140173295238,0.000811986817527943,0.0004899650255223218,0.0,0.0,0.0,0.0,0.0,0.0,0.0,0.0,0.0,0.0012934287219888469,-0.00038596409369626877,-0.0009799645322905485,0.0,0.0,0.0,0.0,0.0,0.0,0.0,0.0,0.0,0.0028736416755503324,0.04309882844326194,9.811765888432463,0.0,0.0,0.0,0.0,0.0,0.0,0.0,0.0,0.0
2025/05/21 12:18:54.632076465,1747822734,631669197,mA1/imu,0.044361918545379964,0.9990150825814452,0.0008000611742934396,0.0004948331826774042,0.0,0.0,0.0,0.0,0.0,0.0,0.0,0.0,0.0,-0.00017979883010489316,-0.00013435367784636593,-0.0009590021683990386,0.0,0.0,0.0,0.0,0.0,0.0,0.0,0.0,0.0,0.010470320475325437,0.5627467929368885,9.811200513064984,0.0,0.0,0.0,0.0,0.0,0.0,0.0,0.0,0.0
2025/05/21 12:18:54.681662347,1747822734,681483188,mA1/imu,0.04433732094049662,0.9990161865817793,0.0007848395331554058,0.0004949205252355166,0.0,0.0,0.0,0.0,0.0,0.0,0.0,0.0,0.0,6.774927038146982e-05,8.594573199771585e-05,-0.0009755251389238438,0.0,0.0,0.0,0.0,0.0,0.0,0.0,0.0,0.0,0.0017744208877029342,-0.054607438861238644,9.810833919579139,0.0,0.0,0.0,0.0,0.0,0.0,0.0,0.0,0.0
2025/05/21 12:18:54.732976996,1747822734,732670310,mA1/imu,0.04431284203116158,0.9990172960538615,0.0007597888999643412,0.0004867619336567605,0.0,0.0,0.0,0.0,0.0,0.0,0.0,0.0,0.0,0.0017289001225505743,0.000420169729934072,-0.00101761015428259,0.0,0.0,0.0,0.0,0.0,0.0,0.0,0.0,0.0,0.0010163728321976855,-0.5823258779745452,9.812603428958885,0.0,0.0,0.0,0.0,0.0,0.0,0.0,0.0,0.0
2025/05/21 12:18:54.786236312,1747822734,785583189,mA1/imu,0.04428730325105784,0.9990184551235355,0.000734491884588679,0.00047076002901745,0.0,0.0,0.0,0.0,0.0,0.0,0.0,0.0,0.0,0.001638751350852482,0.0007051082468063109,-0.0010024389729642684,0.0,0.0,0.0,0.0,0.0,0.0,0.0,0.0,0.0,0.0020960171057167786,0.04146970309614338,9.813107878286853,0.0,0.0,0.0,0.0,0.0,0.0,0.0,0.0,0.0
2025/05/21 12:18:54.826483383,1747822734,826241995,mA1/imu,0.044262979596131076,0.9990195560740709,0.0007170558288163374,0.0004483857460828292,0.0,0.0,0.0,0.0,0.0,0.0,0.0,0.0,0.0,3.512271871851902e-05,0.0009589229689544398,-0.0009535939224360899,0.0,0.0,0.0,0.0,0.0,0.0,0.0,0.0,0.0,0.002410523946689145,0.5630031114315277,9.812296983043561,0.0,0.0,0.0,0.0,0.0,0.0,0.0,0.0,0.0
2025/05/21 12:18:54.876323925,1747822734,876075073,mA1/imu,0.04423990488108589,0.9990206023888346,0.0006998935283115143,0.0004206754232706664,0.0,0.0,0.0,0.0,0.0,0.0,0.0,0.0,0.0,0.0001329367807767901,0.001151868673445215,-0.0009040347145447002,0.0,0.0,0.0,0.0,0.0,0.0,0.0,0.0,0.0,0.002101599281915171,-0.055062740885246104,9.811286055624814,0.0,0.0,0.0,0.0,0.0,0.0,0.0,0.0,0.0
2025/05/21 12:18:54.927420337,1747822734,927228753,mA1/imu,0.044217090578208676,0.9990216407654707,0.0006765047042064651,0.0003905437879528778,0.0,0.0,0.0,0.0,0.0,0.0,0.0,0.0,0.0,0.001647053093435318,0.001112858369512501,-0.0009563475465094589,0.0,0.0,0.0,0.0,0.0,0.0,0.0,0.0,0.0,0.010945215611525862,-0.5785260015325246,9.811785852192758,0.0,0.0,0.0,0.0,0.0,0.0,0.0,0.0,0.0
2025/05/21 12:18:54.977091973,1747822734,976913745,mA1/imu,0.044192992737045134,0.9990227314658425,0.000655997036922979,0.00036204330953418744,0.0,0.0,0.0,0.0,0.0,0.0,0.0,0.0,0.0,0.001413458926502683,0.0011230215938728215,-0.0009442154656036541,0.0,0.0,0.0,0.0,0.0,0.0,0.0,0.0,0.0,0.0024661835384822053,0.03723175062963245,9.812509781213315,0.0,0.0,0.0,0.0,0.0,0.0,0.0,0.0,0.0
2025/05/21 12:18:55.28565593,1747822735,28207919,mA1/imu,0.04418326823044338,0.9990231851304407,0.0006451037211841389,0.0003134030868261469,0.0,0.0,0.0,0.0,0.0,0.0,0.0,0.0,0.0,-0.00023899977403260363,0.003111018459774892,0.000420524205946647,0.0,0.0,0.0,0.0,0.0,0.0,0.0,0.0,0.0,-0.10093378704040984,0.5757218181435857,9.810573743841768,0.0,0.0,0.0,0.0,0.0,0.0,0.0,0.0,0.0
2025/05/21 12:18:55.78207614,1747822735,77935086,mA1/imu,0.04420820411169656,0.9990221109057115,0.0006389644982324383,0.00021985241705128623,0.0,0.0,0.0,0.0,0.0,0.0,0.0,0.0,0.0,-0.00012500528511975495,0.0036857896836321536,0.0011355559432403243,0.0,0.0,0.0,0.0,0.0,0.0,0.0,0.0,0.0,-0.0007028850681683775,-0.10646682996289565,9.809104024205718,0.0,0.0,0.0,0.0,0.0,0.0,0.0,0.0,0.0
2025/05/21 12:18:55.129602535,1747822735,129315305,mA1/imu,0.044250028735427605,0.9990202816086763,0.0006312654327523739,0.00011573844761963656,0.0,0.0,0.0,0.0,0.0,0.0,0.0,0.0,0.0,0.0011034014557603845,0.005072785290358452,0.0024798193989381606,0.0,0.0,0.0,0.0,0.0,0.0,0.0,0.0,0.0,-0.09339225899135348,-0.578612619338383,9.809748859667478,0.0,0.0,0.0,0.0,0.0,0.0,0.0,0.0,0.0
2025/05/21 12:18:55.178987575,1747822735,178773147,mA1/imu,0.04432605390819235,0.9990169163933413,0.0006336069268372282,-1.5720368721670813e-05,0.0,0.0,0.0,0.0,0.0,0.0,0.0,0.0,0.0,-0.00048633426147675333,0.0049342597586544724,0.0031645340289591373,0.0,0.0,0.0,0.0,0.0,0.0,0.0,0.0,0.0,0.005892562292885956,0.5874840241642112,9.810173399552498,0.0,0.0,0.0,0.0,0.0,0.0,0.0,0.0,0.0
2025/05/21 12:18:55.229892723,1747822735,229756168,mA1/imu,0.044405001413795005,0.9990133953028401,0.0006463776580466507,-0.00011853630428417856,0.0,0.0,0.0,0.0,0.0,0.0,0.0,0.0,0.0,-0.0006596392586281281,0.003564931880444826,0.0031634120561512867,0.0,0.0,0.0,0.0,0.0,0.0,0.0,0.0,0.0,0.01614698607846811,-0.034887027367743656,9.808724537811493,0.0,0.0,0.0,0.0,0.0,0.0,0.0,0.0,0.0
2025/05/21 12:18:55.279905038,1747822735,279623630,mA1/imu,0.04448398320998107,0.9990098628229866,0.0006596335006044263,-0.00018467218673258294,0.0,0.0,0.0,0.0,0.0,0.0,0.0,0.0,0.0,-0.000987635276155757,0.002066797648658654,0.003166181023890015,0.0,0.0,0.0,0.0,0.0,0.0,0.0,0.0,0.0,0.014383007215584283,-0.035666804304989225,9.808368499323567,0.0,0.0,0.0,0.0,0.0,0.0,0.0,0.0,0.0
2025/05/21 12:18:55.330763971,1747822735,330623484,mA1/imu,0.04456505040761378,0.9990062298272955,0.0006803613440611508,-0.0002148414799780365,0.0,0.0,0.0,0.0,0.0,0.0,0.0,0.0,0.0,-0.0011232011532362795,0.0007889559928923261,0.003361397150183323,0.0,0.0,0.0,0.0,0.0,0.0,0.0,0.0,0.0,-4.8377751278676044e-05,-0.031048537894144097,9.80628252047839,0.0,0.0,0.0,0.0,0.0,0.0,0.0,0.0,0.0
2025/05/21 12:18:55.381103443,1747822735,380587721,mA1/imu,0.044649939020704195,0.9990024289386754,0.0006968337746520952,-0.0002105772174484641,0.0,0.0,0.0,0.0,0.0,0.0,0.0,0.0,0.0,0.00022494018093299157,-0.000844550803114058,0.0033699897408698623,0.0,0.0,0.0,0.0,0.0,0.0,0.0,0.0,0.0,0.018839072840821498,-0.5545144994204465,9.806230209750554,0.0,0.0,0.0,0.0,0.0,0.0,0.0,0.0,0.0
2025/05/21 12:18:55.431915115,1747822735,431625339,mA1/imu,0.04473573989641434,0.9989985801219271,0.0007230202565146081,-0.00016652928431288498,0.0,0.0,0.0,0.0,0.0,0.0,0.0,0.0,0.0,-0.0015124118543526227,-0.0021713816136565535,0.003568063673513378,0.0,0.0,0.0,0.0,0.0,0.0,0.0,0.0,0.0,0.0011109046869093048,0.6021600612608198,9.809423765019167,0.0,0.0,0.0,0.0,0.0,0.0,0.0,0.0,0.0
2025/05/21 12:18:55.481587851,1747822735,481373689,mA1/imu,0.0448262075955207,0.9989945165201519,0.0007475709040901161,-9.062568394210344e-05,0.0,0.0,0.0,0.0,0.0,0.0,0.0,0.0,0.0,-0.0012987887140254754,-0.0035937692588001585,0.0035942774881931117,0.0,0.0,0.0,0.0,0.0,0.0,0.0,0.0,0.0,0.018023286898865416,-0.14832624065011207,9.808013984888285,0.0,0.0,0.0,0.0,0.0,0.0,0.0,0.0,0.0
2025/05/21 12:18:55.534278324,1747822735,534062194,mA1/imu,0.04491510922250694,0.9989905088640773,0.000771837825428956,2.0721809219509842e-05,0.0,0.0,0.0,0.0,0.0,0.0,0.0,0.0,0.0,-0.001149591218624636,-0.004917632608752422,0.0035312059924626385,0.0,0.0,0.0,0.0,0.0,0.0,0.0,0.0,0.0,0.01684252649522932,-0.3222406738244647,9.810025457050507,0.0,0.0,0.0,0.0,0.0,0.0,0.0,0.0,0.0
2025/05/21 12:18:55.583841517,1747822735,583664538,mA1/imu,0.045002471758749794,0.9989865543845513,0.0007848457453308845,0.00016034849748373516,0.0,0.0,0.0,0.0,0.0,0.0,0.0,0.0,0.0,-0.0021017499886158246,-0.005926531451103939,0.00346890316861015,0.0,0.0,0.0,0.0,0.0,0.0,0.0,0.0,0.0,0.015877374057575607,0.5509224927170098,9.808202366586222,0.0,0.0,0.0,0.0,0.0,0.0,0.0,0.0,0.0
2025/05/21 12:18:55.635087180,1747822735,634573295,mA1/imu,0.045090676490983236,0.9989825257015823,0.0008028353953462529,0.00031574008445798646,0.0,0.0,0.0,0.0,0.0,0.0,0.0,0.0,0.0,-0.0019729004624918405,-0.006158721853909824,0.0036416344131343847,0.0,0.0,0.0,0.0,0.0,0.0,0.0,0.0,0.0,-0.0047630084981801135,0.5547142295291376,9.808291085659395,0.0,0.0,0.0,0.0,0.0,0.0,0.0,0.0,0.0
2025/05/21 12:18:55.684563937,1747822735,684360500,mA1/imu,0.04518273574597953,0.9989782974263622,0.0008114001976287158,0.00047253714625174415,0.0,0.0,0.0,0.0,0.0,0.0,0.0,0.0,0.0,8.282401301164839e-05,-0.006338151616558518,0.003658077916037539,0.0,0.0,0.0,0.0,0.0,0.0,0.0,0.0,0.0,0.01313808918993366,0.056182986889765786,9.810720968488937,0.0,0.0,0.0,0.0,0.0,0.0,0.0,0.0,0.0
2025/05/21 12:18:55.735746757,1747822735,735382511,mA1/imu,0.04527298475521736,0.9989741158631129,0.0008211754280778779,0.0006311559093861792,0.0,0.0,0.0,0.0,0.0,0.0,0.0,0.0,0.0,0.00027260446045666923,-0.006275360629928157,0.0035692443438559793,0.0,0.0,0.0,0.0,0.0,0.0,0.0,0.0,0.0,0.011671036107756027,0.057722223164186855,9.811865065587474,0.0,0.0,0.0,0.0,0.0,0.0,0.0,0.0,0.0
2025/05/21 12:18:55.775973030,1747822735,775830495,mA1/imu,0.04536122824305363,0.9989699925250745,0.0008368948261413142,0.0007826964828000478,0.0,0.0,0.0,0.0,0.0,0.0,0.0,0.0,0.0,0.00023910591435932798,-0.005841311656695038,0.0035071336817808795,0.0,0.0,0.0,0.0,0.0,0.0,0.0,0.0,0.0,0.011115227483939904,-0.5908497289003548,9.809692643008384,0.0,0.0,0.0,0.0,0.0,0.0,0.0,0.0,0.0
2025/05/21 12:18:55.827520482,1747822735,826903756,mA1/imu,0.045448468825374816,0.9989659197485209,0.0008295502605421268,0.0009163562547873224,0.0,0.0,0.0,0.0,0.0,0.0,0.0,0.0,0.0,0.0009141150346129942,-0.004932532922980309,0.003525793501089172,0.0,0.0,0.0,0.0,0.0,0.0,0.0,0.0,0.0,-0.008672942865702152,-0.5577860890819049,9.80951847142897,0.0,0.0,0.0,0.0,0.0,0.0,0.0,0.0,0.0
2025/05/21 12:18:55.877051709,1747822735,876773277,mA1/imu,0.0455382249321944,0.9989617350421329,0.0008248415621051469,0.0010206017997218203,0.0,0.0,0.0,0.0,0.0,0.0,0.0,0.0,0.0,0.0006163815072344227,-0.0037306774548355468,0.003580072332253369,0.0,0.0,0.0,0.0,0.0,0.0,0.0,0.0,0.0,0.009752898575488724,-0.20976801045556792,9.811456746117319,0.0,0.0,0.0,0.0,0.0,0.0,0.0,0.0,0.0
2025/05/21 12:18:55.928493035,1747822735,928235755,mA1/imu,0.04562781617942541,0.9989575781443272,0.0008122325684674007,0.0010953250529638478,0.0,0.0,0.0,0.0,0.0,0.0,0.0,0.0,0.0,0.0015804176182281895,-0.002526793219960931,0.003615495618507709,0.0,0.0,0.0,0.0,0.0,0.0,0.0,0.0,0.0,0.008870856284026462,-0.5417287185654902,9.809882538011303,0.0,0.0,0.0,0.0,0.0,0.0,0.0,0.0,0.0
2025/05/21 12:18:55.977908267,1747822735,977641280,mA1/imu,0.045718226387070765,0.9989534092038242,0.0007973538916975746,0.0011376479458171723,0.0,0.0,0.0,0.0,0.0,0.0,0.0,0.0,0.0,0.0009148076700999552,-0.0011859710398797836,0.003602617960299207,0.0,0.0,0.0,0.0,0.0,0.0,0.0,0.0,0.0,0.010177788502852093,0.018683630185527874,9.81336206266509,0.0,0.0,0.0,0.0,0.0,0.0,0.0,0.0,0.0
2025/05/21 12:18:56.28992581,1747822736,28816427,mA1/imu,0.04580722957185969,0.9989493329944306,0.0007837626808562523,0.0011460999054834344,0.0,0.0,0.0,0.0,0.0,0.0,0.0,0.0,0.0,0.00045893016707992517,0.00015904078428122064,0.0035236684089597504,0.0,0.0,0.0,0.0,0.0,0.0,0.0,0.0,0.0,0.013115546153636583,-0.022964160125935072,9.813466017134083,0.0,0.0,0.0,0.0,0.0,0.0,0.0,0.0,0.0
2025/05/21 12:18:56.78787717,1747822736,78520605,mA1/imu,0.04589430787970162,0.9989453814314099,0.0007620810900410706,0.001121005579913646,0.0,0.0,0.0,0.0,0.0,0.0,0.0,0.0,0.0,-0.0007088571364067624,0.0015104309922064638,0.0034707810139814927,0.0,0.0,0.0,0.0,0.0,0.0,0.0,0.0,0.0,0.010174294993737551,0.5155396003392289,9.812147613425523,0.0,0.0,0.0,0.0,0.0,0.0,0.0,0.0,0.0
2025/05/21 12:18:56.130063326,1747822736,129761622,mA1/imu,0.04598308908576167,0.9989413798551969,0.0007425678414883876,0.0010600585487597035,0.0,0.0,0.0,0.0,0.0,0.0,0.0,0.0,0.0,-0.0008970110931637772,0.0030839245487529086,0.0036998376474784264,0.0,0.0,0.0,0.0,0.0,0.0,0.0,0.0,0.0,-0.001461031030790004,0.4952961305678506,9.811103009438296,0.0,0.0,0.0,0.0,0.0,0.0,0.0,0.0,0.0
2025/05/21 12:18:56.179557689,1747822736,179338797,mA1/imu,0.046076156829480894,0.9989372076340193,0.0007148566750354068,0.0009653787378786855,0.0,0.0,0.0,0.0,0.0,0.0,0.0,0.0,0.0,-0.00023034439672359799,0.004069816983474918,0.003676209753528308,0.0,0.0,0.0,0.0,0.0,0.0,0.0,0.0,0.0,0.017904032312146437,0.4565802312419171,9.812681428221492,0.0,0.0,0.0,0.0,0.0,0.0,0.0,0.0,0.0
2025/05/21 12:18:56.230454259,1747822736,230314424,mA1/imu,0.04616724798719212,0.9989331232811758,0.0006874982167555822,0.0008530950745810691,0.0,0.0,0.0,0.0,0.0,0.0,0.0,0.0,0.0,0.0005395508485303313,0.004655015878940714,0.0036577790048107394,0.0,0.0,0.0,0.0,0.0,0.0,0.0,0.0,0.0,0.019496335766293556,0.26437262931682853,9.810239752305819,0.0,0.0,0.0,0.0,0.0,0.0,0.0,0.0,0.0
2025/05/21 12:18:56.280414134,1747822736,280175274,mA1/imu,0.04625754373449542,0.9989290641431106,0.0006571889578179744,0.0007297674247795996,0.0,0.0,0.0,0.0,0.0,0.0,0.0,0.0,0.0,0.0019544439011182986,0.004955454641484783,0.003572358975713933,0.0,0.0,0.0,0.0,0.0,0.0,0.0,0.0,0.0,0.021405014419500577,0.051547003888301725,9.808899202743817,0.0,0.0,0.0,0.0,0.0,0.0,0.0,0.0,0.0
2025/05/21 12:18:56.332414712,1747822736,331403237,mA1/imu,0.046345049871020005,0.998925106028671,0.000635473144845874,0.0006042118364470774,0.0,0.0,0.0,0.0,0.0,0.0,0.0,0.0,0.0,0.0022101315748859346,0.004939565875413908,0.003461896885701784,0.0,0.0,0.0,0.0,0.0,0.0,0.0,0.0,0.0,0.022140801182128626,0.08244539673989118,9.809807122225225,0.0,0.0,0.0,0.0,0.0,0.0,0.0,0.0,0.0
2025/05/21 12:18:56.381426755,1747822736,381107520,mA1/imu,0.04642973056996063,0.9989212511489715,0.0006169334881734894,0.00048323415190583587,0.0,0.0,0.0,0.0,0.0,0.0,0.0,0.0,0.0,0.002060273603633644,0.004657402444793409,0.0033524907388702632,0.0,0.0,0.0,0.0,0.0,0.0,0.0,0.0,0.0,0.02240455885881234,0.07735307322045287,9.808329732363331,0.0,0.0,0.0,0.0,0.0,0.0,0.0,0.0,0.0
2025/05/21 12:18:56.432707246,1747822736,432303640,mA1/imu,0.046511743158312635,0.9989174859417281,0.0006117467844906061,0.0003738904978330905,0.0,0.0,0.0,0.0,0.0,0.0,0.0,0.0,0.0,0.0014770687737773959,0.004095285074194902,0.00324672280823547,0.0,0.0,0.0,0.0,0.0,0.0,0.0,0.0,0.0,0.024898507444883478,-0.5762997390350333,9.805706646054709,0.0,0.0,0.0,0.0,0.0,0.0,0.0,0.0,0.0
2025/05/21 12:18:56.482201729,1747822736,481975653,mA1/imu,0.04659101216752963,0.9989138309451812,0.0005971927514531917,0.0002815891418838067,0.0,0.0,0.0,0.0,0.0,0.0,0.0,0.0,0.0,-0.001207430731449238,0.0033530720504339594,0.003135536929045864,0.0,0.0,0.0,0.0,0.0,0.0,0.0,0.0,0.0,0.023196727207440333,0.0917210183170358,9.80865970405311,0.0,0.0,0.0,0.0,0.0,0.0,0.0,0.0,0.0
2025/05/21 12:18:56.533480199,1747822736,533260062,mA1/imu,0.04666797221756655,0.9989102635270863,0.000583963832291494,0.0002116024334720294,0.0,0.0,0.0,0.0,0.0,0.0,0.0,0.0,0.0,0.0005554275819563717,0.002384006504121385,0.0030466654052192688,0.0,0.0,0.0,0.0,0.0,0.0,0.0,0.0,0.0,0.023838345220207634,0.01949198103488769,9.807638473955324,0.0,0.0,0.0,0.0,0.0,0.0,0.0,0.0,0.0
2025/05/21 12:18:56.583227056,1747822736,582937422,mA1/imu,0.04674269625451741,0.9989067792887574,0.0005818837903597569,0.00016747857796955873,0.0,0.0,0.0,0.0,0.0,0.0,0.0,0.0,0.0,0.0006550488517972426,0.0013096906446330538,0.0029565881195454218,0.0,0.0,0.0,0.0,0.0,0.0,0.0,0.0,0.0,0.024830771736270595,0.0007807377076895373,9.807615692498166,0.0,0.0,0.0,0.0,0.0,0.0,0.0,0.0,0.0
2025/05/21 12:18:56.635204734,1747822736,634843018,mA1/imu,0.04681609706578527,0.9989033447049234,0.0005818422804305731,0.00014984126567870837,0.0,0.0,0.0,0.0,0.0,0.0,0.0,0.0,0.0,-0.00019422426328551194,0.00034208815763582827,0.0029691022380939347,0.0,0.0,0.0,0.0,0.0,0.0,0.0,0.0,0.0,0.01503169304114739,0.1998264183339492,9.809230648065016,0.0,0.0,0.0,0.0,0.0,0.0,0.0,0.0,0.0
2025/05/21 12:18:56.685574047,1747822736,683838619,mA1/imu,0.04688985780616232,0.9988998783192815,0.0005911851426150345,0.00015757147483893302,0.0,0.0,0.0,0.0,0.0,0.0,0.0,0.0,0.0,-0.000449100532599456,-0.0007524817346070718,0.0029189914064776065,0.0,0.0,0.0,0.0,0.0,0.0,0.0,0.0,0.0,0.02424682586243657,-0.006043332325678054,9.809152488785346,0.0,0.0,0.0,0.0,0.0,0.0,0.0,0.0,0.0
2025/05/21 12:18:56.735192346,1747822736,734900484,mA1/imu,0.04696135103617287,0.9988965074312512,0.0006012693505460288,0.00019345716221393322,0.0,0.0,0.0,0.0,0.0,0.0,0.0,0.0,0.0,-0.0008097610134231968,-0.0018504244781542855,0.002825971878386814,0.0,0.0,0.0,0.0,0.0,0.0,0.0,0.0,0.0,0.024400931845128253,-0.5710470928486068,9.808820775769005,0.0,0.0,0.0,0.0,0.0,0.0,0.0,0.0,0.0
2025/05/21 12:18:56.785528755,1747822736,784750751,mA1/imu,0.047030804948546695,0.9988932230136596,0.0006062652424678813,0.00025464824920167075,0.0,0.0,0.0,0.0,0.0,0.0,0.0,0.0,0.0,-0.00017028997200847066,-0.002786611597493357,0.002762417489102543,0.0,0.0,0.0,0.0,0.0,0.0,0.0,0.0,0.0,0.02062252310965451,-0.026650415514165,9.808785511982245,0.0,0.0,0.0,0.0,0.0,0.0,0.0,0.0,0.0
2025/05/21 12:18:56.836085688,1747822736,835700856,mA1/imu,0.04709973790792744,0.9988899417406213,0.0006216634479865454,0.0003354295458895809,0.0,0.0,0.0,0.0,0.0,0.0,0.0,0.0,0.0,-0.0017628540978116614,-0.003451536018422219,0.002756047205167219,0.0,0.0,0.0,0.0,0.0,0.0,0.0,0.0,0.0,0.018386287918584272,0.5649067918184266,9.810759805697469,0.0,0.0,0.0,0.0,0.0,0.0,0.0,0.0,0.0
2025/05/21 12:18:56.875720444,1747822736,875486116,mA1/imu,0.0471685120623281,0.9988866520466065,0.000635078158665992,0.0004295447360526375,0.0,0.0,0.0,0.0,0.0,0.0,0.0,0.0,0.0,-0.0022390511406646554,-0.003877738918793087,0.0027487988719301073,0.0,0.0,0.0,0.0,0.0,0.0,0.0,0.0,0.0,0.017067107071510237,0.5405987168999448,9.80896353154058,0.0,0.0,0.0,0.0,0.0,0.0,0.0,0.0,0.0
2025/05/21 12:18:56.927190041,1747822736,926624899,mA1/imu,0.04723763492050743,0.9988833273254045,0.0006502246112133217,0.0005305152216314078,0.0,0.0,0.0,0.0,0.0,0.0,0.0,0.0,0.0,-0.001721647098198449,-0.004021045043396208,0.0027927764656741675,0.0,0.0,0.0,0.0,0.0,0.0,0.0,0.0,0.0,0.012881447074926354,0.32830323743595546,9.811165142383928,0.0,0.0,0.0,0.0,0.0,0.0,0.0,0.0,0.0
2025/05/21 12:18:56.976709089,1747822736,976520604,mA1/imu,0.04730770809566756,0.9988799370895239,0.0006729754320075988,0.000631774352072135,0.0,0.0,0.0,0.0,0.0,0.0,0.0,0.0,0.0,-0.0021714916852535256,-0.003970791396999202,0.0028013020696888544,0.0,0.0,0.0,0.0,0.0,0.0,0.0,0.0,0.0,0.015943713211544665,0.5482852904495481,9.811915247732026,0.0,0.0,0.0,0.0,0.0,0.0,0.0,0.0,0.0
2025/05/21 12:18:57.28078104,1747822737,27555933,mA1/imu,0.047377625612884895,0.9988765494035539,0.0006848188408997127,0.000728468317897243,0.0,0.0,0.0,0.0,0.0,0.0,0.0,0.0,0.0,-0.0005733338662657576,-0.0037106052409444455,0.00279545345683222,0.0,0.0,0.0,0.0,0.0,0.0,0.0,0.0,0.0,0.014213979872604197,0.028358431612432497,9.810436784245686,0.0,0.0,0.0,0.0,0.0,0.0,0.0,0.0,0.0
2025/05/21 12:18:57.77885988,1747822737,77628430,mA1/imu,0.04744742201704466,0.9988731570976155,0.0007023774938361704,0.0008153769896118738,0.0,0.0,0.0,0.0,0.0,0.0,0.0,0.0,0.0,0.0011877296303585427,-0.0032458986804057535,0.002791932318107772,0.0,0.0,0.0,0.0,0.0,0.0,0.0,0.0,0.0,0.014162383676862133,-0.4873077745422878,9.810791580775163,0.0,0.0,0.0,0.0,0.0,0.0,0.0,0.0,0.0
2025/05/21 12:18:57.128920362,1747822737,128676948,mA1/imu,0.04751392457432518,0.9988699117215116,0.0007299821398645263,0.0008908170859517031,0.0,0.0,0.0,0.0,0.0,0.0,0.0,0.0,0.0,-0.0019029071123716932,-0.002920944960905146,0.0024599758926948123,0.0,0.0,0.0,0.0,0.0,0.0,0.0,0.0,0.0,0.03431535987805172,-0.09174234237924951,9.813045027071045,0.0,0.0,0.0,0.0,0.0,0.0,0.0,0.0,0.0
2025/05/21 12:18:57.178471070,1747822737,178298745,mA1/imu,0.04757091478683281,0.9988671361278572,0.0007337298646720011,0.0009560703753232844,0.0,0.0,0.0,0.0,0.0,0.0,0.0,0.0,0.0,-0.0022692283856516715,-0.002247572486796301,0.002226234648501847,0.0,0.0,0.0,0.0,0.0,0.0,0.0,0.0,0.0,0.014062176276015529,0.5259309537404636,9.811506060984838,0.0,0.0,0.0,0.0,0.0,0.0,0.0,0.0,0.0
2025/05/21 12:18:57.229690005,1747822737,229309661,mA1/imu,0.04762743756342854,0.9988643924492457,0.0007485339656965065,0.000996185245237813,0.0,0.0,0.0,0.0,0.0,0.0,0.0,0.0,0.0,-0.00034233987043727357,-0.0011212755171916208,0.002266490131922496,0.0,0.0,0.0,0.0,0.0,0.0,0.0,0.0,0.0,0.00851563512450037,0.019021108165428666,9.813576667826277,0.0,0.0,0.0,0.0,0.0,0.0,0.0,0.0,0.0
2025/05/21 12:18:57.279594170,1747822737,279243958,mA1/imu,0.047683859604455085,0.9988616817477078,0.0007584448319930104,0.0010074873697966035,0.0,0.0,0.0,0.0,0.0,0.0,0.0,0.0,0.0,-0.0002576634535643081,2.5870055037452173e-05,0.0022553085346087233,0.0,0.0,0.0,0.0,0.0,0.0,0.0,0.0,0.0,0.008682462937551406,0.009836113946305146,9.812803849204608,0.0,0.0,0.0,0.0,0.0,0.0,0.0,0.0,0.0
2025/05/21 12:18:57.330781428,1747822737,330397206,mA1/imu,0.04773992775835948,0.9988590154875496,0.0007657544347836102,0.0009899984925676483,0.0,0.0,0.0,0.0,0.0,0.0,0.0,0.0,0.0,-0.0012801208374857214,0.001170702942580527,0.0022221158242020475,0.0,0.0,0.0,0.0,0.0,0.0,0.0,0.0,0.0,0.007870392140488496,0.5495966155731856,9.81173465484394,0.0,0.0,0.0,0.0,0.0,0.0,0.0,0.0,0.0
2025/05/21 12:18:57.380468041,1747822737,380070857,mA1/imu,0.04779422940408984,0.9988564641552572,0.0007642673374929573,0.0009442173286441581,0.0,0.0,0.0,0.0,0.0,0.0,0.0,0.0,0.0,-0.00043767296637639254,0.0022480054152966777,0.0021653321842888,0.0,0.0,0.0,0.0,0.0,0.0,0.0,0.0,0.0,0.008631203912832716,0.3868507491491201,9.812481213851088,0.0,0.0,0.0,0.0,0.0,0.0,0.0,0.0,0.0
2025/05/21 12:18:57.432706325,1747822737,432383236,mA1/imu,0.04784578073672679,0.9988540616363648,0.0007580395571415632,0.0008776071215599474,0.0,0.0,0.0,0.0,0.0,0.0,0.0,0.0,0.0,-0.0002567777937190315,0.002791064826241514,0.001925934037094811,0.0,0.0,0.0,0.0,0.0,0.0,0.0,0.0,0.0,0.02635083358542459,0.5582936094318415,9.811656047421723,0.0,0.0,0.0,0.0,0.0,0.0,0.0,0.0,0.0
2025/05/21 12:18:57.482378313,1747822737,482140602,mA1/imu,0.04789181267953955,0.9988519283067843,0.0007506280550885341,0.0007975923829652918,0.0,0.0,0.0,0.0,0.0,0.0,0.0,0.0,0.0,0.00015862695735020793,0.0034869740733196155,0.001839559071816598,0.0,0.0,0.0,0.0,0.0,0.0,0.0,0.0,0.0,0.009207130408720078,0.6041678987643087,9.810982301718,0.0,0.0,0.0,0.0,0.0,0.0,0.0,0.0,0.0
