time,header_stamp_secs,header_stamp_nsecs,header_frame_id,orientation_x,orientation_y,orientation_z,orientation_w,orientation_covariance_0,orientation_covariance_1,orientation_covariance_2,orientation_covariance_3,orientation_covariance_4,orientation_covariance_5,orientation_covariance_6,orientation_covariance_7,orientation_covariance_8,angular_velocity_x,angular_velocity_y,angular_velocity_z,angular_velocity_covariance_0,angular_velocity_covariance_1,angular_velocity_covariance_2,angular_velocity_covariance_3,angular_velocity_covariance_4,angular_velocity_covariance_5,angular_velocity_covariance_6,angular_velocity_covariance_7,angular_velocity_covariance_8,linear_acceleration_x,linear_acceleration_y,linear_acceleration_z,linear_acceleration_covariance_0,linear_acceleration_covariance_1,linear_acceleration_covariance_2,linear_acceleration_covariance_3,linear_acceleration_covariance_4,linear_acceleration_covariance_5,linear_acceleration_covariance_6,linear_acceleration_covariance_7,linear_acceleration_covariance_8
2025/05/25 19:00:06.821879560,1748192405,870027251,mA1/imu,0.297073216589984,-0.9548542875671164,-0.0008780614364658433,-0.00015002562795686942,0.0,0.0,0.0,0.0,0.0,0.0,0.0,0.0,0.0,-0.0008158769348487437,8.757545317052693e-05,8.629612087465507e-06,0.0,0.0,0.0,0.0,0.0,0.0,0.0,0.0,0.0,0.008017170398743834,0.5539262398445067,9.811305209832714,0.0,0.0,0.0,0.0,0.0,0.0,0.0,0.0,0.0
2025/05/25 19:00:06.835022741,1748192405,921696455,mA1/imu,0.2970730141783028,-0.95485434945035,-0.000879728319853698,-0.00014717625564898183,0.0,0.0,0.0,0.0,0.0,0.0,0.0,0.0,0.0,-0.0006812011957491334,9.439251024155151e-05,8.521845884633367e-06,0.0,0.0,0.0,0.0,0.0,0.0,0.0,0.0,0.0,0.007515272832917719,-0.06329052453058066,9.810317669968306,0.0,0.0,0.0,0.0,0.0,0.0,0.0,0.0,0.0
2025/05/25 19:00:07.770549474,1748192406,820991454,mA1/imu,0.29706983206835286,-0.9548553338296049,-0.0008845940061153298,-0.00015435504232530494,0.0,0.0,0.0,0.0,0.0,0.0,0.0,0.0,0.0,0.0007148793089674469,-2.4454710248976657e-05,6.504759969759445e-06,0.0,0.0,0.0,0.0,0.0,0.0,0.0,0.0,0.0,0.00823729830630096,0.03234370466731437,9.809909766892563,0.0,0.0,0.0,0.0,0.0,0.0,0.0,0.0,0.0
2025/05/25 19:00:07.773505899,1748192406,866509441,mA1/imu,0.2970696785664385,-0.9548553777574404,-0.0008889225556505605,-0.00015316924875263506,0.0,0.0,0.0,0.0,0.0,0.0,0.0,0.0,0.0,-0.0008696327816004379,2.182181290469802e-06,6.407480120639989e-06,0.0,0.0,0.0,0.0,0.0,0.0,0.0,0.0,0.0,0.007916738836680441,0.5536773312948888,9.811227952813926,0.0,0.0,0.0,0.0,0.0,0.0,0.0,0.0,0.0
2025/05/25 19:00:07.780087850,1748192406,917307528,mA1/imu,0.2970695269584276,-0.9548554221431895,-0.0008921395901773734,-0.00015180052305792922,0.0,0.0,0.0,0.0,0.0,0.0,0.0,0.0,0.0,-0.0007148622554838607,2.6713163032769366e-05,6.353386299314598e-06,0.0,0.0,0.0,0.0,0.0,0.0,0.0,0.0,0.0,0.007432026481825062,-0.063382228569492,9.810298044780023,0.0,0.0,0.0,0.0,0.0,0.0,0.0,0.0,0.0
2025/05/25 19:00:07.793286725,1748192406,968544392,mA1/imu,0.2970693760718033,-0.9548554734200714,-0.0008873695257493479,-0.000152497101843939,0.0,0.0,0.0,0.0,0.0,0.0,0.0,0.0,0.0,0.0008879436805812576,3.591181820267739e-05,6.306336379061002e-06,0.0,0.0,0.0,0.0,0.0,0.0,0.0,0.0,0.0,0.007780303589107498,-0.585121292568498,9.808779234276983,0.0,0.0,0.0,0.0,0.0,0.0,0.0,0.0,0.0
2025/05/25 19:00:07.802707659,1748192407,18461928,mA1/imu,0.29706922747676257,-0.954855523743448,-0.0008829141390217226,-0.0001527272352143856,0.0,0.0,0.0,0.0,0.0,0.0,0.0,0.0,0.0,0.0007586922171996655,4.4627178725853315e-05,6.2113289918543055e-06,0.0,0.0,0.0,0.0,0.0,0.0,0.0,0.0,0.0,0.008259046559343569,0.032345454993310485,9.809993805962364,0.0,0.0,0.0,0.0,0.0,0.0,0.0,0.0,0.0
2025/05/25 19:00:07.813022254,1748192407,69637609,mA1/imu,0.29706908240378177,-0.9548555666299317,-0.0008857553654018708,-0.0001503098132359684,0.0,0.0,0.0,0.0,0.0,0.0,0.0,0.0,0.0,-0.0008288853310529314,6.351674002971195e-05,6.1029566567367e-06,0.0,0.0,0.0,0.0,0.0,0.0,0.0,0.0,0.0,0.007961326738394305,0.5536834302873512,9.811271781186164,0.0,0.0,0.0,0.0,0.0,0.0,0.0,0.0,0.0
2025/05/25 19:00:08.770742480,1748192407,818591544,mA1/imu,0.29697711275580313,-0.9548841869494133,-0.0008650200391290318,-0.00018908600282961785,0.0,0.0,0.0,0.0,0.0,0.0,0.0,0.0,0.0,0.0008098646995237675,-0.0002972185751475475,0.0009328726363475447,0.0,0.0,0.0,0.0,0.0,0.0,0.0,0.0,0.0,0.010150175871971506,0.03472771465779554,9.809549071031626,0.0,0.0,0.0,0.0,0.0,0.0,0.0,0.0,0.0
2025/05/25 19:00:08.773912809,1748192407,869756853,mA1/imu,0.296953325328862,-0.9548915796085254,-0.0008693976812322721,-0.00019472169467653152,0.0,0.0,0.0,0.0,0.0,0.0,0.0,0.0,0.0,-0.0008041363470357734,-0.0002540652188615768,0.0010380343897340093,0.0,0.0,0.0,0.0,0.0,0.0,0.0,0.0,0.0,0.009192993317514254,0.556998239110512,9.811322209344876,0.0,0.0,0.0,0.0,0.0,0.0,0.0,0.0,0.0
2025/05/25 19:00:08.780846986,1748192407,919481479,mA1/imu,0.2969270738721551,-0.9548997383704793,-0.0008733221405649288,-0.00019942454480570914,0.0,0.0,0.0,0.0,0.0,0.0,0.0,0.0,0.0,-0.0006807926148557675,-0.0001993883796970036,0.001140002767624421,0.0,0.0,0.0,0.0,0.0,0.0,0.0,0.0,0.0,0.00870206458084128,-0.06012455294207451,9.81048635000046,0.0,0.0,0.0,0.0,0.0,0.0,0.0,0.0,0.0
2025/05/25 19:00:08.794184248,1748192407,970660557,mA1/imu,0.29689854126295384,-0.9549086121631425,-0.0008698523199665858,-0.00020486466926336095,0.0,0.0,0.0,0.0,0.0,0.0,0.0,0.0,0.0,0.0008798019166739588,-0.00013100239672903075,0.0012169422767679653,0.0,0.0,0.0,0.0,0.0,0.0,0.0,0.0,0.0,0.010956729511102362,-0.5845978724576153,9.808743805045802,0.0,0.0,0.0,0.0,0.0,0.0,0.0,0.0,0.0
2025/05/25 19:00:08.807413404,1748192408,20509433,mA1/imu,0.29686962511779824,-0.9549176035195026,-0.0008675569513122997,-0.000208604707571275,0.0,0.0,0.0,0.0,0.0,0.0,0.0,0.0,0.0,0.000696223113919238,-0.00011052833109361132,0.0012072496502258962,0.0,0.0,0.0,0.0,0.0,0.0,0.0,0.0,0.0,0.011310437802372697,0.03292217396620045,9.809904532074226,0.0,0.0,0.0,0.0,0.0,0.0,0.0,0.0,0.0
2025/05/25 19:00:08.817535252,1748192408,72364637,mA1/imu,0.2968409175808237,-0.9549265222610862,-0.0008735888330427955,-0.00020874547274609963,0.0,0.0,0.0,0.0,0.0,0.0,0.0,0.0,0.0,-0.0009399259000306741,-5.502368648835652e-05,0.0011993162636905364,0.0,0.0,0.0,0.0,0.0,0.0,0.0,0.0,0.0,0.010046472561585997,0.5549208418886258,9.811233228309268,0.0,0.0,0.0,0.0,0.0,0.0,0.0,0.0,0.0
2025/05/25 19:00:09.766162924,1748192408,822262256,mA1/imu,0.29645997176216693,-0.955044852373302,-0.0008961646828731898,-0.00010948467652807203,0.0,0.0,0.0,0.0,0.0,0.0,0.0,0.0,0.0,0.0005865399087377374,-0.00031903129728702746,0.00025784126377219666,0.0,0.0,0.0,0.0,0.0,0.0,0.0,0.0,0.0,0.009358405776411045,0.029517323377077853,9.809447793295512,0.0,0.0,0.0,0.0,0.0,0.0,0.0,0.0,0.0
2025/05/25 19:00:09.771577672,1748192408,873549398,mA1/imu,0.29645555532626755,-0.9550462135513283,-0.0009057471783116425,-0.00011541019827478947,0.0,0.0,0.0,0.0,0.0,0.0,0.0,0.0,0.0,-0.0009794489079621403,-0.00036031027821352684,0.00013596404498675862,0.0,0.0,0.0,0.0,0.0,0.0,0.0,0.0,0.0,0.008096232123699055,0.5522887727038777,9.8114204604434,0.0,0.0,0.0,0.0,0.0,0.0,0.0,0.0,0.0
2025/05/25 19:00:09.771646020,1748192408,923294824,mA1/imu,0.2964540107119212,-0.9550466840452458,-0.0009141883969313788,-0.00012282740490287446,0.0,0.0,0.0,0.0,0.0,0.0,0.0,0.0,0.0,-0.0007977897447972969,-0.0003891707617821961,1.7531692491914298e-05,0.0,0.0,0.0,0.0,0.0,0.0,0.0,0.0,0.0,0.007607119837256513,-0.0648421399039803,9.810535729079199,0.0,0.0,0.0,0.0,0.0,0.0,0.0,0.0,0.0
2025/05/25 19:00:09.778179741,1748192408,965824196,mA1/imu,0.296455273197294,-0.955046290555837,-0.0009143503355586565,-0.0001336133132328306,0.0,0.0,0.0,0.0,0.0,0.0,0.0,0.0,0.0,0.0008314944674522933,-0.00042061777464566465,-9.98092417274072e-05,0.0,0.0,0.0,0.0,0.0,0.0,0.0,0.0,0.0,0.008938563710629906,-0.5882246678380205,9.808384830059163,0.0,0.0,0.0,0.0,0.0,0.0,0.0,0.0,0.0
2025/05/25 19:00:09.791639695,1748192409,15866989,mA1/imu,0.29645930147320654,-0.9550450382798501,-0.0009146167534728089,-0.00014457957126582445,0.0,0.0,0.0,0.0,0.0,0.0,0.0,0.0,0.0,0.0006566327921692869,-0.0004260266605252485,-0.0002154056204898115,0.0,0.0,0.0,0.0,0.0,0.0,0.0,0.0,0.0,0.009279280745125707,0.05535826158957647,9.809570985225426,0.0,0.0,0.0,0.0,0.0,0.0,0.0,0.0,0.0
2025/05/25 19:00:09.798856941,1748192409,66747990,mA1/imu,0.29646587248720496,-0.9550429901203876,-0.0009220408474190432,-0.00015268590407407326,0.0,0.0,0.0,0.0,0.0,0.0,0.0,0.0,0.0,-0.0008486200910317468,-0.0003850291330617258,-0.0002964447604981168,0.0,0.0,0.0,0.0,0.0,0.0,0.0,0.0,0.0,0.00809159743773559,0.5541202946455532,9.811127731245113,0.0,0.0,0.0,0.0,0.0,0.0,0.0,0.0,0.0
2025/05/25 19:00:09.809568352,1748192409,116669668,mA1/imu,0.2964723432088817,-0.9550409761372922,-0.0009262034145210939,-0.00016049360704357393,0.0,0.0,0.0,0.0,0.0,0.0,0.0,0.0,0.0,-0.0006093586131301925,-0.00031402527210145975,-0.00025511265973497704,0.0,0.0,0.0,0.0,0.0,0.0,0.0,0.0,0.0,0.007597298774632128,-0.062018328471622974,9.810344221205119,0.0,0.0,0.0,0.0,0.0,0.0,0.0,0.0,0.0
2025/05/25 19:00:10.767358482,1748192409,815466319,mA1/imu,0.2965621424508132,-0.9550132161998139,-0.0008076613215225148,-1.5226981735024702e-05,0.0,0.0,0.0,0.0,0.0,0.0,0.0,0.0,0.0,-0.0006238426267005379,0.00032967964819369033,-9.294798728398645e-05,0.0,0.0,0.0,0.0,0.0,0.0,0.0,0.0,0.0,0.007815742539472306,0.570871654412284,9.810730191812668,0.0,0.0,0.0,0.0,0.0,0.0,0.0,0.0,0.0
2025/05/25 19:00:10.771582630,1748192409,867437307,mA1/imu,0.2965643334495521,-0.9550125300607901,-0.0008145367287016882,-9.079055485859558e-06,0.0,0.0,0.0,0.0,0.0,0.0,0.0,0.0,0.0,-0.00098524164602756,3.447075135221323e-05,-9.054844818123454e-05,0.0,0.0,0.0,0.0,0.0,0.0,0.0,0.0,0.0,0.007822741256928271,-0.07717290360317403,9.809701285455438,0.0,0.0,0.0,0.0,0.0,0.0,0.0,0.0,0.0
2025/05/25 19:00:10.777253363,1748192409,917424159,mA1/imu,0.2965664481902084,-0.9550118715239125,-0.0008166455883754668,-1.209219688923867e-05,0.0,0.0,0.0,0.0,0.0,0.0,0.0,0.0,0.0,-0.0012700330988253755,-0.00024730543166596574,-8.741226135210583e-05,0.0,0.0,0.0,0.0,0.0,0.0,0.0,0.0,0.0,0.007024826098304167,-0.0907387346466043,9.8102179053643,0.0,0.0,0.0,0.0,0.0,0.0,0.0,0.0,0.0
2025/05/25 19:00:10.789365042,1748192409,968398289,mA1/imu,0.29656859236766786,-0.955011202716161,-0.0008198865788370259,-2.2219122118465295e-05,0.0,0.0,0.0,0.0,0.0,0.0,0.0,0.0,0.0,-0.00022535471429856616,-0.0005272763964169057,-0.00010708700136796317,0.0,0.0,0.0,0.0,0.0,0.0,0.0,0.0,0.0,0.006779722798261193,-0.01981502700200597,9.80973068038604,0.0,0.0,0.0,0.0,0.0,0.0,0.0,0.0,0.0
2025/05/25 19:00:10.804750076,1748192410,18245048,mA1/imu,0.2965723746404997,-0.9550100172971813,-0.0008319679711643906,-3.5936437551049405e-05,0.0,0.0,0.0,0.0,0.0,0.0,0.0,0.0,0.0,-0.0003096160795360708,-0.0007565127352441692,-0.0001708896115510489,0.0,0.0,0.0,0.0,0.0,0.0,0.0,0.0,0.0,0.006944542992115604,-0.01908705243343786,9.810159231736463,0.0,0.0,0.0,0.0,0.0,0.0,0.0,0.0,0.0
2025/05/25 19:00:10.814077121,1748192410,69312721,mA1/imu,0.2965763814983097,-0.9550087600606585,-0.0008456794065446133,-5.45079260902406e-05,0.0,0.0,0.0,0.0,0.0,0.0,0.0,0.0,0.0,-0.0003001278251955276,-0.0009432585711553467,-0.00016727004621598068,0.0,0.0,0.0,0.0,0.0,0.0,0.0,0.0,0.0,0.0068314513572997025,-0.017057660484916144,9.809900784160028,0.0,0.0,0.0,0.0,0.0,0.0,0.0,0.0,0.0
2025/05/25 19:00:11.772888112,1748192410,816276203,mA1/imu,0.29660824195130425,-0.954998887843146,-0.0008182912423985627,7.365020830527405e-05,0.0,0.0,0.0,0.0,0.0,0.0,0.0,0.0,0.0,0.0012509185973825958,-0.000876924721034261,-0.0009210586179135044,0.0,0.0,0.0,0.0,0.0,0.0,0.0,0.0,0.0,0.0020906231311562935,0.05648784814902373,9.810256488894568,0.0,0.0,0.0,0.0,0.0,0.0,0.0,0.0,0.0
2025/05/25 19:00:11.774796106,1748192410,867290900,mA1/imu,0.2966303998826301,-0.9549920030366759,-0.0008232172080075539,4.8113378630978775e-05,0.0,0.0,0.0,0.0,0.0,0.0,0.0,0.0,0.0,0.0006331368759072745,-0.0012222627558145173,-0.0010087857884828197,0.0,0.0,0.0,0.0,0.0,0.0,0.0,0.0,0.0,0.022152105447175077,0.00030961914622779085,9.814308365529042,0.0,0.0,0.0,0.0,0.0,0.0,0.0,0.0,0.0
2025/05/25 19:00:11.966720038,1748192411,22649421,mA1/imu,0.2967196456241452,-0.9549642546098519,-0.0008483536758929305,-6.792769930675897e-05,0.0,0.0,0.0,0.0,0.0,0.0,0.0,0.0,0.0,0.00029326870819170055,-0.0016316002742816904,-0.0013116128993869423,0.0,0.0,0.0,0.0,0.0,0.0,0.0,0.0,0.0,0.0008034318394302348,0.2419933249758882,9.810809143232632,0.0,0.0,0.0,0.0,0.0,0.0,0.0,0.0,0.0
2025/05/25 19:00:11.975219718,1748192411,73724316,mA1/imu,0.29675083755338044,-0.9549545479642548,-0.0008605987927360963,-0.00010537300787512454,0.0,0.0,0.0,0.0,0.0,0.0,0.0,0.0,0.0,-3.832702266385401e-05,-0.0015954302885942268,-0.001364374463717399,0.0,0.0,0.0,0.0,0.0,0.0,0.0,0.0,0.0,0.01717567167177857,0.06304504879949356,9.809768195067232,0.0,0.0,0.0,0.0,0.0,0.0,0.0,0.0,0.0
2025/05/25 19:00:11.985485365,1748192411,123446062,mA1/imu,0.2967855076255718,-0.9549437592904754,-0.0008707988931687446,-0.0001441002915884359,0.0,0.0,0.0,0.0,0.0,0.0,0.0,0.0,0.0,9.715939923729716e-05,-0.0015138760335012009,-0.0014479978476094407,0.0,0.0,0.0,0.0,0.0,0.0,0.0,0.0,0.0,-2.3622410103068744e-05,-0.012762855545082889,9.810166905108645,0.0,0.0,0.0,0.0,0.0,0.0,0.0,0.0,0.0
2025/05/25 19:00:11.996296664,1748192411,174403228,mA1/imu,0.29681947083188104,-0.954933190006757,-0.0008793185735180708,-0.00017651472232278254,0.0,0.0,0.0,0.0,0.0,0.0,0.0,0.0,0.0,-8.532222055562783e-05,-0.0012124585388167187,-0.0014077798749747858,0.0,0.0,0.0,0.0,0.0,0.0,0.0,0.0,0.0,-9.06966391265255e-05,0.04436405920660799,9.810339119308567,0.0,0.0,0.0,0.0,0.0,0.0,0.0,0.0,0.0
2025/05/25 19:00:12.7486145,1748192411,214198457,mA1/imu,0.2968524773814383,-0.9549229209176505,-0.0008838628582276338,-0.0002014076791125004,0.0,0.0,0.0,0.0,0.0,0.0,0.0,0.0,0.0,0.0008487756518551927,-0.0008564934258861751,-0.0013671155700775775,0.0,0.0,0.0,0.0,0.0,0.0,0.0,0.0,0.0,-0.0004748030585645883,-0.5863641352049425,9.808891688756043,0.0,0.0,0.0,0.0,0.0,0.0,0.0,0.0,0.0
2025/05/25 19:00:12.967182368,1748192412,16335410,mA1/imu,0.29748969322417784,-0.9547246434935253,-0.0008581364984609543,-3.366446285375799e-05,0.0,0.0,0.0,0.0,0.0,0.0,0.0,0.0,0.0,-0.0009104202924809562,-0.00042793325655908607,-0.0019058755129951175,0.0,0.0,0.0,0.0,0.0,0.0,0.0,0.0,0.0,0.00481223324415511,0.5561929241704306,9.811302139516101,0.0,0.0,0.0,0.0,0.0,0.0,0.0,0.0,0.0
2025/05/25 19:00:12.968313197,1748192412,67246232,mA1/imu,0.2975348848036351,-0.9547105526628213,-0.000866538704790549,-4.5495175128656284e-05,0.0,0.0,0.0,0.0,0.0,0.0,0.0,0.0,0.0,-0.0007775825106400905,-0.0007329187577211532,-0.001959765551345088,0.0,0.0,0.0,0.0,0.0,0.0,0.0,0.0,0.0,0.029026410491935082,-0.08195694613786159,9.80878103340678,0.0,0.0,0.0,0.0,0.0,0.0,0.0,0.0,0.0
2025/05/25 19:00:12.978380920,1748192412,117220853,mA1/imu,0.29758411981072624,-0.9546952014725679,-0.0008712533581325886,-6.956517997135374e-05,0.0,0.0,0.0,0.0,0.0,0.0,0.0,0.0,0.0,0.0008109345409880211,-0.001011560708402496,-0.002051764730508085,0.0,0.0,0.0,0.0,0.0,0.0,0.0,0.0,0.0,0.0039104070595514274,-0.5846353233697861,9.809147151385378,0.0,0.0,0.0,0.0,0.0,0.0,0.0,0.0,0.0
2025/05/25 19:00:12.988612001,1748192412,168328722,mA1/imu,0.2976330024037178,-0.9546799564134648,-0.0008761823943419607,-9.490492755585172e-05,0.0,0.0,0.0,0.0,0.0,0.0,0.0,0.0,0.0,0.0007036412377320414,-0.0010311804860067835,-0.0020765703283130016,0.0,0.0,0.0,0.0,0.0,0.0,0.0,0.0,0.0,0.0033492399009912638,0.03410628024420245,9.810666911253463,0.0,0.0,0.0,0.0,0.0,0.0,0.0,0.0,0.0
2025/05/25 19:00:12.999520351,1748192412,218132999,mA1/imu,0.2976823188251281,-0.9546645668518713,-0.0008877135883355032,-0.00011756278730964197,0.0,0.0,0.0,0.0,0.0,0.0,0.0,0.0,0.0,-0.0008406967161053186,-0.0009732117042666681,-0.002041353015144852,0.0,0.0,0.0,0.0,0.0,0.0,0.0,0.0,0.0,0.003935855100670482,0.5562010005183148,9.8111329150247,0.0,0.0,0.0,0.0,0.0,0.0,0.0,0.0,0.0
2025/05/25 19:00:13.13709008,1748192412,269114361,mA1/imu,0.2977305178966771,-0.9546495247946329,-0.000896897115267495,-0.0001381952334232485,0.0,0.0,0.0,0.0,0.0,0.0,0.0,0.0,0.0,-0.000685391169775608,-0.000814920826348403,-0.002018998693776558,0.0,0.0,0.0,0.0,0.0,0.0,0.0,0.0,0.0,0.0011639747200398367,-0.0710843555954416,9.809740941583744,0.0,0.0,0.0,0.0,0.0,0.0,0.0,0.0,0.0
2025/05/25 19:00:13.967903938,1748192413,16942748,mA1/imu,0.29804475115068285,-0.9545515227726813,-0.0008306321544350426,-0.00016350567820998555,0.0,0.0,0.0,0.0,0.0,0.0,0.0,0.0,0.0,-0.0009337414080589822,0.0003786192300342731,0.00030048792323407323,0.0,0.0,0.0,0.0,0.0,0.0,0.0,0.0,0.0,0.009002170327858895,0.5579326164383571,9.811327857218796,0.0,0.0,0.0,0.0,0.0,0.0,0.0,0.0,0.0
2025/05/25 19:00:13.972533784,1748192413,67916771,mA1/imu,0.29803586299566903,-0.9545542978468831,-0.0008325164819460351,-0.00015409989715827567,0.0,0.0,0.0,0.0,0.0,0.0,0.0,0.0,0.0,-0.0008199771649164073,0.00035391522296831466,0.00039192173028956053,0.0,0.0,0.0,0.0,0.0,0.0,0.0,0.0,0.0,0.0026879091580075598,-0.06555530854458565,9.80991185914161,0.0,0.0,0.0,0.0,0.0,0.0,0.0,0.0,0.0
2025/05/25 19:00:13.979195884,1748192413,117768092,mA1/imu,0.2980272763275759,-0.954556981606159,-0.0008313146486315412,-0.00014264522753148183,0.0,0.0,0.0,0.0,0.0,0.0,0.0,0.0,0.0,0.000548030320540214,0.0005237123669435503,0.0003562062529971692,0.0,0.0,0.0,0.0,0.0,0.0,0.0,0.0,0.0,-0.0011250667612950366,-0.593835457707058,9.808959203640716,0.0,0.0,0.0,0.0,0.0,0.0,0.0,0.0,0.0
2025/05/25 19:00:13.990486204,1748192413,168836221,mA1/imu,0.298018871993294,-0.9545596078368609,-0.0008315845302368664,-0.00012445622648008705,0.0,0.0,0.0,0.0,0.0,0.0,0.0,0.0,0.0,-0.0005551392751772873,0.0008120360457286398,0.00033895208803272673,0.0,0.0,0.0,0.0,0.0,0.0,0.0,0.0,0.0,-0.004257465647562533,0.4908790579915995,9.811031893226419,0.0,0.0,0.0,0.0,0.0,0.0,0.0,0.0,0.0
2025/05/25 19:00:14.347066,1748192413,218600925,mA1/imu,0.2980112883201681,-0.9545619775261684,-0.0008327521552126933,-9.807615601849706e-05,0.0,0.0,0.0,0.0,0.0,0.0,0.0,0.0,0.0,-0.0005920475466517593,0.0011144684614951487,0.0003029296281697287,0.0,0.0,0.0,0.0,0.0,0.0,0.0,0.0,0.0,-0.0043156093656039115,-0.0281387405421981,9.809998202757832,0.0,0.0,0.0,0.0,0.0,0.0,0.0,0.0,0.0
2025/05/25 19:00:14.14464020,1748192413,269714450,mA1/imu,0.2980036673306915,-0.9545643611930221,-0.0008308264996122463,-6.576430443782733e-05,0.0,0.0,0.0,0.0,0.0,0.0,0.0,0.0,0.0,6.977548333160396e-05,0.0013999834825774062,0.0003946130874807488,0.0,0.0,0.0,0.0,0.0,0.0,0.0,0.0,0.0,-0.01829822937080158,-0.4644410549995155,9.808436594443096,0.0,0.0,0.0,0.0,0.0,0.0,0.0,0.0,0.0
2025/05/25 19:00:14.968194654,1748192414,19852809,mA1/imu,0.2976368242442179,-0.9546788172172208,-0.0008116063494835723,-0.00013455734142519415,0.0,0.0,0.0,0.0,0.0,0.0,0.0,0.0,0.0,0.001386698839651192,-0.001838508884869352,0.0013613341106552927,0.0,0.0,0.0,0.0,0.0,0.0,0.0,0.0,0.0,0.0019325504879142072,-0.5801294611686116,9.808815017896178,0.0,0.0,0.0,0.0,0.0,0.0,0.0,0.0,0.0
2025/05/25 19:00:14.972777859,1748192414,71580687,mA1/imu,0.2976040043996532,-0.954689045823063,-0.0008056731644251575,-0.0001823224963987693,0.0,0.0,0.0,0.0,0.0,0.0,0.0,0.0,0.0,0.0011483637802767047,-0.0016891120443371884,0.0013807790569819072,0.0,0.0,0.0,0.0,0.0,0.0,0.0,0.0,0.0,-5.5326484940065174e-05,0.1694948683442758,9.810392001342295,0.0,0.0,0.0,0.0,0.0,0.0,0.0,0.0,0.0
2025/05/25 19:00:14.981284103,1748192414,121461115,mA1/imu,0.2975707965852194,-0.9546993843685493,-0.0008108135305526213,-0.00022155669634441277,0.0,0.0,0.0,0.0,0.0,0.0,0.0,0.0,0.0,-0.0004107408586760364,-0.0014613339192951179,0.0013981675308839942,0.0,0.0,0.0,0.0,0.0,0.0,0.0,0.0,0.0,0.00129176974238783,0.5616448443556705,9.811541930068143,0.0,0.0,0.0,0.0,0.0,0.0,0.0,0.0,0.0
2025/05/25 19:00:14.992501006,1748192414,172407932,mA1/imu,0.2975348900506366,-0.9547105707750208,-0.000806755729271178,-0.00025376797103199896,0.0,0.0,0.0,0.0,0.0,0.0,0.0,0.0,0.0,0.0008862830424659052,-0.0008855837229493519,0.0016499126808798,0.0,0.0,0.0,0.0,0.0,0.0,0.0,0.0,0.0,-0.01485917480651511,-0.5938588835686973,9.808366863161474,0.0,0.0,0.0,0.0,0.0,0.0,0.0,0.0,0.0
2025/05/25 19:00:15.667719934,1748192414,722779553,mA1/imu,0.29708002122634797,-0.9548522459191894,-0.0007960304885970231,-0.00012564510867114662,0.0,0.0,0.0,0.0,0.0,0.0,0.0,0.0,0.0,-0.0013298122858568543,0.0007656456129944559,0.0017269222118724925,0.0,0.0,0.0,0.0,0.0,0.0,0.0,0.0,0.0,0.007891005646729912,-0.05848042691892699,9.809673101985487,0.0,0.0,0.0,0.0,0.0,0.0,0.0,0.0,0.0
2025/05/25 19:00:15.671423630,1748192414,765757800,mA1/imu,0.29703835590790856,-0.9548652095199068,-0.0007968288814198873,-0.00010877391652083936,0.0,0.0,0.0,0.0,0.0,0.0,0.0,0.0,0.0,-0.00030148506128886964,0.0005435607056198549,0.001751738615160991,0.0,0.0,0.0,0.0,0.0,0.0,0.0,0.0,0.0,0.009256343465719982,0.010315248401006798,9.809977943094578,0.0,0.0,0.0,0.0,0.0,0.0,0.0,0.0,0.0
2025/05/25 19:00:15.678794119,1748192414,815648192,mA1/imu,0.2969962961962462,-0.9548782865760527,-0.0008054344519420938,-9.563805272366652e-05,0.0,0.0,0.0,0.0,0.0,0.0,0.0,0.0,0.0,-0.0008914243070958884,0.0003148830831037993,0.0017634583225120159,0.0,0.0,0.0,0.0,0.0,0.0,0.0,0.0,0.0,0.008185285799921825,0.5834259540869774,9.811110117101636,0.0,0.0,0.0,0.0,0.0,0.0,0.0,0.0,0.0
2025/05/25 19:00:15.679279106,1748192414,866633774,mA1/imu,0.29695426363824323,-0.9548913531420802,-0.0008131080354401576,-8.863903493585925e-05,0.0,0.0,0.0,0.0,0.0,0.0,0.0,0.0,0.0,-0.00045990355944012585,9.18247451192816e-05,0.0017608623941738246,0.0,0.0,0.0,0.0,0.0,0.0,0.0,0.0,0.0,0.007348878868456811,-0.0074693933254622695,9.811906648626504,0.0,0.0,0.0,0.0,0.0,0.0,0.0,0.0,0.0
2025/05/25 19:00:15.689766480,1748192414,916610201,mA1/imu,0.2969120231738236,-0.9549044824767028,-0.0008198651702181634,-8.75318786856413e-05,0.0,0.0,0.0,0.0,0.0,0.0,0.0,0.0,0.0,0.0002944172291887647,-0.0001267681064856274,0.001775765611348943,0.0,0.0,0.0,0.0,0.0,0.0,0.0,0.0,0.0,0.007048476046963101,-0.23934149910514035,9.811512867078942,0.0,0.0,0.0,0.0,0.0,0.0,0.0,0.0,0.0
2025/05/25 19:00:15.700234681,1748192414,967481168,mA1/imu,0.29686981577540783,-0.9549175979480237,-0.0008277770567460105,-9.16285788541666e-05,0.0,0.0,0.0,0.0,0.0,0.0,0.0,0.0,0.0,5.6967581446249e-06,-0.00034230175478641776,0.001765936118421926,0.0,0.0,0.0,0.0,0.0,0.0,0.0,0.0,0.0,0.00739028858891751,0.018066653751317985,9.808731793105979,0.0,0.0,0.0,0.0,0.0,0.0,0.0,0.0,0.0
2025/05/25 19:00:15.711456225,1748192415,17544251,mA1/imu,0.2968277802046255,-0.9549306523825929,-0.0008415412526067203,-9.923341232262277e-05,0.0,0.0,0.0,0.0,0.0,0.0,0.0,0.0,0.0,-0.001525561343321117,-0.0005106516881017024,0.0017526259908848807,0.0,0.0,0.0,0.0,0.0,0.0,0.0,0.0,0.0,0.0071007720315001506,0.5364782750481618,9.809606937742286,0.0,0.0,0.0,0.0,0.0,0.0,0.0,0.0,0.0
2025/05/25 19:00:16.672032364,1748192415,717210405,mA1/imu,0.29611703053202587,-0.9551513488935881,-0.0007368618590146986,-0.00024893825622748626,0.0,0.0,0.0,0.0,0.0,0.0,0.0,0.0,0.0,0.0013619656302285626,-0.0006656918990197751,0.0026256492869613725,0.0,0.0,0.0,0.0,0.0,0.0,0.0,0.0,0.0,0.019135103978558964,0.077449528505244,9.809764412699534,0.0,0.0,0.0,0.0,0.0,0.0,0.0,0.0,0.0
2025/05/25 19:00:16.677378778,1748192415,768248940,mA1/imu,0.296055184180034,-0.9551705063911144,-0.0007485136111023772,-0.00026714797806111384,0.0,0.0,0.0,0.0,0.0,0.0,0.0,0.0,0.0,-0.0001646032613526205,-0.0009510496222812723,0.0025664660779388766,0.0,0.0,0.0,0.0,0.0,0.0,0.0,0.0,0.0,0.018717343860426224,-0.02072665720889353,9.812406852099587,0.0,0.0,0.0,0.0,0.0,0.0,0.0,0.0,0.0
2025/05/25 19:00:16.923933603,1748192415,973230954,mA1/imu,0.29582817385939575,-0.9552407609269463,-0.0007963649874769643,-0.00038212240252490516,0.0,0.0,0.0,0.0,0.0,0.0,0.0,0.0,0.0,2.0387843171051777e-05,-0.0011464756038388848,0.0022882958063940285,0.0,0.0,0.0,0.0,0.0,0.0,0.0,0.0,0.0,-0.0032021378075789177,0.03915619774672438,9.80674385329174,0.0,0.0,0.0,0.0,0.0,0.0,0.0,0.0,0.0
2025/05/25 19:00:16.928494138,1748192416,23237338,mA1/imu,0.29577201571148576,-0.9552581184313758,-0.0008273473801674244,-0.0003967231085979953,0.0,0.0,0.0,0.0,0.0,0.0,0.0,0.0,0.0,-0.001453939801216219,-0.0008749717587620885,0.0023393966918510136,0.0,0.0,0.0,0.0,0.0,0.0,0.0,0.0,0.0,0.016653276117090537,-0.0600682322818414,9.811349926502013,0.0,0.0,0.0,0.0,0.0,0.0,0.0,0.0,0.0
2025/05/25 19:00:16.936802507,1748192416,65132153,mA1/imu,0.29571685480062776,-0.9552751766417031,-0.0008417854425727175,-0.0004124030261941718,0.0,0.0,0.0,0.0,0.0,0.0,0.0,0.0,0.0,-0.0026423165355983548,-0.0006847061025054925,0.002288937442456452,0.0,0.0,0.0,0.0,0.0,0.0,0.0,0.0,0.0,0.01631526918629678,0.4928804960224633,9.810671517300667,0.0,0.0,0.0,0.0,0.0,0.0,0.0,0.0,0.0
2025/05/25 19:00:16.947328778,1748192416,114995577,mA1/imu,0.2956633270706053,-0.9552917305875002,-0.00085197381668313,-0.00042501446441102627,0.0,0.0,0.0,0.0,0.0,0.0,0.0,0.0,0.0,0.0003752645370983375,-0.0005230570532293047,0.0022057420843243592,0.0,0.0,0.0,0.0,0.0,0.0,0.0,0.0,0.0,0.016143545975569995,0.07840925981843491,9.81094749857645,0.0,0.0,0.0,0.0,0.0,0.0,0.0,0.0,0.0
2025/05/25 19:00:16.957055470,1748192416,166062149,mA1/imu,0.29561131720928047,-0.9553077979740212,-0.0008831225887147344,-0.0004246908453038777,0.0,0.0,0.0,0.0,0.0,0.0,0.0,0.0,0.0,-0.001140179205204156,-0.0002561900961555138,0.002160787511502371,0.0,0.0,0.0,0.0,0.0,0.0,0.0,0.0,0.0,0.015225268320716055,-0.028487685153978537,9.813056044971907,0.0,0.0,0.0,0.0,0.0,0.0,0.0,0.0,0.0
2025/05/25 19:00:16.967534702,1748192416,216138706,mA1/imu,0.29556033257309106,-0.9553235672934024,-0.0008892901883584983,-0.00042514239127224756,0.0,0.0,0.0,0.0,0.0,0.0,0.0,0.0,0.0,0.0001617317499584762,3.296779354053779e-05,0.002117268845962077,0.0,0.0,0.0,0.0,0.0,0.0,0.0,0.0,0.0,0.014505527113982435,0.06161298534742993,9.808551862685748,0.0,0.0,0.0,0.0,0.0,0.0,0.0,0.0,0.0
2025/05/25 19:00:17.621285468,1748192416,671138974,mA1/imu,0.29514284267930724,-0.955452695971702,-0.0008939449759711102,-0.00022144517176978865,0.0,0.0,0.0,0.0,0.0,0.0,0.0,0.0,0.0,0.0013885054495764936,0.0009076493291785436,0.0017613879299120166,0.0,0.0,0.0,0.0,0.0,0.0,0.0,0.0,0.0,0.018873388193260378,-0.31090950860754174,9.808577788810295,0.0,0.0,0.0,0.0,0.0,0.0,0.0,0.0,0.0
2025/05/25 19:00:17.626155833,1748192416,721181222,mA1/imu,0.2951023264472944,-0.9554652279615515,-0.0008790122940875579,-0.00020595912648221904,0.0,0.0,0.0,0.0,0.0,0.0,0.0,0.0,0.0,-0.0011314440757067459,0.0006923549137527877,0.001668926964424655,0.0,0.0,0.0,0.0,0.0,0.0,0.0,0.0,0.0,0.016005719994712984,0.2497338419918468,9.810892212028776,0.0,0.0,0.0,0.0,0.0,0.0,0.0,0.0,0.0
2025/05/25 19:00:17.637081282,1748192416,772203777,mA1/imu,0.2950630825756807,-0.9554773724638663,-0.000853420412730301,-0.0001992086400316535,0.0,0.0,0.0,0.0,0.0,0.0,0.0,0.0,0.0,-0.0003878488309006008,0.00048474240654451537,0.0016253883652281606,0.0,0.0,0.0,0.0,0.0,0.0,0.0,0.0,0.0,0.016367492401726205,0.2301143181099823,9.809185686793443,0.0,0.0,0.0,0.0,0.0,0.0,0.0,0.0,0.0
2025/05/25 19:00:17.646344066,1748192416,822376079,mA1/imu,0.2950248770190768,-0.9554891869117405,-0.0008350355249471799,-0.00019583230555426402,0.0,0.0,0.0,0.0,0.0,0.0,0.0,0.0,0.0,0.0010026938372688834,0.0002594226155344129,0.0015824785350113007,0.0,0.0,0.0,0.0,0.0,0.0,0.0,0.0,0.0,0.015223381573380424,-0.43083064180980574,9.808441132417933,0.0,0.0,0.0,0.0,0.0,0.0,0.0,0.0,0.0
2025/05/25 19:00:18.223539798,1748192417,267243367,mA1/imu,0.2947700744168756,-0.9555678779828077,-0.0007126187738406122,-0.00035492278961668034,0.0,0.0,0.0,0.0,0.0,0.0,0.0,0.0,0.0,-0.00016148473007056204,-0.0007468892485162524,0.000793680126328237,0.0,0.0,0.0,0.0,0.0,0.0,0.0,0.0,0.0,0.06312073308736277,-0.02753499384575807,9.808473184603049,0.0,0.0,0.0,0.0,0.0,0.0,0.0,0.0,0.0
2025/05/25 19:00:18.229074861,1748192417,317115809,mA1/imu,0.2947631313423958,-0.9555700061074558,-0.0007115934772522159,-0.0003917444900858668,0.0,0.0,0.0,0.0,0.0,0.0,0.0,0.0,0.0,-0.0005211813278171994,-0.0014713302980835568,0.00015716989668813008,0.0,0.0,0.0,0.0,0.0,0.0,0.0,0.0,0.0,0.010173587155522653,-0.04193084228330349,9.811202534323042,0.0,0.0,0.0,0.0,0.0,0.0,0.0,0.0,0.0
2025/05/25 19:00:19.174910680,1748192418,222332522,mA1/imu,0.294830140185556,-0.9555493699214398,-0.0007643448690136051,-7.653643677308524e-05,0.0,0.0,0.0,0.0,0.0,0.0,0.0,0.0,0.0,-3.650312449619017e-05,-0.0006415852794911189,-0.00047430855718260913,0.0,0.0,0.0,0.0,0.0,0.0,0.0,0.0,0.0,0.011458472032360017,0.6249540331265059,9.810324358845957,0.0,0.0,0.0,0.0,0.0,0.0,0.0,0.0,0.0
2025/05/25 19:00:19.180131237,1748192418,273359238,mA1/imu,0.294841615781434,-0.9555458190240542,-0.0007748137579774178,-9.493515244874827e-05,0.0,0.0,0.0,0.0,0.0,0.0,0.0,0.0,0.0,-0.0014368540190630762,-0.0009526504611313232,-0.0004933202131171712,0.0,0.0,0.0,0.0,0.0,0.0,0.0,0.0,0.0,0.013862139761510264,0.52322373822311,9.810046273859145,0.0,0.0,0.0,0.0,0.0,0.0,0.0,0.0,0.0
2025/05/25 19:00:19.623647523,1748192418,669324555,mA1/imu,0.2949237883229038,-0.9555203484772183,-0.0007774905729778109,-0.00046715698772616793,0.0,0.0,0.0,0.0,0.0,0.0,0.0,0.0,0.0,0.00016113004865425795,-0.0018516133999825555,-0.0002776758793255084,0.0,0.0,0.0,0.0,0.0,0.0,0.0,0.0,0.0,0.0001501786115961131,-0.017485880042576975,9.810252704346954,0.0,0.0,0.0,0.0,0.0,0.0,0.0,0.0,0.0
2025/05/25 19:00:19.636422881,1748192418,719131314,mA1/imu,0.2949256284024062,-0.9555197649312447,-0.0007715593170631919,-0.0005071818260230789,0.0,0.0,0.0,0.0,0.0,0.0,0.0,0.0,0.0,0.0015349045416678873,-0.0013121891935596965,-3.923505543970572e-05,0.0,0.0,0.0,0.0,0.0,0.0,0.0,0.0,0.0,0.019769266723141644,-0.5539086140386361,9.809723597029823,0.0,0.0,0.0,0.0,0.0,0.0,0.0,0.0,0.0
2025/05/25 19:00:19.641709032,1748192418,770233411,mA1/imu,0.29492725003350695,-0.9555192456022311,-0.0007754435970867129,-0.0005358718543941052,0.0,0.0,0.0,0.0,0.0,0.0,0.0,0.0,0.0,0.0015554926433397134,-0.0010377025291704559,-6.932831746745524e-05,0.0,0.0,0.0,0.0,0.0,0.0,0.0,0.0,0.0,0.018760024967756667,-0.5412618492716336,9.809060068441134,0.0,0.0,0.0,0.0,0.0,0.0,0.0,0.0,0.0
2025/05/25 19:00:19.651008154,1748192418,820041649,mA1/imu,0.2949276720277493,-0.9555191021949173,-0.0007767192524237283,-0.0005570638334120891,0.0,0.0,0.0,0.0,0.0,0.0,0.0,0.0,0.0,-0.0012574658546219634,-0.0006786998889433057,1.6681800828429163e-05,0.0,0.0,0.0,0.0,0.0,0.0,0.0,0.0,0.0,0.019745319077579586,0.5285870289508614,9.811812437434765,0.0,0.0,0.0,0.0,0.0,0.0,0.0,0.0,0.0
2025/05/25 19:00:19.659880973,1748192418,871234503,mA1/imu,0.29492766997783915,-0.9555191005481294,-0.000767913723884188,-0.0005729551897284511,0.0,0.0,0.0,0.0,0.0,0.0,0.0,0.0,0.0,-0.00020305103437576468,-0.0002979849699565145,1.8351216628619795e-05,0.0,0.0,0.0,0.0,0.0,0.0,0.0,0.0,0.0,0.008860691488538588,0.4933920532388018,9.813910055748767,0.0,0.0,0.0,0.0,0.0,0.0,0.0,0.0,0.0
2025/05/25 19:00:19.971362827,1748192419,21930033,mA1/imu,0.29492527480538194,-0.9555198405890629,-0.0007901034450306725,-0.000540609071514353,0.0,0.0,0.0,0.0,0.0,0.0,0.0,0.0,0.0,-0.00011873282132574288,0.0007591792779830304,-5.648916291025348e-06,0.0,0.0,0.0,0.0,0.0,0.0,0.0,0.0,0.0,0.020735179566215428,0.03332747353760119,9.810748434444603,0.0,0.0,0.0,0.0,0.0,0.0,0.0,0.0,0.0
2025/05/25 19:00:19.972237157,1748192419,72901532,mA1/imu,0.2949259538428527,-0.9555196406335953,-0.0007957684444525223,-0.0005146512522822951,0.0,0.0,0.0,0.0,0.0,0.0,0.0,0.0,0.0,-0.0005457543918300383,0.0010355864493356392,-4.850582906943269e-05,0.0,0.0,0.0,0.0,0.0,0.0,0.0,0.0,0.0,0.021369414930807136,0.6496406931067416,9.811654119143476,0.0,0.0,0.0,0.0,0.0,0.0,0.0,0.0,0.0
2025/05/25 19:00:19.978932851,1748192419,122773155,mA1/imu,0.2949279725440441,-0.9555190167092136,-0.0008199519037688552,-0.00047686160750992765,0.0,0.0,0.0,0.0,0.0,0.0,0.0,0.0,0.0,-0.0008180270617940671,0.001214545495759023,-0.00010201137746896316,0.0,0.0,0.0,0.0,0.0,0.0,0.0,0.0,0.0,0.021632495366229833,-0.08402513426341415,9.807670147034623,0.0,0.0,0.0,0.0,0.0,0.0,0.0,0.0,0.0
2025/05/25 19:00:19.988979339,1748192419,173784408,mA1/imu,0.2949300068427738,-0.9555183926242035,-0.0008384777126533957,-0.000435173190051514,0.0,0.0,0.0,0.0,0.0,0.0,0.0,0.0,0.0,-0.0013235688996290171,0.0015089898397896624,-3.0947719803052436e-05,0.0,0.0,0.0,0.0,0.0,0.0,0.0,0.0,0.0,0.013359461419698697,-0.6509607228582979,9.808861869514852,0.0,0.0,0.0,0.0,0.0,0.0,0.0,0.0,0.0
2025/05/25 19:00:20.219643986,1748192419,265343959,mA1/imu,0.2949319184644757,-0.9555178173453154,-0.0008627370069892591,-0.00034625332505023817,0.0,0.0,0.0,0.0,0.0,0.0,0.0,0.0,0.0,-0.0028488633973549095,0.0014496252904614565,-0.00013514283485517944,0.0,0.0,0.0,0.0,0.0,0.0,0.0,0.0,0.0,0.03722007114867516,0.4940362226323954,9.80819056430936,0.0,0.0,0.0,0.0,0.0,0.0,0.0,0.0,0.0
2025/05/25 19:00:20.223896288,1748192419,315176378,mA1/imu,0.29494015765777115,-0.955515267498104,-0.0008838843176074491,-0.00030939836588300923,0.0,0.0,0.0,0.0,0.0,0.0,0.0,0.0,0.0,-0.0018326135604745846,0.0010694417150567852,-0.00041498903014020527,0.0,0.0,0.0,0.0,0.0,0.0,0.0,0.0,0.0,0.02061245356479409,-0.0491385446553557,9.810016907237872,0.0,0.0,0.0,0.0,0.0,0.0,0.0,0.0,0.0
2025/05/25 19:00:20.230197501,1748192419,366271935,mA1/imu,0.2949514894165825,-0.9555117657661624,-0.0008980288775218954,-0.0002791370726627384,0.0,0.0,0.0,0.0,0.0,0.0,0.0,0.0,0.0,-0.0019652238956714085,0.000910094913797038,-0.0005663950722328471,0.0,0.0,0.0,0.0,0.0,0.0,0.0,0.0,0.0,0.032749128098159906,0.5523976696004398,9.812619904745986,0.0,0.0,0.0,0.0,0.0,0.0,0.0,0.0,0.0
2025/05/25 19:00:20.868569756,1748192419,915921380,mA1/imu,0.29537178119267804,-0.9553819943855201,-0.0008691542238029756,-1.58096846007875e-05,0.0,0.0,0.0,0.0,0.0,0.0,0.0,0.0,0.0,0.0019504181000888395,0.0013934718417359419,-0.0022664746523825374,0.0,0.0,0.0,0.0,0.0,0.0,0.0,0.0,0.0,-0.006607909210528895,-0.5565260628383762,9.810456699471194,0.0,0.0,0.0,0.0,0.0,0.0,0.0,0.0,0.0
2025/05/25 19:00:20.871654509,1748192419,966950744,mA1/imu,0.29542466290629193,-0.9553656734326924,-0.0008356947339091629,1.3693557398594057e-05,0.0,0.0,0.0,0.0,0.0,0.0,0.0,0.0,0.0,0.0005636108367134612,0.0015947055222225108,-0.0021736020321197914,0.0,0.0,0.0,0.0,0.0,0.0,0.0,0.0,0.0,-0.0072076210657563465,0.46178366875591825,9.812446639759731,0.0,0.0,0.0,0.0,0.0,0.0,0.0,0.0,0.0
2025/05/25 19:00:20.878968243,1748192420,16735180,mA1/imu,0.29548026898947827,-0.9553484996349163,-0.0008081650272377353,4.1862973279432214e-05,0.0,0.0,0.0,0.0,0.0,0.0,0.0,0.0,0.0,-0.00023308492316896265,0.0012331966415515252,-0.002460135310220973,0.0,0.0,0.0,0.0,0.0,0.0,0.0,0.0,0.0,0.007180130172714103,0.5428725931892099,9.81316611200957,0.0,0.0,0.0,0.0,0.0,0.0,0.0,0.0,0.0
2025/05/25 19:00:20.879890319,1748192420,68370841,mA1/imu,0.295539702594963,-0.9553301375284443,-0.000780038261895166,6.372028440836363e-05,0.0,0.0,0.0,0.0,0.0,0.0,0.0,0.0,0.0,0.0008353106334550566,0.001204926896280991,-0.0024580089957774885,0.0,0.0,0.0,0.0,0.0,0.0,0.0,0.0,0.0,-0.009070047203760066,-0.42665191916096235,9.810179011424975,0.0,0.0,0.0,0.0,0.0,0.0,0.0,0.0,0.0
2025/05/25 19:00:20.889862386,1748192420,118207812,mA1/imu,0.2955970050343475,-0.955312435743193,-0.0007439602795674909,8.516005071568841e-05,0.0,0.0,0.0,0.0,0.0,0.0,0.0,0.0,0.0,0.0022385789735480015,0.0012550156615917104,-0.002356120385193743,0.0,0.0,0.0,0.0,0.0,0.0,0.0,0.0,0.0,-0.008709366585027033,-0.3567245822323074,9.809931363959869,0.0,0.0,0.0,0.0,0.0,0.0,0.0,0.0,0.0
2025/05/25 19:00:21.172312296,1748192420,218974021,mA1/imu,0.2957073288643713,-0.9552783202669544,-0.000698537933937085,0.00013611979873121664,0.0,0.0,0.0,0.0,0.0,0.0,0.0,0.0,0.0,0.0001655161611408671,0.0011907926467375305,-0.002296481803891509,0.0,0.0,0.0,0.0,0.0,0.0,0.0,0.0,0.0,-0.009401892133688467,-0.18094824221992376,9.811037239047687,0.0,0.0,0.0,0.0,0.0,0.0,0.0,0.0,0.0
2025/05/25 19:00:21.183906192,1748192420,270049273,mA1/imu,0.29576113125968334,-0.9552616836836577,-0.0006670516584510898,0.00015480290871018463,0.0,0.0,0.0,0.0,0.0,0.0,0.0,0.0,0.0,0.00040172855395441035,0.0009997933233092833,-0.0022370862299376476,0.0,0.0,0.0,0.0,0.0,0.0,0.0,0.0,0.0,-0.0037297917074922944,-0.0156626579600773,9.810222335789632,0.0,0.0,0.0,0.0,0.0,0.0,0.0,0.0,0.0
2025/05/25 19:00:21.193618652,1748192420,320539190,mA1/imu,0.295798804375323,-0.9552500337023557,-0.000636148930325697,0.00018909340660732419,0.0,0.0,0.0,0.0,0.0,0.0,0.0,0.0,0.0,0.0008313993405825652,0.0021460453844056263,-0.0011130097984553113,0.0,0.0,0.0,0.0,0.0,0.0,0.0,0.0,0.0,-0.03513668827226238,0.6506280924324948,9.810783679336044,0.0,0.0,0.0,0.0,0.0,0.0,0.0,0.0,0.0
2025/05/25 19:00:21.205848507,1748192420,371406057,mA1/imu,0.29582003514666627,-0.9552434624072237,-0.0006157770920945054,0.00023484602780410096,0.0,0.0,0.0,0.0,0.0,0.0,0.0,0.0,0.0,0.0007946155242751303,0.0021900015457435446,-0.0005180934656019401,0.0,0.0,0.0,0.0,0.0,0.0,0.0,0.0,0.0,-0.08617681762242345,0.02657429248258779,9.807759141090203,0.0,0.0,0.0,0.0,0.0,0.0,0.0,0.0,0.0
2025/05/25 19:00:21.217256286,1748192420,421866704,mA1/imu,0.29581050345403265,-0.9552464157336216,-0.0005819946690418816,0.00030423107362313186,0.0,0.0,0.0,0.0,0.0,0.0,0.0,0.0,0.0,0.0003177791258509633,0.0030764635898539294,0.0007100346926323944,0.0,0.0,0.0,0.0,0.0,0.0,0.0,0.0,0.0,-0.002240293357895567,-0.012255439473629927,9.81182127174404,0.0,0.0,0.0,0.0,0.0,0.0,0.0,0.0,0.0
2025/05/25 19:00:22.176250263,1748192421,223256291,mA1/imu,0.2942570165239772,-0.9557252520988664,-0.001148527193938678,-0.0008553433526776268,0.0,0.0,0.0,0.0,0.0,0.0,0.0,0.0,0.0,0.00020612395675933488,-0.004611412601807878,0.004962345699574241,0.0,0.0,0.0,0.0,0.0,0.0,0.0,0.0,0.0,0.01488613975338978,-0.3419020438692768,9.810563888650604,0.0,0.0,0.0,0.0,0.0,0.0,0.0,0.0,0.0
2025/05/25 19:00:22.180783407,1748192421,274364983,mA1/imu,0.2941392899657863,-0.9557613565222551,-0.0011936653960969335,-0.0009394892675585355,0.0,0.0,0.0,0.0,0.0,0.0,0.0,0.0,0.0,-0.0008521836959202377,-0.0031600972286328606,0.00489805618695694,0.0,0.0,0.0,0.0,0.0,0.0,0.0,0.0,0.0,0.013963196474242122,0.21566578051835528,9.8125778612768,0.0,0.0,0.0,0.0,0.0,0.0,0.0,0.0,0.0
2025/05/25 19:00:22.189042477,1748192421,313976674,mA1/imu,0.2940230928290394,-0.9557970324435431,-0.0012129047483992474,-0.0009912201742998815,0.0,0.0,0.0,0.0,0.0,0.0,0.0,0.0,0.0,0.0006397211769351002,-0.0015592729730942,0.0048356735205142345,0.0,0.0,0.0,0.0,0.0,0.0,0.0,0.0,0.0,0.014054500610927452,0.06172900611825437,9.813081004246895,0.0,0.0,0.0,0.0,0.0,0.0,0.0,0.0,0.0
2025/05/25 19:00:22.197187937,1748192421,366324766,mA1/imu,0.29390838389790847,-0.9558322857091767,-0.001224467341298549,-0.0010020729617327357,0.0,0.0,0.0,0.0,0.0,0.0,0.0,0.0,0.0,0.0007966234633511825,9.968256177693209e-05,0.00478684123091602,0.0,0.0,0.0,0.0,0.0,0.0,0.0,0.0,0.0,0.014168710291055087,-0.22044886034188246,9.81166294628753,0.0,0.0,0.0,0.0,0.0,0.0,0.0,0.0,0.0
2025/05/25 19:00:22.198895407,1748192421,416137075,mA1/imu,0.29379370896050866,-0.9558675754510938,-0.001217596251228808,-0.0009758257243776585,0.0,0.0,0.0,0.0,0.0,0.0,0.0,0.0,0.0,0.001115872993934323,0.0017062005698471605,0.004788129053730816,0.0,0.0,0.0,0.0,0.0,0.0,0.0,0.0,0.0,0.01587310310667714,-0.5677657384166107,9.809166121156494,0.0,0.0,0.0,0.0,0.0,0.0,0.0,0.0,0.0
2025/05/25 19:00:22.208130726,1748192421,467224772,mA1/imu,0.293679398877081,-0.9559027965224682,-0.001190965164939049,-0.0009142634723096261,0.0,0.0,0.0,0.0,0.0,0.0,0.0,0.0,0.0,0.0006060762717802509,0.003427013058261164,0.004916390492737376,0.0,0.0,0.0,0.0,0.0,0.0,0.0,0.0,0.0,-0.024741540189433243,-0.3496987243989948,9.806786008214067,0.0,0.0,0.0,0.0,0.0,0.0,0.0,0.0,0.0
2025/05/25 19:00:23.170811243,1748192422,216178605,mA1/imu,0.2919534368706225,-0.9564322562580334,-0.0007114467213688657,-0.00015405246394561956,0.0,0.0,0.0,0.0,0.0,0.0,0.0,0.0,0.0,-0.0009165678665590594,-0.005254581496521311,0.004292076835098412,0.0,0.0,0.0,0.0,0.0,0.0,0.0,0.0,0.0,0.02110995174154146,-0.19612180095257953,9.809440817457029,0.0,0.0,0.0,0.0,0.0,0.0,0.0,0.0,0.0
2025/05/25 19:00:23.172915510,1748192422,267325060,mA1/imu,0.29185124547047986,-0.9564633777867685,-0.0007599761690785119,-0.00028267698420298077,0.0,0.0,0.0,0.0,0.0,0.0,0.0,0.0,0.0,-0.002855453782897856,-0.005594158029225229,0.004255592307645573,0.0,0.0,0.0,0.0,0.0,0.0,0.0,0.0,0.0,0.02006762538491655,0.4603572619458267,9.81199052111671,0.0,0.0,0.0,0.0,0.0,0.0,0.0,0.0,0.0
2025/05/25 19:00:23.176378396,1748192422,317946467,mA1/imu,0.2917498262996647,-0.9564942381844654,-0.000797199195413557,-0.00041910318235146524,0.0,0.0,0.0,0.0,0.0,0.0,0.0,0.0,0.0,0.00037542565072289926,-0.005633476134051285,0.004223513119856057,0.0,0.0,0.0,0.0,0.0,0.0,0.0,0.0,0.0,0.017963671510458155,0.06692345979853832,9.810211373318689,0.0,0.0,0.0,0.0,0.0,0.0,0.0,0.0,0.0
2025/05/25 19:00:23.515899641,1748192422,570636665,mA1/imu,0.29129992665311183,-0.9566307991645429,-0.001057166088195187,-0.0008655758556237014,0.0,0.0,0.0,0.0,0.0,0.0,0.0,0.0,0.0,-0.000598095947927289,-0.0012221825879513825,0.0034392549330972176,0.0,0.0,0.0,0.0,0.0,0.0,0.0,0.0,0.0,0.027689671029860693,-0.624588787152508,9.811696496372745,0.0,0.0,0.0,0.0,0.0,0.0,0.0,0.0,0.0
2025/05/25 19:00:23.517714470,1748192422,620459473,mA1/imu,0.2912231472055796,-0.9566541484641321,-0.0010783620989496148,-0.0008694212024383496,0.0,0.0,0.0,0.0,0.0,0.0,0.0,0.0,0.0,2.9204626184691217e-05,0.000284275332031825,0.00312990977042458,0.0,0.0,0.0,0.0,0.0,0.0,0.0,0.0,0.0,0.0013283362873215895,-0.5638776132438461,9.809905932496223,0.0,0.0,0.0,0.0,0.0,0.0,0.0,0.0,0.0
2025/05/25 19:00:23.528846049,1748192422,671563788,mA1/imu,0.2911486963387661,-0.956676827561219,-0.0010938819435849145,-0.0008292466049913673,0.0,0.0,0.0,0.0,0.0,0.0,0.0,0.0,0.0,0.0004753191779247958,0.002046248039843162,0.003092789438866826,0.0,0.0,0.0,0.0,0.0,0.0,0.0,0.0,0.0,0.0004095400305169049,-0.5421054998522731,9.80892285809787,0.0,0.0,0.0,0.0,0.0,0.0,0.0,0.0,0.0
2025/05/25 19:00:23.538587894,1748192422,722818869,mA1/imu,0.2910766056619246,-0.9566988382029041,-0.0010854300293500069,-0.0007513049960706616,0.0,0.0,0.0,0.0,0.0,0.0,0.0,0.0,0.0,-0.0011744125903260924,0.003736783545055692,0.0029951127646540457,0.0,0.0,0.0,0.0,0.0,0.0,0.0,0.0,0.0,0.001011323749989964,0.5889355555107151,9.811420163400884,0.0,0.0,0.0,0.0,0.0,0.0,0.0,0.0,0.0
2025/05/25 19:00:23.547238218,1748192422,765055632,mA1/imu,0.2910057677086841,-0.9567204956962981,-0.0010623473897532864,-0.000638508365255353,0.0,0.0,0.0,0.0,0.0,0.0,0.0,0.0,0.0,1.4386148409607118e-05,0.004998117764951705,0.002866365633522827,0.0,0.0,0.0,0.0,0.0,0.0,0.0,0.0,0.0,0.02670140564009944,-0.6197452496165149,9.808790857955838,0.0,0.0,0.0,0.0,0.0,0.0,0.0,0.0,0.0
2025/05/25 19:00:23.549202655,1748192422,814871564,mA1/imu,0.2909413778670946,-0.9567402014443976,-0.0010228425750063888,-0.0005053493805967843,0.0,0.0,0.0,0.0,0.0,0.0,0.0,0.0,0.0,0.0013639307355357046,0.005993585568903,0.0026762973489605087,0.0,0.0,0.0,0.0,0.0,0.0,0.0,0.0,0.0,0.0004914685962270696,-0.5228195237788926,9.809593333015341,0.0,0.0,0.0,0.0,0.0,0.0,0.0,0.0,0.0
2025/05/25 19:00:23.558302413,1748192422,865998070,mA1/imu,0.2908787824767785,-0.9567593515926834,-0.0009772218777209531,-0.00034940259933953575,0.0,0.0,0.0,0.0,0.0,0.0,0.0,0.0,0.0,-5.473858750130626e-05,0.006625714962380899,0.0024547512713588657,0.0,0.0,0.0,0.0,0.0,0.0,0.0,0.0,0.0,0.040801366450842654,0.6121018222751793,9.811200945357735,0.0,0.0,0.0,0.0,0.0,0.0,0.0,0.0,0.0
2025/05/25 19:00:24.22475172,1748192423,68080655,mA1/imu,0.2907147562948559,-0.9568094582547194,-0.0007333996781960686,0.0002306331394272268,0.0,0.0,0.0,0.0,0.0,0.0,0.0,0.0,0.0,0.001843266592988701,0.005755248809743446,0.001556459534800169,0.0,0.0,0.0,0.0,0.0,0.0,0.0,0.0,0.0,0.003150145128240261,0.05873903175420814,9.8095997085589,0.0,0.0,0.0,0.0,0.0,0.0,0.0,0.0,0.0
2025/05/25 19:00:24.25519680,1748192423,117952200,mA1/imu,0.2906781034017211,-0.9568206047013108,-0.0006698506258797867,0.00034917321667147046,0.0,0.0,0.0,0.0,0.0,0.0,0.0,0.0,0.0,0.0004282286204783059,0.004916893439784723,0.0015231138323531966,0.0,0.0,0.0,0.0,0.0,0.0,0.0,0.0,0.0,0.003998811447747325,0.5759891393888307,9.810210829680527,0.0,0.0,0.0,0.0,0.0,0.0,0.0,0.0,0.0
2025/05/25 19:00:24.37017221,1748192423,168937262,mA1/imu,0.2906422273055401,-0.9568315063205559,-0.000607846103566087,0.0004412961873094742,0.0,0.0,0.0,0.0,0.0,0.0,0.0,0.0,0.0,0.0015674419777699786,0.0037720032776620794,0.0014897057246778048,0.0,0.0,0.0,0.0,0.0,0.0,0.0,0.0,0.0,0.005482239396261452,-0.3361786131091355,9.80831474598057,0.0,0.0,0.0,0.0,0.0,0.0,0.0,0.0,0.0
2025/05/25 19:00:24.45712832,1748192423,220203295,mA1/imu,0.2906071295281494,-0.9568421729356926,-0.0005487930670836609,0.0005011838793981318,0.0,0.0,0.0,0.0,0.0,0.0,0.0,0.0,0.0,0.0003099218575097065,0.0024319674065677766,0.0014565246734299763,0.0,0.0,0.0,0.0,0.0,0.0,0.0,0.0,0.0,0.005578396712056893,0.32985564811710183,9.809902078483624,0.0,0.0,0.0,0.0,0.0,0.0,0.0,0.0,0.0
2025/05/25 19:00:24.56328518,1748192423,272415790,mA1/imu,0.29057099096741484,-0.9568531609599463,-0.0004978307722874081,0.0005288985684379955,0.0,0.0,0.0,0.0,0.0,0.0,0.0,0.0,0.0,0.0015727627170586457,0.0012252587613737814,0.0016123313241496052,0.0,0.0,0.0,0.0,0.0,0.0,0.0,0.0,0.0,-0.008085781516718862,0.013401232205912477,9.809377248856316,0.0,0.0,0.0,0.0,0.0,0.0,0.0,0.0,0.0
2025/05/25 19:00:24.67889943,1748192423,321280025,mA1/imu,0.29053126647820965,-0.9568652437982246,-0.0004591631172418957,0.0005268574414678402,0.0,0.0,0.0,0.0,0.0,0.0,0.0,0.0,0.0,0.0012843338246359695,-0.0002562924561976458,0.0016553991903758803,0.0,0.0,0.0,0.0,0.0,0.0,0.0,0.0,0.0,0.007022327759614251,0.625752306937652,9.810783920396174,0.0,0.0,0.0,0.0,0.0,0.0,0.0,0.0,0.0
2025/05/25 19:00:25.23835254,1748192424,73356165,mA1/imu,0.2908244602131215,-0.9567759652681832,-0.0008535655493597976,-0.00039629879615723097,0.0,0.0,0.0,0.0,0.0,0.0,0.0,0.0,0.0,-0.0026639977935415935,0.007091543932654715,-0.0024005989795514095,0.0,0.0,0.0,0.0,0.0,0.0,0.0,0.0,0.0,-0.012322965929926474,0.10346645533444156,9.81004041368412,0.0,0.0,0.0,0.0,0.0,0.0,0.0,0.0,0.0
2025/05/25 19:00:25.29456089,1748192424,123182947,mA1/imu,0.29088371889595876,-0.9567580309735709,-0.0008322837701942276,-0.00019887825036267334,0.0,0.0,0.0,0.0,0.0,0.0,0.0,0.0,0.0,-0.0004557313710084143,0.008246575776491068,-0.0024975058384737884,0.0,0.0,0.0,0.0,0.0,0.0,0.0,0.0,0.0,-0.01935344837168844,-0.5474870310766091,9.809704644350544,0.0,0.0,0.0,0.0,0.0,0.0,0.0,0.0,0.0
2025/05/25 19:00:25.36598315,1748192424,174318895,mA1/imu,0.29094226006098944,-0.956740276568087,-0.0008024050111791086,2.5479831662479624e-05,0.0,0.0,0.0,0.0,0.0,0.0,0.0,0.0,0.0,-0.001661050443055263,0.009481558818159729,-0.0023193314325722554,0.0,0.0,0.0,0.0,0.0,0.0,0.0,0.0,0.0,-0.04353429807711268,-0.16137196991979685,9.812694213722768,0.0,0.0,0.0,0.0,0.0,0.0,0.0,0.0,0.0
2025/05/25 19:00:25.47129127,1748192424,214036515,mA1/imu,0.2909967958724276,-0.9567236851812269,-0.000763346276089528,0.00026890090384341263,0.0,0.0,0.0,0.0,0.0,0.0,0.0,0.0,0.0,-0.0020980887968344896,0.00977382104423231,-0.0022993890495620157,0.0,0.0,0.0,0.0,0.0,0.0,0.0,0.0,0.0,-0.013718976391645751,0.18755808211403457,9.809665205964162,0.0,0.0,0.0,0.0,0.0,0.0,0.0,0.0,0.0
2025/05/25 19:00:25.57457202,1748192424,265473778,mA1/imu,0.2910529529054463,-0.9567065484823168,-0.0007119971799827378,0.000501753014900437,0.0,0.0,0.0,0.0,0.0,0.0,0.0,0.0,0.0,-0.0002585775231118592,0.009256303216668328,-0.0023701086900455204,0.0,0.0,0.0,0.0,0.0,0.0,0.0,0.0,0.0,-0.008292139928435034,-0.5044572310936485,9.809197375072795,0.0,0.0,0.0,0.0,0.0,0.0,0.0,0.0,0.0
2025/05/25 19:00:25.619273899,1748192424,669037688,mA1/imu,0.2914373588837539,-0.9565893872105381,-0.0005153048161333047,0.0008628927950080046,0.0,0.0,0.0,0.0,0.0,0.0,0.0,0.0,0.0,0.0013556558460613513,-0.006156398501780079,-0.0012487423317787915,0.0,0.0,0.0,0.0,0.0,0.0,0.0,0.0,0.0,-0.03408294242757713,0.003744694648919052,9.808383292187251,0.0,0.0,0.0,0.0,0.0,0.0,0.0,0.0,0.0
2025/05/25 19:00:25.622675181,1748192424,719186532,mA1/imu,0.2914575182903924,-0.9565833838177559,-0.0005237223849776896,0.0006859669386472477,0.0,0.0,0.0,0.0,0.0,0.0,0.0,0.0,0.0,0.0022500949903102646,-0.007531589945815861,-0.0007536908493862178,0.0,0.0,0.0,0.0,0.0,0.0,0.0,0.0,0.0,0.008165110067320748,0.043241095594846575,9.81020164353864,0.0,0.0,0.0,0.0,0.0,0.0,0.0,0.0,0.0
2025/05/25 19:00:25.631570907,1748192424,770144298,mA1/imu,0.29147581297677344,-0.956577927207805,-0.0005464576648945407,0.00047011952629525473,0.0,0.0,0.0,0.0,0.0,0.0,0.0,0.0,0.0,0.0024101019977405243,-0.00906321741764972,-0.0007439326055427608,0.0,0.0,0.0,0.0,0.0,0.0,0.0,0.0,0.0,-0.008750633005913805,0.05011597166730681,9.810207304994245,0.0,0.0,0.0,0.0,0.0,0.0,0.0,0.0,0.0
2025/05/25 19:00:25.640403158,1748192424,819972298,mA1/imu,0.2914908363704572,-0.9565734212587745,-0.0005743004405624782,0.0002285439528671764,0.0,0.0,0.0,0.0,0.0,0.0,0.0,0.0,0.0,0.0027257949254546362,-0.009951054931806506,-0.0006153692484717895,0.0,0.0,0.0,0.0,0.0,0.0,0.0,0.0,0.0,0.007245161054980265,-0.2964673214409847,9.811168659891788,0.0,0.0,0.0,0.0,0.0,0.0,0.0,0.0,0.0
2025/05/25 19:00:25.640476532,1748192424,871406267,mA1/imu,0.291505678334229,-0.9565689081552375,-0.0006020098051934734,-3.215263676752513e-05,0.0,0.0,0.0,0.0,0.0,0.0,0.0,0.0,0.0,0.003223899792565563,-0.010388447947320058,-0.0005891731254676168,0.0,0.0,0.0,0.0,0.0,0.0,0.0,0.0,0.0,-0.014106094359676032,-0.5200226901284732,9.811709809172601,0.0,0.0,0.0,0.0,0.0,0.0,0.0,0.0,0.0
2025/05/25 19:00:26.120221508,1748192425,164904908,mA1/imu,0.29158061911064,-0.9565452328899565,-0.0007807638524027268,-0.0011620681397220918,0.0,0.0,0.0,0.0,0.0,0.0,0.0,0.0,0.0,-1.0652522456947726e-05,-0.002313066964714693,-0.0004390209626676451,0.0,0.0,0.0,0.0,0.0,0.0,0.0,0.0,0.0,-0.005359983001622045,-0.0015678715407233049,9.808527289906218,0.0,0.0,0.0,0.0,0.0,0.0,0.0,0.0,0.0
2025/05/25 19:00:26.124902545,1748192425,214686198,mA1/imu,0.29159091041771523,-0.9565420625001121,-0.0007902422173336747,-0.001182855459207403,0.0,0.0,0.0,0.0,0.0,0.0,0.0,0.0,0.0,-0.002187277250697429,3.735364612771704e-05,-0.0004379451912244958,0.0,0.0,0.0,0.0,0.0,0.0,0.0,0.0,0.0,-0.0015553526982263026,0.5072823293503135,9.80955031727572,0.0,0.0,0.0,0.0,0.0,0.0,0.0,0.0,0.0
2025/05/25 19:00:26.133372602,1748192425,265634923,mA1/imu,0.2916016467210949,-0.9565388307595653,-0.0007955269151356864,-0.0011454324932476405,0.0,0.0,0.0,0.0,0.0,0.0,0.0,0.0,0.0,-0.001571515572494291,0.0022343294351182415,-0.0004440403509071242,0.0,0.0,0.0,0.0,0.0,0.0,0.0,0.0,0.0,0.004787461091499988,-0.05401973814430176,9.811035105743528,0.0,0.0,0.0,0.0,0.0,0.0,0.0,0.0,0.0
2025/05/25 19:00:26.143686915,1748192425,315523577,mA1/imu,0.2916114278453544,-0.9565359604364868,-0.0007787818661209795,-0.0010606793325417959,0.0,0.0,0.0,0.0,0.0,0.0,0.0,0.0,0.0,-0.000646838971263674,0.004230677414779612,-0.00040347114916288357,0.0,0.0,0.0,0.0,0.0,0.0,0.0,0.0,0.0,0.0037833543085302526,0.03153358946395877,9.810505449836498,0.0,0.0,0.0,0.0,0.0,0.0,0.0,0.0,0.0
2025/05/25 19:00:26.156324673,1748192425,366921973,mA1/imu,0.29162074312453173,-0.9565332703453512,-0.0007686178381929192,-0.000924190749789522,0.0,0.0,0.0,0.0,0.0,0.0,0.0,0.0,0.0,-0.0012963556676613914,0.006256626121125945,-0.00023554365145963865,0.0,0.0,0.0,0.0,0.0,0.0,0.0,0.0,0.0,-0.041460249895838394,0.6507813625435654,9.81138673444492,0.0,0.0,0.0,0.0,0.0,0.0,0.0,0.0,0.0
2025/05/25 19:00:26.169851226,1748192425,416716103,mA1/imu,0.2916152542148465,-0.956535124158971,-0.0007546693713167368,-0.0007281713619646064,0.0,0.0,0.0,0.0,0.0,0.0,0.0,0.0,0.0,-0.002825284455672309,0.008231782718206487,0.0003802135821442258,0.0,0.0,0.0,0.0,0.0,0.0,0.0,0.0,0.0,0.012575276137535809,0.54832594319582,9.809863336256416,0.0,0.0,0.0,0.0,0.0,0.0,0.0,0.0,0.0
2025/05/25 19:00:27.124121433,1748192426,176265945,mA1/imu,0.29124470988446916,-0.9566479977957728,-0.0009357829552870156,-0.0005015853974100822,0.0,0.0,0.0,0.0,0.0,0.0,0.0,0.0,0.0,0.0028322591002185203,-0.008587507468996388,0.001368531432125681,0.0,0.0,0.0,0.0,0.0,0.0,0.0,0.0,0.0,0.016412069234177304,-0.30012709521443176,9.810795142839604,0.0,0.0,0.0,0.0,0.0,0.0,0.0,0.0,0.0
2025/05/25 19:00:27.127100539,1748192426,223961466,mA1/imu,0.29121212636884763,-0.9566577714548097,-0.0009470572545975122,-0.0007133396159620159,0.0,0.0,0.0,0.0,0.0,0.0,0.0,0.0,0.0,0.0020837186253289787,-0.007928548070615517,0.0013617020994877926,0.0,0.0,0.0,0.0,0.0,0.0,0.0,0.0,0.0,0.015675903845220125,0.6430599714975154,9.811701083335418,0.0,0.0,0.0,0.0,0.0,0.0,0.0,0.0,0.0
2025/05/25 19:00:27.136357038,1748192426,264856336,mA1/imu,0.2911790139871174,-0.9566676819226467,-0.0009582084235358634,-0.0009000082537383155,0.0,0.0,0.0,0.0,0.0,0.0,0.0,0.0,0.0,0.0015320283818090455,-0.006784710617561648,0.0013853408062985669,0.0,0.0,0.0,0.0,0.0,0.0,0.0,0.0,0.0,0.013012095219029164,-0.031259232973784565,9.810308828141423,0.0,0.0,0.0,0.0,0.0,0.0,0.0,0.0,0.0
2025/05/25 19:00:27.147652752,1748192426,314698032,mA1/imu,0.2911453116056314,-0.9566777915651713,-0.0009430971598741219,-0.0010588785547330007,0.0,0.0,0.0,0.0,0.0,0.0,0.0,0.0,0.0,0.003152680450918403,-0.005277563497075614,0.0014112420099953412,0.0,0.0,0.0,0.0,0.0,0.0,0.0,0.0,0.0,0.012648204476462963,-0.35252253196451494,9.809432293256673,0.0,0.0,0.0,0.0,0.0,0.0,0.0,0.0,0.0
2025/05/25 19:00:27.157233025,1748192426,365694472,mA1/imu,0.2911110125918028,-0.95668811359366,-0.0009236321740447483,-0.0011741209420476355,0.0,0.0,0.0,0.0,0.0,0.0,0.0,0.0,0.0,0.001291190668525464,-0.003423922673971204,0.001441077046705373,0.0,0.0,0.0,0.0,0.0,0.0,0.0,0.0,0.0,0.009985691112662922,0.5831965081707714,9.810746033022042,0.0,0.0,0.0,0.0,0.0,0.0,0.0,0.0,0.0
2025/05/25 19:00:28.118268763,1748192427,164940852,mA1/imu,0.290517602073457,-0.9568692450285707,-0.0006761482978935902,0.0005600244822975351,0.0,0.0,0.0,0.0,0.0,0.0,0.0,0.0,0.0,-0.0017586103561939785,-0.0023224822116270707,0.0017674387969633051,0.0,0.0,0.0,0.0,0.0,0.0,0.0,0.0,0.0,0.01968481440062758,-0.0844945745939402,9.809568552793019,0.0,0.0,0.0,0.0,0.0,0.0,0.0,0.0,0.0
2025/05/25 19:00:28.119720326,1748192427,217872371,mA1/imu,0.2904749042757055,-0.9568822068301606,-0.0007316006532491611,0.0004868247585369431,0.0,0.0,0.0,0.0,0.0,0.0,0.0,0.0,0.0,-0.000966452713352726,-0.004171231498482017,0.0017912157671871858,0.0,0.0,0.0,0.0,0.0,0.0,0.0,0.0,0.0,0.0190194439021025,-0.010622750786587132,9.810400747005637,0.0,0.0,0.0,0.0,0.0,0.0,0.0,0.0,0.0
2025/05/25 19:00:28.421707996,1748192427,470524368,mA1/imu,0.290250124671565,-0.9569502336104871,-0.0009985857973707395,-0.0003440165409496729,0.0,0.0,0.0,0.0,0.0,0.0,0.0,0.0,0.0,0.0018331448101844199,-0.007781668080493443,0.001982343124619619,0.0,0.0,0.0,0.0,0.0,0.0,0.0,0.0,0.0,0.007054283203961386,-0.463714914441225,9.809536053187152,0.0,0.0,0.0,0.0,0.0,0.0,0.0,0.0,0.0
2025/05/25 19:00:28.428818472,1748192427,520380310,mA1/imu,0.2902016324976372,-0.956964822044653,-0.0010310987376840825,-0.0005279205857073824,0.0,0.0,0.0,0.0,0.0,0.0,0.0,0.0,0.0,0.0014487805388755674,-0.007131068461379168,0.002042216166725918,0.0,0.0,0.0,0.0,0.0,0.0,0.0,0.0,0.0,0.0074492128498852665,0.015169840509857355,9.811994190140997,0.0,0.0,0.0,0.0,0.0,0.0,0.0,0.0,0.0
2025/05/25 19:00:28.438431505,1748192427,571963831,mA1/imu,0.2901518858135052,-0.9569797895826091,-0.0010408239937374647,-0.0006943880083977326,0.0,0.0,0.0,0.0,0.0,0.0,0.0,0.0,0.0,-3.741427618592793e-07,-0.006000587443262219,0.0020667000868022796,0.0,0.0,0.0,0.0,0.0,0.0,0.0,0.0,0.0,0.0039914740638963345,0.5195424581021373,9.812114157458181,0.0,0.0,0.0,0.0,0.0,0.0,0.0,0.0,0.0
2025/05/25 19:00:28.718934754,1748192427,764624930,mA1/imu,0.2899500484304595,-0.957040821861372,-0.0009222310296975601,-0.0009920665360950544,0.0,0.0,0.0,0.0,0.0,0.0,0.0,0.0,0.0,0.0007718091116755118,0.0010014875700901978,0.0021857833289452024,0.0,0.0,0.0,0.0,0.0,0.0,0.0,0.0,0.0,0.002876538795171024,0.45971263698767867,9.811017654322544,0.0,0.0,0.0,0.0,0.0,0.0,0.0,0.0,0.0
2025/05/25 19:00:28.722330926,1748192427,814420473,mA1/imu,0.2898970888461462,-0.9570569648669184,-0.0008517973469120278,-0.0009582898995027304,0.0,0.0,0.0,0.0,0.0,0.0,0.0,0.0,0.0,0.002189869405422593,0.002831795960900688,0.002230757064174025,0.0,0.0,0.0,0.0,0.0,0.0,0.0,0.0,0.0,0.0027974356411887107,0.01984914339944502,9.8074912459521,0.0,0.0,0.0,0.0,0.0,0.0,0.0,0.0,0.0
2025/05/25 19:00:29.22111249,1748192428,67515348,mA1/imu,0.289613219189855,-0.9571436078461439,-0.0004677243578257926,-0.0002801136934631082,0.0,0.0,0.0,0.0,0.0,0.0,0.0,0.0,0.0,0.00017218620157786652,0.0075359008894115105,0.0024867448254522,0.0,0.0,0.0,0.0,0.0,0.0,0.0,0.0,0.0,0.011207026183384575,0.627209250864451,9.810627190486963,0.0,0.0,0.0,0.0,0.0,0.0,0.0,0.0,0.0
2025/05/25 19:00:29.28630381,1748192428,117615880,mA1/imu,0.28955321139745316,-0.9571618223502839,-0.00041598051599795865,-0.00010278480249090777,0.0,0.0,0.0,0.0,0.0,0.0,0.0,0.0,0.0,0.0004102779514548426,0.007218409156386588,0.002527286829806995,0.0,0.0,0.0,0.0,0.0,0.0,0.0,0.0,0.0,0.011964026451689511,-0.29298382142816554,9.809237750029153,0.0,0.0,0.0,0.0,0.0,0.0,0.0,0.0,0.0
2025/05/25 19:00:29.972463444,1748192429,20992750,mA1/imu,0.28839457223639153,-0.957510821741596,-0.0010735093853573236,-0.0006667307717508903,0.0,0.0,0.0,0.0,0.0,0.0,0.0,0.0,0.0,0.001029507740366533,-0.00028761382489373875,0.002814394805988953,0.0,0.0,0.0,0.0,0.0,0.0,0.0,0.0,0.0,-0.0006025420638666942,-0.02934414710549415,9.810398954143473,0.0,0.0,0.0,0.0,0.0,0.0,0.0,0.0,0.0
2025/05/25 19:00:29.977498586,1748192429,71957083,mA1/imu,0.2883268189739336,-0.9575312818726776,-0.0010218814108775465,-0.0006674234201666633,0.0,0.0,0.0,0.0,0.0,0.0,0.0,0.0,0.0,0.0023011196707305795,0.0011340461031844697,0.002839961939022038,0.0,0.0,0.0,0.0,0.0,0.0,0.0,0.0,0.0,-0.00040674506115467857,-0.32097922114576777,9.809604082081888,0.0,0.0,0.0,0.0,0.0,0.0,0.0,0.0,0.0
2025/05/25 19:00:29.985606498,1748192429,121743327,mA1/imu,0.28825847238114133,-0.9575519475540859,-0.0009576186984694285,-0.0006354544013872548,0.0,0.0,0.0,0.0,0.0,0.0,0.0,0.0,0.0,0.0018772527381884824,0.0024961607131999157,0.0028661355926653895,0.0,0.0,0.0,0.0,0.0,0.0,0.0,0.0,0.0,-0.00025028359142283477,-0.39168096681761017,9.809190259003357,0.0,0.0,0.0,0.0,0.0,0.0,0.0,0.0,0.0
2025/05/25 19:00:30.470765929,1748192429,515605620,mA1/imu,0.2876774387650343,-0.9577272836166254,-0.00031701615338268333,0.00020234294686908116,0.0,0.0,0.0,0.0,0.0,0.0,0.0,0.0,0.0,0.00039250866946199356,0.0035220047586878465,0.003248437763721961,0.0,0.0,0.0,0.0,0.0,0.0,0.0,0.0,0.0,0.012991197471621167,0.14652703452207128,9.809261162669614,0.0,0.0,0.0,0.0,0.0,0.0,0.0,0.0,0.0
2025/05/25 19:00:30.471722742,1748192429,566770398,mA1/imu,0.2875996090470611,-0.9577506495045207,-0.0002947733876136671,0.0002671297366665319,0.0,0.0,0.0,0.0,0.0,0.0,0.0,0.0,0.0,-8.650655019059327e-05,0.0021926208644861677,0.0032527896450460633,0.0,0.0,0.0,0.0,0.0,0.0,0.0,0.0,0.0,0.014047099194164584,0.00587016544715171,9.811473646547814,0.0,0.0,0.0,0.0,0.0,0.0,0.0,0.0,0.0
2025/05/25 19:00:30.487468648,1748192429,616630626,mA1/imu,0.28752223805747545,-0.9577738718439144,-0.00028876435643210074,0.00029941724039328867,0.0,0.0,0.0,0.0,0.0,0.0,0.0,0.0,0.0,-0.0003713570746122459,0.0007083707170571757,0.0032186694889884235,0.0,0.0,0.0,0.0,0.0,0.0,0.0,0.0,0.0,0.014519261223386527,0.019830519758922624,9.811011304255617,0.0,0.0,0.0,0.0,0.0,0.0,0.0,0.0,0.0
2025/05/25 19:00:30.494085417,1748192429,667763242,mA1/imu,0.28744485338627523,-0.9577970924132051,-0.00030842393175516575,0.00030149831050939666,0.0,0.0,0.0,0.0,0.0,0.0,0.0,0.0,0.0,-0.0014534504081555395,-0.0006378086759354882,0.0032841228492449374,0.0,0.0,0.0,0.0,0.0,0.0,0.0,0.0,0.0,-0.003208302908697831,0.6079945576204759,9.810544179738368,0.0,0.0,0.0,0.0,0.0,0.0,0.0,0.0,0.0
2025/05/25 19:00:30.504264156,1748192429,717692208,mA1/imu,0.28736196680435144,-0.9578219548407165,-0.000351297513982359,0.0002818678767236563,0.0,0.0,0.0,0.0,0.0,0.0,0.0,0.0,0.0,-0.0021184769871465457,-0.00176080747140722,0.003512360328797638,0.0,0.0,0.0,0.0,0.0,0.0,0.0,0.0,0.0,0.014875811115305336,-0.03893205051840713,9.808879760924908,0.0,0.0,0.0,0.0,0.0,0.0,0.0,0.0,0.0
2025/05/25 19:00:30.513908092,1748192429,768660617,mA1/imu,0.2872775052217149,-0.9578472832131895,-0.00040491457376719655,0.00023038855838365186,0.0,0.0,0.0,0.0,0.0,0.0,0.0,0.0,0.0,-0.0016369769178148058,-0.003120350523827207,0.0035351989748871044,0.0,0.0,0.0,0.0,0.0,0.0,0.0,0.0,0.0,0.014469380461816748,-0.6139895112991892,9.809857989603282,0.0,0.0,0.0,0.0,0.0,0.0,0.0,0.0,0.0
2025/05/25 19:00:31.474158315,1748192430,519203354,mA1/imu,0.28605139511970384,-0.9582136489811638,-0.0009793755356641341,-0.0004930312708915563,0.0,0.0,0.0,0.0,0.0,0.0,0.0,0.0,0.0,0.0026465441803793354,0.004418989018763387,0.0024182015232304503,0.0,0.0,0.0,0.0,0.0,0.0,0.0,0.0,0.0,0.0026167184219243276,0.07612457192147243,9.810071119832504,0.0,0.0,0.0,0.0,0.0,0.0,0.0,0.0,0.0
2025/05/25 19:00:31.475412869,1748192430,570193174,mA1/imu,0.28599469661657206,-0.9582306964390868,-0.0009030853179911207,-0.000387744717889912,0.0,0.0,0.0,0.0,0.0,0.0,0.0,0.0,0.0,0.0015740928653926421,0.005178665024320837,0.0023385375232080918,0.0,0.0,0.0,0.0,0.0,0.0,0.0,0.0,0.0,0.004762523652634304,0.07192757748659415,9.809557374102758,0.0,0.0,0.0,0.0,0.0,0.0,0.0,0.0,0.0
2025/05/25 19:00:31.768080006,1748192430,823495518,mA1/imu,0.2857400355583227,-0.9583070492150417,-0.0004527255292094502,0.00016292170805761995,0.0,0.0,0.0,0.0,0.0,0.0,0.0,0.0,0.0,0.0021195496901718503,0.004031282162984629,0.0019379382263675202,0.0,0.0,0.0,0.0,0.0,0.0,0.0,0.0,0.0,0.010438239400803226,0.11318703644969631,9.810558674274148,0.0,0.0,0.0,0.0,0.0,0.0,0.0,0.0,0.0
2025/05/25 19:00:31.781052653,1748192430,864821054,mA1/imu,0.28569440429606885,-0.9583206697494095,-0.00038412154108554114,0.0002318094023426403,0.0,0.0,0.0,0.0,0.0,0.0,0.0,0.0,0.0,0.002405342769251973,0.0030555812460809095,0.0019380758954418177,0.0,0.0,0.0,0.0,0.0,0.0,0.0,0.0,0.0,-0.005953746031158847,-0.48456739744794763,9.809521886977974,0.0,0.0,0.0,0.0,0.0,0.0,0.0,0.0,0.0
2025/05/25 19:00:31.792119992,1748192430,914641273,mA1/imu,0.28564643254145056,-0.9583349756648548,-0.0003341402014357609,0.0002799001797069606,0.0,0.0,0.0,0.0,0.0,0.0,0.0,0.0,0.0,0.001001384669361159,0.0018917686667442714,0.0019932320649774828,0.0,0.0,0.0,0.0,0.0,0.0,0.0,0.0,0.0,0.012915911083412075,0.10290430965665487,9.810743746661174,0.0,0.0,0.0,0.0,0.0,0.0,0.0,0.0,0.0
2025/05/25 19:00:31.801879851,1748192430,965569807,mA1/imu,0.2855993943548293,-0.9583490013388855,-0.0002992979971452446,0.0002966439357535773,0.0,0.0,0.0,0.0,0.0,0.0,0.0,0.0,0.0,-9.056179353943214e-06,0.0004703788419528864,0.0019455871815977333,0.0,0.0,0.0,0.0,0.0,0.0,0.0,0.0,0.0,0.01303951155087329,0.5698417024905861,9.81147029253056,0.0,0.0,0.0,0.0,0.0,0.0,0.0,0.0,0.0
2025/05/25 19:00:31.812512687,1748192431,15412848,mA1/imu,0.28555343297257163,-0.9583627062345017,-0.0002838458250444658,0.0002822197883413376,0.0,0.0,0.0,0.0,0.0,0.0,0.0,0.0,0.0,-0.0005843907694308885,-0.0009229243363695982,0.0018999591622324145,0.0,0.0,0.0,0.0,0.0,0.0,0.0,0.0,0.0,0.012209758494540963,0.5670226124113493,9.808738171901169,0.0,0.0,0.0,0.0,0.0,0.0,0.0,0.0,0.0
2025/05/25 19:00:32.770321604,1748192431,816443505,mA1/imu,0.28526219835397715,-0.9584489593204002,-0.0009994920166764894,-0.0002675511291254721,0.0,0.0,0.0,0.0,0.0,0.0,0.0,0.0,0.0,0.0006255885379986504,0.005930375191739335,-0.00042931405201695723,0.0,0.0,0.0,0.0,0.0,0.0,0.0,0.0,0.0,-0.0041104231405103,0.03458591289762471,9.810524958148532,0.0,0.0,0.0,0.0,0.0,0.0,0.0,0.0,0.0
2025/05/25 19:00:32.770749468,1748192431,867409476,mA1/imu,0.28527415281360724,-0.9584454864575207,-0.0009448688393460321,-0.00012020216954260649,0.0,0.0,0.0,0.0,0.0,0.0,0.0,0.0,0.0,0.00018954650508228434,0.006444219070768951,-0.0005348984862704077,0.0,0.0,0.0,0.0,0.0,0.0,0.0,0.0,0.0,-0.002129525840423593,0.34305427746932055,9.811680605096292,0.0,0.0,0.0,0.0,0.0,0.0,0.0,0.0,0.0
2025/05/25 19:00:32.782775065,1748192431,917874147,mA1/imu,0.28528863995669856,-0.9584412413935202,-0.0008818587909346186,3.2136861666020455e-05,0.0,0.0,0.0,0.0,0.0,0.0,0.0,0.0,0.0,0.0009503320010782652,0.006583434560268073,-0.0006409862848943794,0.0,0.0,0.0,0.0,0.0,0.0,0.0,0.0,0.0,-0.001778834154255289,-0.4248695250676297,9.810437043600354,0.0,0.0,0.0,0.0,0.0,0.0,0.0,0.0,0.0
2025/05/25 19:00:32.799777591,1748192431,969944567,mA1/imu,0.2853056783651384,-0.9584362248191634,-0.0008010563742614994,0.00017650972574432812,0.0,0.0,0.0,0.0,0.0,0.0,0.0,0.0,0.0,8.236022705700706e-05,0.006327877959834053,-0.0007480069339407822,0.0,0.0,0.0,0.0,0.0,0.0,0.0,0.0,0.0,0.00150150247174705,0.5367211314819696,9.811671035429308,0.0,0.0,0.0,0.0,0.0,0.0,0.0,0.0,0.0
2025/05/25 19:00:32.809763127,1748192432,19694562,mA1/imu,0.2853252520611859,-0.9584304319424676,-0.0007163974828558343,0.000307306755984448,0.0,0.0,0.0,0.0,0.0,0.0,0.0,0.0,0.0,0.002395642426898446,0.005704222873003348,-0.0008542134398685065,0.0,0.0,0.0,0.0,0.0,0.0,0.0,0.0,0.0,0.001126514263417205,-0.4961355506540507,9.809639906574319,0.0,0.0,0.0,0.0,0.0,0.0,0.0,0.0,0.0
2025/05/25 19:00:33.775661815,1748192432,818204251,mA1/imu,0.2857684729497014,-0.9582977669489231,-0.0009261715559986029,-0.0009549528534267243,0.0,0.0,0.0,0.0,0.0,0.0,0.0,0.0,0.0,-0.002234363380766329,-0.0026027453762855054,-0.0004868918095676084,0.0,0.0,0.0,0.0,0.0,0.0,0.0,0.0,0.0,0.012665364941614042,-0.38115978807386686,9.80898035809291,0.0,0.0,0.0,0.0,0.0,0.0,0.0,0.0,0.0
2025/05/25 19:00:33.776962259,1748192432,869192060,mA1/imu,0.28577949901050004,-0.9582943817494031,-0.0009999042686780562,-0.0009777751737503493,0.0,0.0,0.0,0.0,0.0,0.0,0.0,0.0,0.0,-0.0020676685131674143,-0.0011170088216320069,-0.0004428958929576287,0.0,0.0,0.0,0.0,0.0,0.0,0.0,0.0,0.0,0.01319297510070385,-0.04344234266300736,9.809453405711936,0.0,0.0,0.0,0.0,0.0,0.0,0.0,0.0,0.0
2025/05/25 19:00:33.784740254,1748192432,919008563,mA1/imu,0.2857896041531286,-0.9582913137494556,-0.0010636608980767572,-0.0009637301667087235,0.0,0.0,0.0,0.0,0.0,0.0,0.0,0.0,0.0,-0.0027601360847172482,0.0004191242622927791,-0.000403148917665947,0.0,0.0,0.0,0.0,0.0,0.0,0.0,0.0,0.0,0.013799915022611013,-0.027186056647630946,9.810091615105204,0.0,0.0,0.0,0.0,0.0,0.0,0.0,0.0,0.0
2025/05/25 19:00:33.798269244,1748192432,970137010,mA1/imu,0.28579881566721943,-0.9582885703791421,-0.0010994168055920251,-0.000918763627075678,0.0,0.0,0.0,0.0,0.0,0.0,0.0,0.0,0.0,-0.0030001720929452944,0.0019096017603843234,-0.000367909525256793,0.0,0.0,0.0,0.0,0.0,0.0,0.0,0.0,0.0,0.014437125386631302,0.5209915430130286,9.811024816920161,0.0,0.0,0.0,0.0,0.0,0.0,0.0,0.0,0.0
2025/05/25 19:00:33.809715727,1748192433,20102473,mA1/imu,0.2858073190667355,-0.9582860688957384,-0.0011337410379735095,-0.0008373526712418992,0.0,0.0,0.0,0.0,0.0,0.0,0.0,0.0,0.0,-0.0007965897784937366,0.0032457224909917203,-0.00033787285114401185,0.0,0.0,0.0,0.0,0.0,0.0,0.0,0.0,0.0,0.014569104231323085,-0.5537984338573652,9.809497240884273,0.0,0.0,0.0,0.0,0.0,0.0,0.0,0.0,0.0
2025/05/25 19:00:33.818543106,1748192433,71253837,mA1/imu,0.2858152250893716,-0.9582837819017513,-0.0011480945153842675,-0.0007296096025345088,0.0,0.0,0.0,0.0,0.0,0.0,0.0,0.0,0.0,-0.0016945785864479561,0.004400886012707217,-0.00031590986399110307,0.0,0.0,0.0,0.0,0.0,0.0,0.0,0.0,0.0,0.016624919881472005,0.143800187170225,9.811256117067984,0.0,0.0,0.0,0.0,0.0,0.0,0.0,0.0,0.0
2025/05/25 19:00:34.768253180,1748192433,823021677,mA1/imu,0.2862883533544461,-0.9581433360476633,-0.0005603643216968426,-0.00011096342334056313,0.0,0.0,0.0,0.0,0.0,0.0,0.0,0.0,0.0,0.0008683067784685957,-0.003928961582854392,-0.0028503583859067873,0.0,0.0,0.0,0.0,0.0,0.0,0.0,0.0,0.0,0.0014639043146241156,-0.019570494342545305,9.808147484662475,0.0,0.0,0.0,0.0,0.0,0.0,0.0,0.0,0.0
2025/05/25 19:00:34.777641700,1748192433,874018136,mA1/imu,0.2863577197938221,-0.9581225829118303,-0.0005733965448953967,-0.0002089144513716292,0.0,0.0,0.0,0.0,0.0,0.0,0.0,0.0,0.0,0.0004280278033885067,-0.0038512652287717906,-0.0029291891547205207,0.0,0.0,0.0,0.0,0.0,0.0,0.0,0.0,0.0,-8.289218808753534e-05,-0.010651764007056811,9.808357521161577,0.0,0.0,0.0,0.0,0.0,0.0,0.0,0.0,0.0
2025/05/25 19:00:34.970407995,1748192434,14909290,mA1/imu,0.2865765278977537,-0.9580570257250892,-0.0006646630245879617,-0.0004328278269559859,0.0,0.0,0.0,0.0,0.0,0.0,0.0,0.0,0.0,-0.000954754663212284,-0.002379918731148241,-0.003145605526154344,0.0,0.0,0.0,0.0,0.0,0.0,0.0,0.0,0.0,-0.0013031580643486206,-0.012309519968742818,9.80938752003581,0.0,0.0,0.0,0.0,0.0,0.0,0.0,0.0,0.0
2025/05/25 19:00:34.976217671,1748192434,66206817,mA1/imu,0.2866527592142,-0.9580341730841795,-0.0007056932832128762,-0.0004699306207624675,0.0,0.0,0.0,0.0,0.0,0.0,0.0,0.0,0.0,-0.0013127904560599638,-0.001501755401109718,-0.003200570735083688,0.0,0.0,0.0,0.0,0.0,0.0,0.0,0.0,0.0,-0.01328559033675625,-0.015460184297259287,9.810527873826901,0.0,0.0,0.0,0.0,0.0,0.0,0.0,0.0,0.0
2025/05/25 19:00:34.985690183,1748192434,116068727,mA1/imu,0.28672996023023495,-0.9580110331241195,-0.0007480251285532511,-0.0004803927893208148,0.0,0.0,0.0,0.0,0.0,0.0,0.0,0.0,0.0,-0.0015880887460446367,-0.0005221217979539866,-0.0032469853520178675,0.0,0.0,0.0,0.0,0.0,0.0,0.0,0.0,0.0,-0.0013473118006279098,-0.00515679364659996,9.810279348457874,0.0,0.0,0.0,0.0,0.0,0.0,0.0,0.0,0.0
2025/05/25 19:00:34.995982603,1748192434,167073057,mA1/imu,0.28680864953912366,-0.9579874497913219,-0.0007914306446178371,-0.00046715029547411745,0.0,0.0,0.0,0.0,0.0,0.0,0.0,0.0,0.0,-0.0019191653899235295,0.0003653204276264753,-0.0033095989114572833,0.0,0.0,0.0,0.0,0.0,0.0,0.0,0.0,0.0,-0.0010767101376268403,-0.011688285344984829,9.810737221985132,0.0,0.0,0.0,0.0,0.0,0.0,0.0,0.0,0.0
2025/05/25 19:00:35.7424088,1748192434,217055527,mA1/imu,0.28688883607896865,-0.9579634211202461,-0.0008323583972157086,-0.0004320976130197892,0.0,0.0,0.0,0.0,0.0,0.0,0.0,0.0,0.0,-0.002385825246765611,0.0011999216548949164,-0.0033709934880449873,0.0,0.0,0.0,0.0,0.0,0.0,0.0,0.0,0.0,2.536364688449262e-05,0.3398939056019499,9.81153691831422,0.0,0.0,0.0,0.0,0.0,0.0,0.0,0.0,0.0
2025/05/25 19:00:35.21352948,1748192434,268080801,mA1/imu,0.2869705868755692,-0.9579389237494154,-0.000870673752206812,-0.0003775729338828715,0.0,0.0,0.0,0.0,0.0,0.0,0.0,0.0,0.0,-0.0018346237809148654,0.0019172573409252272,-0.003446004047620442,0.0,0.0,0.0,0.0,0.0,0.0,0.0,0.0,0.0,0.0040588682999136184,-0.4500470308699079,9.810442725472667,0.0,0.0,0.0,0.0,0.0,0.0,0.0,0.0,0.0
2025/05/25 19:00:35.965904088,1748192435,23456457,mA1/imu,0.28819438544055836,-0.957571503529728,-0.000896431101527701,-9.077243746961506e-05,0.0,0.0,0.0,0.0,0.0,0.0,0.0,0.0,0.0,0.0033789708057348307,-0.00305497242841652,-0.0030587815424449826,0.0,0.0,0.0,0.0,0.0,0.0,0.0,0.0,0.0,0.011264661817608292,-0.47575537612938035,9.807993568945536,0.0,0.0,0.0,0.0,0.0,0.0,0.0,0.0,0.0
2025/05/25 19:00:35.969406963,1748192435,74484478,mA1/imu,0.28826721211040107,-0.957549582724998,-0.0008830588034269551,-0.00017678356488672783,0.0,0.0,0.0,0.0,0.0,0.0,0.0,0.0,0.0,0.0009932623194741205,-0.0031941175114662494,-0.0030376585338803483,0.0,0.0,0.0,0.0,0.0,0.0,0.0,0.0,0.0,0.01148314677173391,-0.1256971947802349,9.81169753273445,0.0,0.0,0.0,0.0,0.0,0.0,0.0,0.0,0.0
2025/05/25 19:00:35.978545477,1748192435,114162781,mA1/imu,0.28833954394463995,-0.9575278165300577,-0.0008451645844857332,-0.00027141444751750676,0.0,0.0,0.0,0.0,0.0,0.0,0.0,0.0,0.0,0.00162312617681849,-0.0031251994659121617,-0.0030155778759105236,0.0,0.0,0.0,0.0,0.0,0.0,0.0,0.0,0.0,0.009276137966586101,0.14702363441059454,9.806796778634972,0.0,0.0,0.0,0.0,0.0,0.0,0.0,0.0,0.0
2025/05/25 19:00:35.989217387,1748192435,165147497,mA1/imu,0.2884115228653628,-0.957506128230539,-0.0008251352668612725,-0.0003564144162633351,0.0,0.0,0.0,0.0,0.0,0.0,0.0,0.0,0.0,0.0036832295471162647,-0.002925675387009763,-0.0030295737155711646,0.0,0.0,0.0,0.0,0.0,0.0,0.0,0.0,0.0,0.007314366722265311,-0.48823984143012183,9.80762407396121,0.0,0.0,0.0,0.0,0.0,0.0,0.0,0.0,0.0
2025/05/25 19:00:35.999529088,1748192435,215021896,mA1/imu,0.2884860986628162,-0.9574836412865879,-0.0008157161154382256,-0.00042679515421176244,0.0,0.0,0.0,0.0,0.0,0.0,0.0,0.0,0.0,0.0004707756162746936,-0.0023796898337673307,-0.0031426852631509304,0.0,0.0,0.0,0.0,0.0,0.0,0.0,0.0,0.0,0.00834983076774854,-0.09815435294451326,9.808608659746037,0.0,0.0,0.0,0.0,0.0,0.0,0.0,0.0,0.0
2025/05/25 19:00:36.11722434,1748192435,266095566,mA1/imu,0.28856141776903727,-0.9574609465483839,-0.0007756318391667173,-0.0004923464695385282,0.0,0.0,0.0,0.0,0.0,0.0,0.0,0.0,0.0,0.0006016571691738866,-0.001789799496961956,-0.003159377264396163,0.0,0.0,0.0,0.0,0.0,0.0,0.0,0.0,0.0,0.009071504982995431,0.5566171048543178,9.808413455703679,0.0,0.0,0.0,0.0,0.0,0.0,0.0,0.0,0.0
2025/05/25 19:00:36.970173736,1748192436,18077259,mA1/imu,0.28969249933804103,-0.9571191402613906,-0.0010969584190981551,6.20870553126123e-05,0.0,0.0,0.0,0.0,0.0,0.0,0.0,0.0,0.0,-0.0008500824846538525,0.0001865037607943939,-0.003055090757368736,0.0,0.0,0.0,0.0,0.0,0.0,0.0,0.0,0.0,0.013874042929372938,-0.6201563058679556,9.81003069326209,0.0,0.0,0.0,0.0,0.0,0.0,0.0,0.0,0.0
2025/05/25 19:00:36.971572491,1748192436,69018734,mA1/imu,0.28976497265216383,-0.957097168862743,-0.001124878915852549,6.801644825538095e-05,0.0,0.0,0.0,0.0,0.0,0.0,0.0,0.0,0.0,-0.0015628652981410148,-0.00029519743794095675,-0.0030183866028806244,0.0,0.0,0.0,0.0,0.0,0.0,0.0,0.0,0.0,0.015870738490071847,-0.07110872578830661,9.8094252356041,0.0,0.0,0.0,0.0,0.0,0.0,0.0,0.0,0.0
2025/05/25 19:00:36.983766915,1748192436,118813755,mA1/imu,0.2898369062344071,-0.9570753708797424,-0.0011397274700152243,5.7106613789159274e-05,0.0,0.0,0.0,0.0,0.0,0.0,0.0,0.0,0.0,-0.0011303749627738654,-0.0007532745826028172,-0.002990791426181146,0.0,0.0,0.0,0.0,0.0,0.0,0.0,0.0,0.0,0.012425966539676831,-0.07540829384073089,9.807494235187367,0.0,0.0,0.0,0.0,0.0,0.0,0.0,0.0,0.0
2025/05/25 19:00:36.993812072,1748192436,170072994,mA1/imu,0.28990779320561316,-0.9570538950741698,-0.0011455614092766204,3.242019496870358e-05,0.0,0.0,0.0,0.0,0.0,0.0,0.0,0.0,0.0,-0.0004176762546343847,-0.00115654456266621,-0.0029459335670065745,0.0,0.0,0.0,0.0,0.0,0.0,0.0,0.0,0.0,0.012133693256759857,0.5644969441823593,9.809139616922465,0.0,0.0,0.0,0.0,0.0,0.0,0.0,0.0,0.0
2025/05/25 19:00:37.5690725,1748192436,219885191,mA1/imu,0.2899775859656078,-0.9570327513239928,-0.001145653665764825,-2.9094811087702226e-06,0.0,0.0,0.0,0.0,0.0,0.0,0.0,0.0,0.0,4.1575168767781306e-05,-0.0014620424859778161,-0.0029007943742500666,0.0,0.0,0.0,0.0,0.0,0.0,0.0,0.0,0.0,0.011626593565812412,0.2049003423282851,9.808469153843054,0.0,0.0,0.0,0.0,0.0,0.0,0.0,0.0,0.0
2025/05/25 19:00:37.16402093,1748192436,270906759,mA1/imu,0.29004662556664457,-0.9570118474840503,-0.0011296882149953304,-5.076518858809347e-05,0.0,0.0,0.0,0.0,0.0,0.0,0.0,0.0,0.0,0.000757684897344863,-0.001755523328375511,-0.0028933132363242265,0.0,0.0,0.0,0.0,0.0,0.0,0.0,0.0,0.0,0.01406525729529354,0.5726194389241496,9.809340806593346,0.0,0.0,0.0,0.0,0.0,0.0,0.0,0.0,0.0
2025/05/25 19:00:37.671198347,1748192436,716331327,mA1/imu,0.2906630706273655,-0.9568250222706138,-0.0008185967426874363,-0.0004313115852960383,0.0,0.0,0.0,0.0,0.0,0.0,0.0,0.0,0.0,-0.0005016640838550607,0.0009261374334595915,-0.0024779018163356282,0.0,0.0,0.0,0.0,0.0,0.0,0.0,0.0,0.0,0.003723282176911657,0.4815908780291291,9.811240893373368,0.0,0.0,0.0,0.0,0.0,0.0,0.0,0.0,0.0
2025/05/25 19:00:37.676191990,1748192436,767368490,mA1/imu,0.29071966591676995,-0.9568078633909014,-0.0007891854232736319,-0.0004069262193146175,0.0,0.0,0.0,0.0,0.0,0.0,0.0,0.0,0.0,0.00010401358829663224,0.0015004120507361677,-0.002314057700760765,0.0,0.0,0.0,0.0,0.0,0.0,0.0,0.0,0.0,0.008099591092879867,-0.07499423793370799,9.812236335970452,0.0,0.0,0.0,0.0,0.0,0.0,0.0,0.0,0.0
2025/05/25 19:00:37.687775987,1748192436,817215824,mA1/imu,0.29077403623715764,-0.9567913763654282,-0.0007658282343444209,-0.00036806278987275233,0.0,0.0,0.0,0.0,0.0,0.0,0.0,0.0,0.0,-0.0006717659082230653,0.0019275534165239668,-0.002243708146665843,0.0,0.0,0.0,0.0,0.0,0.0,0.0,0.0,0.0,0.007627128405647639,-0.06941103240678229,9.811308547459186,0.0,0.0,0.0,0.0,0.0,0.0,0.0,0.0,0.0
2025/05/25 19:00:37.695516025,1748192436,868236815,mA1/imu,0.29082677201374235,-0.9567753791342382,-0.0007491361633874999,-0.00031836709946985635,0.0,0.0,0.0,0.0,0.0,0.0,0.0,0.0,0.0,-0.001169227861803651,0.0022130518308186246,-0.0021753028433557186,0.0,0.0,0.0,0.0,0.0,0.0,0.0,0.0,0.0,0.00882773528797929,0.5278459683119487,9.811750500975492,0.0,0.0,0.0,0.0,0.0,0.0,0.0,0.0,0.0
2025/05/25 19:00:38.217785514,1748192437,264932231,mA1/imu,0.29120946860641245,-0.9566588835664743,-0.0009029291057168771,0.00010298712425954137,0.0,0.0,0.0,0.0,0.0,0.0,0.0,0.0,0.0,-0.0018828160905371718,0.00031393585033674464,-0.0018805186965945575,0.0,0.0,0.0,0.0,0.0,0.0,0.0,0.0,0.0,0.005414686700721041,-0.04174993570725167,9.8079605027592,0.0,0.0,0.0,0.0,0.0,0.0,0.0,0.0,0.0
2025/05/25 19:00:38.220288281,1748192437,315431505,mA1/imu,0.2912527419236658,-0.956645670977622,-0.0009418122139349104,0.00011623887399871702,0.0,0.0,0.0,0.0,0.0,0.0,0.0,0.0,0.0,-0.0017796672643092932,-0.00011431131966800669,-0.0017641757336345348,0.0,0.0,0.0,0.0,0.0,0.0,0.0,0.0,0.0,0.005887664256193435,0.5858460743621685,9.809153770721473,0.0,0.0,0.0,0.0,0.0,0.0,0.0,0.0,0.0
2025/05/25 19:00:38.222191473,1748192437,366444982,mA1/imu,0.29129323234452376,-0.9566332961624396,-0.0009874246065122115,0.00012023440334576967,0.0,0.0,0.0,0.0,0.0,0.0,0.0,0.0,0.0,-0.0017182239068634592,-0.0005481205006193276,-0.0016464136141061965,0.0,0.0,0.0,0.0,0.0,0.0,0.0,0.0,0.0,0.005192174525624781,0.16183049733439442,9.808239099905347,0.0,0.0,0.0,0.0,0.0,0.0,0.0,0.0,0.0
2025/05/25 19:00:38.228829001,1748192437,416335609,mA1/imu,0.29133101671480316,-0.9566217515851734,-0.0010250238352587126,0.00011144582144214101,0.0,0.0,0.0,0.0,0.0,0.0,0.0,0.0,0.0,-0.0011265582361626785,-0.0009150674949255962,-0.0015364270680198106,0.0,0.0,0.0,0.0,0.0,0.0,0.0,0.0,0.0,0.004848373260416998,-0.026454940547020488,9.808804414636603,0.0,0.0,0.0,0.0,0.0,0.0,0.0,0.0,0.0
2025/05/25 19:00:38.242577199,1748192437,468075373,mA1/imu,0.29136606822404215,-0.9566110377787691,-0.0010620097588241227,9.392955475181125e-05,0.0,0.0,0.0,0.0,0.0,0.0,0.0,0.0,0.0,-0.001035832993301048,-0.0012156716502154583,-0.0014201681059866256,0.0,0.0,0.0,0.0,0.0,0.0,0.0,0.0,0.0,0.004354995916534786,-0.04337004607082153,9.8084484226808,0.0,0.0,0.0,0.0,0.0,0.0,0.0,0.0,0.0
2025/05/25 19:00:38.256778351,1748192437,517774908,mA1/imu,0.29139852303926694,-0.9566011250552597,-0.0010880859275510817,6.62009020346789e-05,0.0,0.0,0.0,0.0,0.0,0.0,0.0,0.0,0.0,2.8619390988879976e-05,-0.00146738779562146,-0.0013303644009676186,0.0,0.0,0.0,0.0,0.0,0.0,0.0,0.0,0.0,0.006262928039603761,-0.6016600815189569,9.8081102263754,0.0,0.0,0.0,0.0,0.0,0.0,0.0,0.0,0.0
2025/05/25 19:00:38.268734269,1748192437,568747850,mA1/imu,0.2914296485537577,-0.9565916279354906,-0.0011029436773785034,2.868459344181057e-05,0.0,0.0,0.0,0.0,0.0,0.0,0.0,0.0,0.0,0.00160074826760317,-0.001669789829524551,-0.0012706644267122277,0.0,0.0,0.0,0.0,0.0,0.0,0.0,0.0,0.0,0.0013648416249002785,-0.41850759076881583,9.80905554865554,0.0,0.0,0.0,0.0,0.0,0.0,0.0,0.0,0.0
2025/05/25 19:00:39.221273920,1748192438,268514319,mA1/imu,0.29162807997677004,-0.9565314749675162,-0.0007537955466021932,-0.00017932597225545337,0.0,0.0,0.0,0.0,0.0,0.0,0.0,0.0,0.0,-0.00040976124577527445,0.0014093613585427552,-0.00012309146212390986,0.0,0.0,0.0,0.0,0.0,0.0,0.0,0.0,0.0,0.0040199609408091705,0.5067975322523283,9.811035823433674,0.0,0.0,0.0,0.0,0.0,0.0,0.0,0.0,0.0
2025/05/25 19:00:39.223132465,1748192438,318210578,mA1/imu,0.2916312360011299,-0.9565305431247763,-0.0007205545264170966,-0.00015185206123210848,0.0,0.0,0.0,0.0,0.0,0.0,0.0,0.0,0.0,9.807935044293342e-06,0.0014725748260886351,-0.00013393196430887597,0.0,0.0,0.0,0.0,0.0,0.0,0.0,0.0,0.0,0.0028328946649174317,0.06471176684364617,9.808589351001052,0.0,0.0,0.0,0.0,0.0,0.0,0.0,0.0,0.0
2025/05/25 19:00:39.235965908,1748192438,369136247,mA1/imu,0.29163353506948436,-0.9565298670112103,-0.0006928571970262784,-0.00012119115763113282,0.0,0.0,0.0,0.0,0.0,0.0,0.0,0.0,0.0,0.0020061173845693737,0.0013955296474414682,-0.0001303598265431076,0.0,0.0,0.0,0.0,0.0,0.0,0.0,0.0,0.0,0.025461271351296163,-0.4150392776231061,9.806270147636209,0.0,0.0,0.0,0.0,0.0,0.0,0.0,0.0,0.0
2025/05/25 19:00:39.245123675,1748192438,419696735,mA1/imu,0.29164007571201045,-0.9565278731555493,-0.0006968045486450195,-9.262092092293146e-05,0.0,0.0,0.0,0.0,0.0,0.0,0.0,0.0,0.0,-0.000832269288377915,0.0009430402328684804,-0.0002927265834966328,0.0,0.0,0.0,0.0,0.0,0.0,0.0,0.0,0.0,0.00230098159320204,-0.08893853312706484,9.810688675928981,0.0,0.0,0.0,0.0,0.0,0.0,0.0,0.0,0.0
2025/05/25 19:00:39.254540361,1748192438,471449669,mA1/imu,0.2916597304357572,-0.9565218832295255,-0.0006930580532390053,-9.064059809304193e-05,0.0,0.0,0.0,0.0,0.0,0.0,0.0,0.0,0.0,-0.0015330587918980685,-0.001085874229008978,-0.0016448200822671475,0.0,0.0,0.0,0.0,0.0,0.0,0.0,0.0,0.0,0.10864069117565651,0.5068753107902123,9.807486131263795,0.0,0.0,0.0,0.0,0.0,0.0,0.0,0.0,0.0
2025/05/25 19:00:39.264494274,1748192438,522141693,mA1/imu,0.29170942995082183,-0.9565067011039734,-0.0007235063068853247,-0.000125537184398373,0.0,0.0,0.0,0.0,0.0,0.0,0.0,0.0,0.0,-0.0004919920730866917,-0.001604270564092405,-0.0020592398827971353,0.0,0.0,0.0,0.0,0.0,0.0,0.0,0.0,0.0,-0.003738929420782461,-0.4225147719608957,9.807554860990315,0.0,0.0,0.0,0.0,0.0,0.0,0.0,0.0,0.0
2025/05/25 19:00:39.972074194,1748192439,18569058,mA1/imu,0.2921684177882653,-0.956366252153829,-0.001095646275754203,8.335213789963472e-05,0.0,0.0,0.0,0.0,0.0,0.0,0.0,0.0,0.0,-0.0011295503612099038,0.0027781342346903035,-0.0012726439001138185,0.0,0.0,0.0,0.0,0.0,0.0,0.0,0.0,0.0,-0.0022370040252203483,-0.6634176996654453,9.810393886398003,0.0,0.0,0.0,0.0,0.0,0.0,0.0,0.0,0.0
2025/05/25 19:00:39.973894193,1748192439,69542069,mA1/imu,0.29219813339458056,-0.9563571738214627,-0.0010879172156077783,0.0001528302304399377,0.0,0.0,0.0,0.0,0.0,0.0,0.0,0.0,0.0,-0.0009592193588433695,0.002709670013350982,-0.001218397731872091,0.0,0.0,0.0,0.0,0.0,0.0,0.0,0.0,0.0,-0.00046425930119146095,-0.054121593470846864,9.811255415888784,0.0,0.0,0.0,0.0,0.0,0.0,0.0,0.0,0.0
2025/05/25 19:00:39.982109556,1748192439,119646728,mA1/imu,0.2922265990674546,-0.9563484814954202,-0.00107261035260374,0.00021504861039431373,0.0,0.0,0.0,0.0,0.0,0.0,0.0,0.0,0.0,0.00010317165845667657,0.0024524647172126223,-0.0011669813413996307,0.0,0.0,0.0,0.0,0.0,0.0,0.0,0.0,0.0,-0.00024367120413107402,0.6166253919520633,9.811942191458897,0.0,0.0,0.0,0.0,0.0,0.0,0.0,0.0,0.0
2025/05/25 19:00:39.994722452,1748192439,170759725,mA1/imu,0.292253765730233,-0.9563401722822473,-0.001066626976771487,0.00027129790256854913,0.0,0.0,0.0,0.0,0.0,0.0,0.0,0.0,0.0,-0.0008491741019622964,0.0020601836171640383,-0.00110276395599684,0.0,0.0,0.0,0.0,0.0,0.0,0.0,0.0,0.0,-0.002099061928806716,0.5207736197456364,9.81134049102359,0.0,0.0,0.0,0.0,0.0,0.0,0.0,0.0,0.0
2025/05/25 19:00:40.272098734,1748192439,322719494,mA1/imu,0.2923255276099718,-0.9563183218060014,-0.0009703165045786458,0.0003343225773772207,0.0,0.0,0.0,0.0,0.0,0.0,0.0,0.0,0.0,0.0018188469545346593,0.0002791131372323809,-0.0009228759108407045,0.0,0.0,0.0,0.0,0.0,0.0,0.0,0.0,0.0,0.0019317661881324338,-0.012710935851587678,9.811374870194143,0.0,0.0,0.0,0.0,0.0,0.0,0.0,0.0,0.0
2025/05/25 19:00:40.274530507,1748192439,374342370,mA1/imu,0.29234573772468386,-0.9563121842522316,-0.0009340969342517022,0.0003214776097684401,0.0,0.0,0.0,0.0,0.0,0.0,0.0,0.0,0.0,0.0013253733272876932,-8.84825884511437e-05,-0.0006429636596216852,0.0,0.0,0.0,0.0,0.0,0.0,0.0,0.0,0.0,-0.04948983954482698,-0.07551409678070048,9.81072271809441,0.0,0.0,0.0,0.0,0.0,0.0,0.0,0.0,0.0
2025/05/25 19:00:40.282885602,1748192439,414182322,mA1/imu,0.292353695951902,-0.9563097951698035,-0.0008937932740349556,0.0003053835855795658,0.0,0.0,0.0,0.0,0.0,0.0,0.0,0.0,0.0,0.001820270210677362,-0.000420129620854014,-0.00028423939344805017,0.0,0.0,0.0,0.0,0.0,0.0,0.0,0.0,0.0,0.0036855638859125918,-0.18548095140956028,9.810590676392826,0.0,0.0,0.0,0.0,0.0,0.0,0.0,0.0,0.0
2025/05/25 19:00:40.294951803,1748192439,465120282,mA1/imu,0.2923594800139346,-0.9563080770099126,-0.0008505371357379766,0.0002699595625592589,0.0,0.0,0.0,0.0,0.0,0.0,0.0,0.0,0.0,0.0016548679775014448,-0.0011218147862380524,-0.00021421806155742153,0.0,0.0,0.0,0.0,0.0,0.0,0.0,0.0,0.0,0.003075498690779236,0.40011968056519964,9.81043818293843,0.0,0.0,0.0,0.0,0.0,0.0,0.0,0.0,0.0
2025/05/25 19:00:40.305381365,1748192439,514956572,mA1/imu,0.29236358185329286,-0.9563068680252507,-0.0008136582867072022,0.00021939425958367498,0.0,0.0,0.0,0.0,0.0,0.0,0.0,0.0,0.0,0.001811359471818155,-0.001744787268892192,-0.0001445032156756148,0.0,0.0,0.0,0.0,0.0,0.0,0.0,0.0,0.0,0.002621625018839282,-0.16040311853699102,9.809514995606905,0.0,0.0,0.0,0.0,0.0,0.0,0.0,0.0,0.0
2025/05/25 19:00:40.319394262,1748192439,566100417,mA1/imu,0.2923660059507303,-0.9563061723605224,-0.0007744849764631276,0.0001531097823626849,0.0,0.0,0.0,0.0,0.0,0.0,0.0,0.0,0.0,0.002214341123995388,-0.002277306271633183,-7.506848527075111e-05,0.0,0.0,0.0,0.0,0.0,0.0,0.0,0.0,0.0,0.0022815582539884136,-0.02442070947951562,9.80813589834816,0.0,0.0,0.0,0.0,0.0,0.0,0.0,0.0,0.0
2025/05/25 19:00:41.269829839,1748192440,322194409,mA1/imu,0.29215730919013244,-0.9563698044578147,-0.0009487616497094209,-6.049325801743327e-05,0.0,0.0,0.0,0.0,0.0,0.0,0.0,0.0,0.0,-0.0022938689623417993,0.0033610865953371304,0.0018786995539287069,0.0,0.0,0.0,0.0,0.0,0.0,0.0,0.0,0.0,0.007265489701835912,-0.06361273860597676,9.811500203742952,0.0,0.0,0.0,0.0,0.0,0.0,0.0,0.0,0.0
2025/05/25 19:00:41.270566949,1748192440,374253245,mA1/imu,0.2921104744222165,-0.9563840943727855,-0.0009663272199002302,3.122944964321025e-05,0.0,0.0,0.0,0.0,0.0,0.0,0.0,0.0,0.0,-0.001336727143239919,0.0034452985780375612,0.002155977836759186,0.0,0.0,0.0,0.0,0.0,0.0,0.0,0.0,0.0,-0.03946119007934161,0.018854928862123446,9.810328944935057,0.0,0.0,0.0,0.0,0.0,0.0,0.0,0.0,0.0
2025/05/25 19:00:41.280997300,1748192440,413966787,mA1/imu,0.2920456115778575,-0.9564038786977225,-0.0009812328859073953,0.00013693827397047998,0.0,0.0,0.0,0.0,0.0,0.0,0.0,0.0,0.0,-0.0020580959303181903,0.003803275947570278,0.002879040713999556,0.0,0.0,0.0,0.0,0.0,0.0,0.0,0.0,0.0,0.012796853876427585,0.5730191306681127,9.811262508812888,0.0,0.0,0.0,0.0,0.0,0.0,0.0,0.0,0.0
2025/05/25 19:00:41.291158941,1748192440,465139189,mA1/imu,0.29197573163963575,-0.9564251748046546,-0.0010019760927260683,0.00023060202717112022,0.0,0.0,0.0,0.0,0.0,0.0,0.0,0.0,0.0,-0.002426798443798173,0.003001986491291783,0.002955103152142126,0.0,0.0,0.0,0.0,0.0,0.0,0.0,0.0,0.0,0.014383155321205498,0.2168064883712364,9.81117258721147,0.0,0.0,0.0,0.0,0.0,0.0,0.0,0.0,0.0
2025/05/25 19:00:41.303682848,1748192440,514917829,mA1/imu,0.29190411038702807,-0.9564469999977714,-0.0010182995514317597,0.000299333333148775,0.0,0.0,0.0,0.0,0.0,0.0,0.0,0.0,0.0,-0.0005452677742524308,0.0020277640095391837,0.003025444753688121,0.0,0.0,0.0,0.0,0.0,0.0,0.0,0.0,0.0,0.014239479367838453,-0.6140179798434096,9.810642201688458,0.0,0.0,0.0,0.0,0.0,0.0,0.0,0.0,0.0
2025/05/25 19:00:42.20496939,1748192441,72789205,mA1/imu,0.2909503274721165,-0.9567375713618409,-0.0009932299209042049,-0.0003741428053368069,0.0,0.0,0.0,0.0,0.0,0.0,0.0,0.0,0.0,0.0024012743257789673,-0.003413216426434608,0.004217849616089046,0.0,0.0,0.0,0.0,0.0,0.0,0.0,0.0,0.0,0.007631789443262467,-0.24455259028088566,9.809802285628152,0.0,0.0,0.0,0.0,0.0,0.0,0.0,0.0,0.0
2025/05/25 19:00:42.26670096,1748192441,123077891,mA1/imu,0.2908481924771012,-0.9567686182584705,-0.0009617092710978729,-0.00046385758429906424,0.0,0.0,0.0,0.0,0.0,0.0,0.0,0.0,0.0,0.0033518607647661097,-0.0028233870265961993,0.0042976948482291106,0.0,0.0,0.0,0.0,0.0,0.0,0.0,0.0,0.0,0.0073551706986398815,-0.5669185580983228,9.80904658007492,0.0,0.0,0.0,0.0,0.0,0.0,0.0,0.0,0.0
2025/05/25 19:00:42.222143653,1748192441,269028271,mA1/imu,0.29053033213279494,-0.9568651867968133,-0.0008785217719815276,-0.0006071298078923792,0.0,0.0,0.0,0.0,0.0,0.0,0.0,0.0,0.0,0.0016309449842760346,-0.0002780278547787845,0.00455945948175713,0.0,0.0,0.0,0.0,0.0,0.0,0.0,0.0,0.0,0.008983332449559834,-0.6323326339866457,9.810381679700132,0.0,0.0,0.0,0.0,0.0,0.0,0.0,0.0,0.0
2025/05/25 19:00:42.223125825,1748192441,319196187,mA1/imu,0.2904186383428222,-0.9568991199903333,-0.0008459145167958243,-0.0006108137664593815,0.0,0.0,0.0,0.0,0.0,0.0,0.0,0.0,0.0,0.0016723639938720565,0.0005809287876139995,0.004716009411254289,0.0,0.0,0.0,0.0,0.0,0.0,0.0,0.0,0.0,0.008819907624098771,0.02398008168393738,9.811443728060906,0.0,0.0,0.0,0.0,0.0,0.0,0.0,0.0,0.0
2025/05/25 19:00:42.234776096,1748192441,371115626,mA1/imu,0.29030376165141625,-0.9569340068547554,-0.0008305110399575452,-0.0005854462855099132,0.0,0.0,0.0,0.0,0.0,0.0,0.0,0.0,0.0,-0.0005856595347227394,0.0016909605624541336,0.0049897259458989525,0.0,0.0,0.0,0.0,0.0,0.0,0.0,0.0,0.0,-0.03371788928436718,0.5408675339637647,9.809463683822052,0.0,0.0,0.0,0.0,0.0,0.0,0.0,0.0,0.0
2025/05/25 19:00:42.246867259,1748192441,421046336,mA1/imu,0.2901716718373649,-0.9569741265664292,-0.0008066011296476481,-0.0005209032020455747,0.0,0.0,0.0,0.0,0.0,0.0,0.0,0.0,0.0,-0.0015520276370065836,0.0031519117286173304,0.0056829416726166485,0.0,0.0,0.0,0.0,0.0,0.0,0.0,0.0,0.0,0.012302268586091477,0.497844727244502,9.810497972074216,0.0,0.0,0.0,0.0,0.0,0.0,0.0,0.0,0.0
2025/05/25 19:00:42.975752725,1748192442,17934369,mA1/imu,0.2883933132331837,-0.9575113196653245,-0.0011649837941454862,0.00011139082001605869,0.0,0.0,0.0,0.0,0.0,0.0,0.0,0.0,0.0,-0.0007523995082608384,-0.0022725051583751483,0.006518322838156636,0.0,0.0,0.0,0.0,0.0,0.0,0.0,0.0,0.0,0.014150366230573022,0.2918693972330728,9.811330808442415,0.0,0.0,0.0,0.0,0.0,0.0,0.0,0.0,0.0
2025/05/25 19:00:42.987191321,1748192442,69925404,mA1/imu,0.2882362710653706,-0.9575585591148067,-0.0012060951280926566,5.69460060959775e-05,0.0,0.0,0.0,0.0,0.0,0.0,0.0,0.0,0.0,-0.00019419525512729194,-0.0027299401779533484,0.00659346863819256,0.0,0.0,0.0,0.0,0.0,0.0,0.0,0.0,0.0,0.008752336168470435,0.008867881045415762,9.809281108521178,0.0,0.0,0.0,0.0,0.0,0.0,0.0,0.0,0.0
2025/05/25 19:00:42.998176156,1748192442,119684546,mA1/imu,0.28807695675759226,-0.9576064654386849,-0.0012345959248448982,-1.0402662206726641e-05,0.0,0.0,0.0,0.0,0.0,0.0,0.0,0.0,0.0,0.0020189738340354664,-0.003043120404515873,0.006676942667415341,0.0,0.0,0.0,0.0,0.0,0.0,0.0,0.0,0.0,0.01224988601080389,-0.4997698447109905,9.807524057105242,0.0,0.0,0.0,0.0,0.0,0.0,0.0,0.0,0.0
2025/05/25 19:00:43.721955007,1748192442,771228900,mA1/imu,0.28630463994433536,-0.9581381790738575,-0.0007605925369179723,-0.0005517665902505584,0.0,0.0,0.0,0.0,0.0,0.0,0.0,0.0,0.0,0.0014761852401927711,0.0035846888752265405,0.004497308103969993,0.0,0.0,0.0,0.0,0.0,0.0,0.0,0.0,0.0,-0.007117952146057047,-0.003204151484070489,9.809677260190863,0.0,0.0,0.0,0.0,0.0,0.0,0.0,0.0,0.0
2025/05/25 19:00:43.726607452,1748192442,821164236,mA1/imu,0.2861943020673302,-0.9581712276716107,-0.0007168849935053535,-0.0004538748486329016,0.0,0.0,0.0,0.0,0.0,0.0,0.0,0.0,0.0,-0.0006341770748171043,0.004645247809878299,0.004669280322152382,0.0,0.0,0.0,0.0,0.0,0.0,0.0,0.0,0.0,-0.0032751648288804856,0.5208316500476757,9.810420421721052,0.0,0.0,0.0,0.0,0.0,0.0,0.0,0.0,0.0
2025/05/25 19:00:43.734983727,1748192442,873072906,mA1/imu,0.2860806827339762,-0.9582052374580454,-0.0006739616594463999,-0.00033414086031598536,0.0,0.0,0.0,0.0,0.0,0.0,0.0,0.0,0.0,0.00040298522735469173,0.005342447063760049,0.004809752475569976,0.0,0.0,0.0,0.0,0.0,0.0,0.0,0.0,0.0,-0.004396669518775794,-0.6270123898786317,9.810651836546144,0.0,0.0,0.0,0.0,0.0,0.0,0.0,0.0,0.0
2025/05/25 19:00:43.743532504,1748192442,922251774,mA1/imu,0.28596329444336316,-0.9582403374797194,-0.0006410157715365895,-0.00019737434611367618,0.0,0.0,0.0,0.0,0.0,0.0,0.0,0.0,0.0,-0.0002451856652051734,0.005732452869950842,0.004954336450975381,0.0,0.0,0.0,0.0,0.0,0.0,0.0,0.0,0.0,0.00016545701282842315,-0.0009353338618572973,9.811633395358886,0.0,0.0,0.0,0.0,0.0,0.0,0.0,0.0,0.0
2025/05/25 19:00:43.758082858,1748192442,974295503,mA1/imu,0.2858431774295977,-0.9582762053983059,-0.0006240402183017431,-5.1557553471039054e-05,0.0,0.0,0.0,0.0,0.0,0.0,0.0,0.0,0.0,-0.0009763306938281516,0.005769870810289024,0.005036735858933065,0.0,0.0,0.0,0.0,0.0,0.0,0.0,0.0,0.0,0.0004098881455691459,-0.013423203166523753,9.809146519639548,0.0,0.0,0.0,0.0,0.0,0.0,0.0,0.0,0.0
2025/05/25 19:00:43.769423595,1748192443,14259024,mA1/imu,0.285723191493641,-0.9583119860981757,-0.0006214138290209736,9.480565018444224e-05,0.0,0.0,0.0,0.0,0.0,0.0,0.0,0.0,0.0,-0.0017650442091449575,0.005498432650805126,0.0050286581355528,0.0,0.0,0.0,0.0,0.0,0.0,0.0,0.0,0.0,0.0013172185659197492,-0.025954628903102912,9.809398468188958,0.0,0.0,0.0,0.0,0.0,0.0,0.0,0.0,0.0
2025/05/25 19:00:44.715960233,1748192443,773531820,mA1/imu,0.28406778958214923,-0.9588033711974598,-0.0011885850807149697,-0.0004166146944957918,0.0,0.0,0.0,0.0,0.0,0.0,0.0,0.0,0.0,0.0023688376597272346,-0.0019660475661134797,0.003588412685569967,0.0,0.0,0.0,0.0,0.0,0.0,0.0,0.0,0.0,0.00535984331672454,-0.6559444428314932,9.80934284686218,0.0,0.0,0.0,0.0,0.0,0.0,0.0,0.0,0.0
2025/05/25 19:00:44.717964623,1748192443,814117889,mA1/imu,0.2839845916035735,-0.958828054308892,-0.00114144691355607,-0.00045945720119935316,0.0,0.0,0.0,0.0,0.0,0.0,0.0,0.0,0.0,0.002604294914531326,-0.00040172954804507414,0.00348254245081149,0.0,0.0,0.0,0.0,0.0,0.0,0.0,0.0,0.0,-0.021872707937804256,-0.0032666801406296894,9.81118004104762,0.0,0.0,0.0,0.0,0.0,0.0,0.0,0.0,0.0
2025/05/25 19:00:44.727534397,1748192443,865144922,mA1/imu,0.28390049655116123,-0.958853023169914,-0.0010849006742084306,-0.00045935438083873087,0.0,0.0,0.0,0.0,0.0,0.0,0.0,0.0,0.0,0.002132792391003036,0.0012319896639094948,0.0034662537527070506,0.0,0.0,0.0,0.0,0.0,0.0,0.0,0.0,0.0,0.0015176067297346767,-0.052943908912368665,9.81455919299429,0.0,0.0,0.0,0.0,0.0,0.0,0.0,0.0,0.0
2025/05/25 19:00:44.739321516,1748192443,915026765,mA1/imu,0.283819179520848,-0.9588772001570999,-0.0010019010379054272,-0.0004295920204910856,0.0,0.0,0.0,0.0,0.0,0.0,0.0,0.0,0.0,0.0031377493165951624,0.002745191737104403,0.003409455715210237,0.0,0.0,0.0,0.0,0.0,0.0,0.0,0.0,0.0,-0.021937406169390425,0.018603471441521302,9.808613714877122,0.0,0.0,0.0,0.0,0.0,0.0,0.0,0.0,0.0
2025/05/25 19:00:44.748929863,1748192443,966043304,mA1/imu,0.2837365582441831,-0.9589017628608522,-0.0009198746757526627,-0.00035850896236364386,0.0,0.0,0.0,0.0,0.0,0.0,0.0,0.0,0.0,0.0035178536857046385,0.004220950127319465,0.003476123587119601,0.0,0.0,0.0,0.0,0.0,0.0,0.0,0.0,0.0,-0.019955842134647975,0.0498858475870492,9.810561717811689,0.0,0.0,0.0,0.0,0.0,0.0,0.0,0.0,0.0
2025/05/25 19:00:44.749724675,1748192444,15819190,mA1/imu,0.2836571319463176,-0.958925368813857,-0.0008384601874979157,-0.00025597990418515414,0.0,0.0,0.0,0.0,0.0,0.0,0.0,0.0,0.0,0.001703492062341736,0.00524004710173595,0.0032269769152078707,0.0,0.0,0.0,0.0,0.0,0.0,0.0,0.0,0.0,-0.016445630892070788,-0.06209411949897282,9.810648165162211,0.0,0.0,0.0,0.0,0.0,0.0,0.0,0.0,0.0
2025/05/25 19:00:44.761945524,1748192444,66808996,mA1/imu,0.28357929258616915,-0.9589484914986143,-0.0007472359508812538,-0.00013079485366666516,0.0,0.0,0.0,0.0,0.0,0.0,0.0,0.0,0.0,0.0013917130388728313,0.006184547823935918,0.003267255172461844,0.0,0.0,0.0,0.0,0.0,0.0,0.0,0.0,0.0,-0.017341964806588065,-0.06022177270931106,9.810030518941186,0.0,0.0,0.0,0.0,0.0,0.0,0.0,0.0,0.0
2025/05/25 19:00:44.763313322,1748192444,116774744,mA1/imu,0.2835005024794216,-0.9589718572648298,-0.0006646977830025443,1.5646591355398344e-05,0.0,0.0,0.0,0.0,0.0,0.0,0.0,0.0,0.0,0.0008725257500383229,0.006751245216688329,0.003306512785931504,0.0,0.0,0.0,0.0,0.0,0.0,0.0,0.0,0.0,-0.01699636998567552,-0.1550939300916592,9.810059621515789,0.0,0.0,0.0,0.0,0.0,0.0,0.0,0.0,0.0
2025/05/25 19:00:45.717775556,1748192444,767080704,mA1/imu,0.28195342039178944,-0.9594274827702994,-0.0009699665522594329,0.0004829071389194777,0.0,0.0,0.0,0.0,0.0,0.0,0.0,0.0,0.0,-0.0004985932586563627,-0.008767268926709934,0.006056037650643995,0.0,0.0,0.0,0.0,0.0,0.0,0.0,0.0,0.0,-0.004774064085456565,-0.5316772379444495,9.80842386514303,0.0,0.0,0.0,0.0,0.0,0.0,0.0,0.0,0.0
2025/05/25 19:00:45.724680159,1748192444,817713793,mA1/imu,0.2818073833143194,-0.9594703356656035,-0.0010930914089160235,0.00028078184042426297,0.0,0.0,0.0,0.0,0.0,0.0,0.0,0.0,0.0,-0.0015584938838334418,-0.009353834582080613,0.006092152713168414,0.0,0.0,0.0,0.0,0.0,0.0,0.0,0.0,0.0,-0.004076647259989485,-0.00458379861606744,9.811192948824923,0.0,0.0,0.0,0.0,0.0,0.0,0.0,0.0,0.0
2025/05/25 19:00:45.735947959,1748192444,868940865,mA1/imu,0.28166009382973606,-0.9595134966917479,-0.001198581257812714,6.792030436913635e-05,0.0,0.0,0.0,0.0,0.0,0.0,0.0,0.0,0.0,-0.001450691884899752,-0.009229606767661729,0.006202511428689194,0.0,0.0,0.0,0.0,0.0,0.0,0.0,0.0,0.0,-0.025477074785808636,-0.02595707521027418,9.810387943094726,0.0,0.0,0.0,0.0,0.0,0.0,0.0,0.0,0.0
2025/05/25 19:00:46.573410694,1748192445,616288853,mA1/imu,0.279027959351616,-0.9602827014655545,-0.0005537826347087653,0.000473804688708675,0.0,0.0,0.0,0.0,0.0,0.0,0.0,0.0,0.0,0.0008298320948714645,0.005175491808645589,0.00903857928487329,0.0,0.0,0.0,0.0,0.0,0.0,0.0,0.0,0.0,0.019416227371400446,-0.5202612299545846,9.808685482374212,0.0,0.0,0.0,0.0,0.0,0.0,0.0,0.0,0.0
2025/05/25 19:00:46.579713188,1748192445,667270943,mA1/imu,0.27881089355285205,-0.9603457227174113,-0.0005102220047041997,0.0005640639496256616,0.0,0.0,0.0,0.0,0.0,0.0,0.0,0.0,0.0,0.0017678193097968285,0.0030952828688683635,0.00904494751237953,0.0,0.0,0.0,0.0,0.0,0.0,0.0,0.0,0.0,0.02095496698189351,-0.5578727332469263,9.807698197799855,0.0,0.0,0.0,0.0,0.0,0.0,0.0,0.0,0.0
2025/05/25 19:00:46.593549140,1748192445,717085935,mA1/imu,0.27857893503853,-0.9604130053611335,-0.0004900293500698651,0.0006292513250114468,0.0,0.0,0.0,0.0,0.0,0.0,0.0,0.0,0.0,0.00015800287825708213,0.002282695072554106,0.010003427554272498,0.0,0.0,0.0,0.0,0.0,0.0,0.0,0.0,0.0,0.010850696774388503,0.1253825625413289,9.808131974382816,0.0,0.0,0.0,0.0,0.0,0.0,0.0,0.0,0.0
2025/05/25 19:00:46.600920317,1748192445,768036329,mA1/imu,0.278337029422969,-0.960483111653822,-0.0005072563996682753,0.0006580051169751181,0.0,0.0,0.0,0.0,0.0,0.0,0.0,0.0,0.0,-0.0025764514960795906,6.958891738822337e-05,0.010182341339572208,0.0,0.0,0.0,0.0,0.0,0.0,0.0,0.0,0.0,0.010716364797746325,0.4769432116662088,9.809430605142563,0.0,0.0,0.0,0.0,0.0,0.0,0.0,0.0,0.0
2025/05/25 19:00:46.610306080,1748192445,817875816,mA1/imu,0.27809099233027346,-0.9605543785754882,-0.0005354475591597818,0.0006317278946575265,0.0,0.0,0.0,0.0,0.0,0.0,0.0,0.0,0.0,-0.0017605087801438606,-0.0022969626581634916,0.010246167110002348,0.0,0.0,0.0,0.0,0.0,0.0,0.0,0.0,0.0,0.023832695338275103,-0.05612996239724646,9.809357376928178,0.0,0.0,0.0,0.0,0.0,0.0,0.0,0.0,0.0
2025/05/25 19:00:46.622211103,1748192445,869429996,mA1/imu,0.2778448484368104,-0.9606256155965808,-0.000599597172934217,0.0005543825812119759,0.0,0.0,0.0,0.0,0.0,0.0,0.0,0.0,0.0,-0.001354283599985001,-0.004583146579923991,0.010246152333471094,0.0,0.0,0.0,0.0,0.0,0.0,0.0,0.0,0.0,0.022028472114568737,0.002301932013570091,9.809385953926869,0.0,0.0,0.0,0.0,0.0,0.0,0.0,0.0,0.0
2025/05/25 19:00:47.569200164,1748192446,623897233,mA1/imu,0.27421035391433296,-0.9616685655160916,-0.001361585881306548,-0.0006308631282792914,0.0,0.0,0.0,0.0,0.0,0.0,0.0,0.0,0.0,0.0024448141065856028,0.007517541058773305,0.009788748958799028,0.0,0.0,0.0,0.0,0.0,0.0,0.0,0.0,0.0,0.010288371428881764,0.019068955450674288,9.810233478207092,0.0,0.0,0.0,0.0,0.0,0.0,0.0,0.0,0.0
2025/05/25 19:00:47.570880380,1748192446,664844412,mA1/imu,0.2739756762942584,-0.9617356812733593,-0.0012677080160038614,-0.00044842073705037456,0.0,0.0,0.0,0.0,0.0,0.0,0.0,0.0,0.0,0.002811870296909006,0.0083185238491962,0.009772757021849822,0.0,0.0,0.0,0.0,0.0,0.0,0.0,0.0,0.0,0.009317901695636448,-0.6036080947277249,9.808233079006012,0.0,0.0,0.0,0.0,0.0,0.0,0.0,0.0,0.0
2025/05/25 19:00:47.583335130,1748192446,714721494,mA1/imu,0.27374055049903256,-0.9618028413482965,-0.0011574590524139827,-0.0002562720669153632,0.0,0.0,0.0,0.0,0.0,0.0,0.0,0.0,0.0,0.0029356951963525457,0.008668530685259595,0.009783704277834947,0.0,0.0,0.0,0.0,0.0,0.0,0.0,0.0,0.0,0.013864754235402718,-0.6065461190933382,9.809108748765961,0.0,0.0,0.0,0.0,0.0,0.0,0.0,0.0,0.0
2025/05/25 19:00:47.596102463,1748192446,765675769,mA1/imu,0.2735067174455727,-0.9618695154819863,-0.0010519344873480077,-6.428398741654278e-05,0.0,0.0,0.0,0.0,0.0,0.0,0.0,0.0,0.0,0.0015570342312688197,0.008192446038900299,0.009593618095081542,0.0,0.0,0.0,0.0,0.0,0.0,0.0,0.0,0.0,0.058182087652553637,-0.07812156065407143,9.808732472258312,0.0,0.0,0.0,0.0,0.0,0.0,0.0,0.0,0.0
2025/05/25 19:00:47.596166093,1748192446,815535518,mA1/imu,0.2732901557230364,-0.9619311770283154,-0.0009453293767385345,8.830723371918022e-05,0.0,0.0,0.0,0.0,0.0,0.0,0.0,0.0,0.0,0.0015610157341376166,0.006198575476593684,0.008613021929988923,0.0,0.0,0.0,0.0,0.0,0.0,0.0,0.0,0.0,0.05941439526795469,-0.07622212974360403,9.806284954668207,0.0,0.0,0.0,0.0,0.0,0.0,0.0,0.0,0.0
2025/05/25 19:00:47.605575735,1748192446,866490105,mA1/imu,0.27309092136301044,-0.9619878322476576,-0.0008489755393469808,0.00019625770933860798,0.0,0.0,0.0,0.0,0.0,0.0,0.0,0.0,0.0,0.001627037713691555,0.00458885179719899,0.00811043853693156,0.0,0.0,0.0,0.0,0.0,0.0,0.0,0.0,0.0,0.05850330958630182,0.44674351249274447,9.807367542427173,0.0,0.0,0.0,0.0,0.0,0.0,0.0,0.0,0.0
2025/05/25 19:00:47.617487258,1748192446,916351487,mA1/imu,0.2729047673375879,-0.9620407142419454,-0.0007638582217243195,0.0002619654209196307,0.0,0.0,0.0,0.0,0.0,0.0,0.0,0.0,0.0,0.0029329993660731453,0.002843142164334734,0.007585591523663052,0.0,0.0,0.0,0.0,0.0,0.0,0.0,0.0,0.0,0.025986556368155483,0.025071666496612625,9.811441613819866,0.0,0.0,0.0,0.0,0.0,0.0,0.0,0.0,0.0
2025/05/25 19:00:48.568145273,1748192447,618696956,mA1/imu,0.2706023069649113,-0.9626905705861736,-0.00107827491004904,-0.0003067457474535656,0.0,0.0,0.0,0.0,0.0,0.0,0.0,0.0,0.0,-0.002590772177314178,-0.00027884942246178974,0.007018236723297231,0.0,0.0,0.0,0.0,0.0,0.0,0.0,0.0,0.0,-0.0015396414228849003,-0.05980269498262559,9.811876084918781,0.0,0.0,0.0,0.0,0.0,0.0,0.0,0.0,0.0
2025/05/25 19:00:48.570609968,1748192447,669640498,mA1/imu,0.27043331945498333,-0.962737997655329,-0.0011333236463647877,-0.00028840367425303834,0.0,0.0,0.0,0.0,0.0,0.0,0.0,0.0,0.0,-0.0021479225011187407,0.00035752309331860214,0.007025030195808913,0.0,0.0,0.0,0.0,0.0,0.0,0.0,0.0,0.0,-0.0004597218135585241,-0.04087462243206909,9.810927917263442,0.0,0.0,0.0,0.0,0.0,0.0,0.0,0.0,0.0
2025/05/25 19:00:48.578963469,1748192447,719917751,mA1/imu,0.27026412071045075,-0.9627854688836243,-0.0011746480376111832,-0.00025722584379395314,0.0,0.0,0.0,0.0,0.0,0.0,0.0,0.0,0.0,-0.0037461768030232646,0.0009992636208335328,0.007034024599706496,0.0,0.0,0.0,0.0,0.0,0.0,0.0,0.0,0.0,-0.0001215265708634037,0.25735455367406,9.810804209849632,0.0,0.0,0.0,0.0,0.0,0.0,0.0,0.0,0.0
2025/05/25 19:00:48.589747393,1748192447,772233822,mA1/imu,0.27009506197625954,-0.962832897811421,-0.0011918383295949448,-0.00021888238469044014,0.0,0.0,0.0,0.0,0.0,0.0,0.0,0.0,0.0,-0.002115380622606585,0.0014250473523128792,0.006966075785409538,0.0,0.0,0.0,0.0,0.0,0.0,0.0,0.0,0.0,0.019605570873059093,0.5495412832719393,9.815282905925438,0.0,0.0,0.0,0.0,0.0,0.0,0.0,0.0,0.0
2025/05/25 19:00:48.602028025,1748192447,822112412,mA1/imu,0.26993254005358086,-0.9628784453531963,-0.001221853987641992,-0.0001742620625815665,0.0,0.0,0.0,0.0,0.0,0.0,0.0,0.0,0.0,-0.0013876168306885361,0.001308685344243858,0.006601947526627634,0.0,0.0,0.0,0.0,0.0,0.0,0.0,0.0,0.0,0.020866978196414317,-0.05129955340726454,9.805851392163095,0.0,0.0,0.0,0.0,0.0,0.0,0.0,0.0,0.0
2025/05/25 19:00:48.617084737,1748192447,873395875,mA1/imu,0.2697741616942487,-0.9629228302294597,-0.0012277583780333733,-0.00013158426010344157,0.0,0.0,0.0,0.0,0.0,0.0,0.0,0.0,0.0,-0.0017197337355753179,0.0017176069753857706,0.00655280004095039,0.0,0.0,0.0,0.0,0.0,0.0,0.0,0.0,0.0,0.0025571702784556,-0.10418468112416843,9.810857434593384,0.0,0.0,0.0,0.0,0.0,0.0,0.0,0.0,0.0
2025/05/25 19:00:49.575001485,1748192448,620796731,mA1/imu,0.26742599873050527,-0.9635780999786817,-0.0007612742439386706,-3.0099683485468158e-05,0.0,0.0,0.0,0.0,0.0,0.0,0.0,0.0,0.0,0.0005414055405506326,-0.002024337664110649,0.006474521416579864,0.0,0.0,0.0,0.0,0.0,0.0,0.0,0.0,0.0,0.0010128257098938635,0.5758277043201995,9.811446369631543,0.0,0.0,0.0,0.0,0.0,0.0,0.0,0.0,0.0
2025/05/25 19:00:49.577359038,1748192448,672360802,mA1/imu,0.26726994102139545,-0.9636213880286395,-0.000769793375020818,-8.110695109785938e-05,0.0,0.0,0.0,0.0,0.0,0.0,0.0,0.0,0.0,-0.0004726569321797555,-0.0020600311539700736,0.006489129496787661,0.0,0.0,0.0,0.0,0.0,0.0,0.0,0.0,0.0,-0.002917884648414951,-0.09273398589767257,9.811416351457973,0.0,0.0,0.0,0.0,0.0,0.0,0.0,0.0,0.0
2025/05/25 19:00:49.716212374,1748192448,773325998,mA1/imu,0.266953405336376,-0.9637091043160567,-0.0007817771699830737,-0.00017453398808568116,0.0,0.0,0.0,0.0,0.0,0.0,0.0,0.0,0.0,0.0008231597011251385,-0.0014839146774976986,0.006739021392763189,0.0,0.0,0.0,0.0,0.0,0.0,0.0,0.0,0.0,-0.018417500805056417,0.05382282115014349,9.809745296089654,0.0,0.0,0.0,0.0,0.0,0.0,0.0,0.0,0.0
2025/05/25 19:00:49.728965381,1748192448,823269291,mA1/imu,0.26678918353219727,-0.9637545534844628,-0.0008076313461579049,-0.00019979938988275316,0.0,0.0,0.0,0.0,0.0,0.0,0.0,0.0,0.0,8.668339808384296e-05,-0.0011877229725255273,0.006817787305405111,0.0,0.0,0.0,0.0,0.0,0.0,0.0,0.0,0.0,0.0016925370763811853,0.024983166054381844,9.810972089974237,0.0,0.0,0.0,0.0,0.0,0.0,0.0,0.0,0.0
2025/05/25 19:00:49.740045926,1748192448,864901153,mA1/imu,0.26662478154648533,-0.9638000180814105,-0.0008386193686497445,-0.00021846994416770883,0.0,0.0,0.0,0.0,0.0,0.0,0.0,0.0,0.0,-0.000263850038649479,-0.0009663256312540862,0.006827540090039141,0.0,0.0,0.0,0.0,0.0,0.0,0.0,0.0,0.0,0.0016437857955045147,0.02553787629268224,9.811589387151955,0.0,0.0,0.0,0.0,0.0,0.0,0.0,0.0,0.0
2025/05/25 19:00:50.22792896,1748192449,67398001,mA1/imu,0.2659507182265626,-0.9639860748720025,-0.0010142158061959958,-0.0001851862417388014,0.0,0.0,0.0,0.0,0.0,0.0,0.0,0.0,0.0,-0.003357018727231977,0.0005890761858523623,0.0071793858793768655,0.0,0.0,0.0,0.0,0.0,0.0,0.0,0.0,0.0,0.004608643125245993,0.3983968670055206,9.81025139776099,0.0,0.0,0.0,0.0,0.0,0.0,0.0,0.0,0.0
2025/05/25 19:00:50.27317520,1748192449,117173530,mA1/imu,0.2657775578272795,-0.9640337935202614,-0.0010536947007767077,-0.00015631307882061458,0.0,0.0,0.0,0.0,0.0,0.0,0.0,0.0,0.0,-0.0018677460809848408,0.0007492717524335853,0.007191158455926867,0.0,0.0,0.0,0.0,0.0,0.0,0.0,0.0,0.0,0.004224058817692344,-0.026335021685759068,9.811327653864094,0.0,0.0,0.0,0.0,0.0,0.0,0.0,0.0,0.0
2025/05/25 19:00:50.34769637,1748192449,168306969,mA1/imu,0.265604141280776,-0.9640815420649091,-0.001097866688044784,-0.0001227720794715101,0.0,0.0,0.0,0.0,0.0,0.0,0.0,0.0,0.0,-0.002742230453405003,0.0008543603291406865,0.0072015339271993,0.0,0.0,0.0,0.0,0.0,0.0,0.0,0.0,0.0,0.0051001406481125545,0.2847920312737153,9.812875659725709,0.0,0.0,0.0,0.0,0.0,0.0,0.0,0.0,0.0
2025/05/25 19:00:50.46192185,1748192449,218234399,mA1/imu,0.26543043585013204,-0.9641293474116597,-0.0011300137759909677,-9.08451554427015e-05,0.0,0.0,0.0,0.0,0.0,0.0,0.0,0.0,0.0,-0.001644354846960476,0.0009048974788220127,0.0072118213976263236,0.0,0.0,0.0,0.0,0.0,0.0,0.0,0.0,0.0,0.004830634743463843,0.2926041606152554,9.808930143927666,0.0,0.0,0.0,0.0,0.0,0.0,0.0,0.0,0.0
2025/05/25 19:00:50.54693871,1748192449,269221337,mA1/imu,0.2652574754392647,-0.9641769142884044,-0.0011602486105910983,-5.916113963558235e-05,0.0,0.0,0.0,0.0,0.0,0.0,0.0,0.0,0.0,-0.0008034363236222098,0.0009085326221791885,0.007114293408952282,0.0,0.0,0.0,0.0,0.0,0.0,0.0,0.0,0.0,0.0012852585175524055,0.3987706742928482,9.80842965126383,0.0,0.0,0.0,0.0,0.0,0.0,0.0,0.0,0.0
2025/05/25 19:00:50.66602967,1748192449,320039548,mA1/imu,0.26508695324608894,-0.9642237783182067,-0.0011881948559407931,-2.7156072740440755e-05,0.0,0.0,0.0,0.0,0.0,0.0,0.0,0.0,0.0,-0.0007576178685978292,0.000906002768098779,0.007075670255867042,0.0,0.0,0.0,0.0,0.0,0.0,0.0,0.0,0.0,0.0050235526829027965,0.31109015158724684,9.810668270727579,0.0,0.0,0.0,0.0,0.0,0.0,0.0,0.0,0.0
2025/05/25 19:00:51.22715063,1748192450,74232946,mA1/imu,0.26240967895992534,-0.9649562137591325,-0.0008014527964658864,-0.00015358777046286148,0.0,0.0,0.0,0.0,0.0,0.0,0.0,0.0,0.0,0.002219163196883294,0.0002554123148314991,0.00864755950268066,0.0,0.0,0.0,0.0,0.0,0.0,0.0,0.0,0.0,0.011081118278599037,-0.5834794207505298,9.80967311662972,0.0,0.0,0.0,0.0,0.0,0.0,0.0,0.0,0.0
2025/05/25 19:00:51.25762013,1748192450,114206800,mA1/imu,0.26220105515885755,-0.9650129379487504,-0.0007821746043676525,-0.00015642247585203342,0.0,0.0,0.0,0.0,0.0,0.0,0.0,0.0,0.0,8.531978891122782e-05,-3.4295072698754944e-05,0.008647521262298381,0.0,0.0,0.0,0.0,0.0,0.0,0.0,0.0,0.0,0.011606215424397312,-0.07142794515355884,9.80832984527292,0.0,0.0,0.0,0.0,0.0,0.0,0.0,0.0,0.0
2025/05/25 19:00:51.35881391,1748192450,165176382,mA1/imu,0.26199233401158467,-0.965069637807629,-0.0007637835100808056,-0.00016654057743867827,0.0,0.0,0.0,0.0,0.0,0.0,0.0,0.0,0.0,9.721856970931221e-05,-0.00030128638756240654,0.008652120316476766,0.0,0.0,0.0,0.0,0.0,0.0,0.0,0.0,0.0,0.01106044850965767,0.2868272195085548,9.809439659151993,0.0,0.0,0.0,0.0,0.0,0.0,0.0,0.0,0.0
2025/05/25 19:00:51.47405066,1748192450,219455490,mA1/imu,0.2617835598293382,-0.9651262820925612,-0.000772221896456539,-0.00017632530172958082,0.0,0.0,0.0,0.0,0.0,0.0,0.0,0.0,0.0,-0.00023484672162374972,-0.0005762247461751978,0.008653553929543964,0.0,0.0,0.0,0.0,0.0,0.0,0.0,0.0,0.0,0.011305360078406042,0.5987870448683574,9.811528882148428,0.0,0.0,0.0,0.0,0.0,0.0,0.0,0.0,0.0
2025/05/25 19:00:51.869495958,1748192450,920878638,mA1/imu,0.2588533851836881,-0.9659157569580504,-0.0012738455669436253,-0.000229687990717331,0.0,0.0,0.0,0.0,0.0,0.0,0.0,0.0,0.0,0.0009329379166576141,0.0001069881832282647,0.008419995384353259,0.0,0.0,0.0,0.0,0.0,0.0,0.0,0.0,0.0,0.007188642445309357,0.02328341095804701,9.809739150504777,0.0,0.0,0.0,0.0,0.0,0.0,0.0,0.0,0.0
2025/05/25 19:00:51.873907804,1748192450,971815927,mA1/imu,0.2586497993962078,-0.9659703077024105,-0.001263006857051881,-0.00022521831815941007,0.0,0.0,0.0,0.0,0.0,0.0,0.0,0.0,0.0,-0.0001518146326792494,0.0003853457205848771,0.00841919423895882,0.0,0.0,0.0,0.0,0.0,0.0,0.0,0.0,0.0,0.007061431323610052,0.5427029255317078,9.811480232584374,0.0,0.0,0.0,0.0,0.0,0.0,0.0,0.0,0.0
2025/05/25 19:00:51.882630246,1748192451,21633245,mA1/imu,0.25844779457714895,-0.9660244044276206,-0.0012411328107493676,-0.00021706638336219542,0.0,0.0,0.0,0.0,0.0,0.0,0.0,0.0,0.0,0.0014520426906115106,0.0006247313531733116,0.008358390051724817,0.0,0.0,0.0,0.0,0.0,0.0,0.0,0.0,0.0,0.005770130006724774,-0.6236277331657613,9.809489865443176,0.0,0.0,0.0,0.0,0.0,0.0,0.0,0.0,0.0
2025/05/25 19:00:51.894086809,1748192451,72671268,mA1/imu,0.2582455540857443,-0.966078534066077,-0.0012071658530749831,-0.00020630630037082458,0.0,0.0,0.0,0.0,0.0,0.0,0.0,0.0,0.0,0.001309041938740872,0.0008323059805007779,0.008387371816777315,0.0,0.0,0.0,0.0,0.0,0.0,0.0,0.0,0.0,0.0067349207061672325,-0.03110313497638978,9.809791606432155,0.0,0.0,0.0,0.0,0.0,0.0,0.0,0.0,0.0
2025/05/25 19:00:51.904882693,1748192451,122826318,mA1/imu,0.25804249420517467,-0.9661328486912321,-0.0011629101165152558,-0.00019366000679355103,0.0,0.0,0.0,0.0,0.0,0.0,0.0,0.0,0.0,0.00260375446216249,0.0009999272743166732,0.008421630711869783,0.0,0.0,0.0,0.0,0.0,0.0,0.0,0.0,0.0,0.006206483791799741,-0.5881823448373621,9.809050090279882,0.0,0.0,0.0,0.0,0.0,0.0,0.0,0.0,0.0
2025/05/25 19:00:51.917272881,1748192451,173918674,mA1/imu,0.25783860598978103,-0.9661873364062037,-0.0011192830390580855,-0.00017729921063266068,0.0,0.0,0.0,0.0,0.0,0.0,0.0,0.0,0.0,0.0014297802706672502,0.0011012139553231457,0.008456871428184019,0.0,0.0,0.0,0.0,0.0,0.0,0.0,0.0,0.0,0.007461624953323618,-0.1074795898248217,9.810597696074915,0.0,0.0,0.0,0.0,0.0,0.0,0.0,0.0,0.0
2025/05/25 19:00:52.871994898,1748192451,920014053,mA1/imu,0.2546988307426379,-0.9670199354078657,-0.0009468499334495553,-0.00023155410557685623,0.0,0.0,0.0,0.0,0.0,0.0,0.0,0.0,0.0,-0.0014438955698057156,-0.001167020955198485,0.008646469091578459,0.0,0.0,0.0,0.0,0.0,0.0,0.0,0.0,0.0,0.0049901478743642185,0.1014440264428278,9.809560728476425,0.0,0.0,0.0,0.0,0.0,0.0,0.0,0.0,0.0
2025/05/25 19:00:52.875377988,1748192451,973746711,mA1/imu,0.2544905807647341,-0.9670747134747618,-0.0009904169851488976,-0.00024886528674817926,0.0,0.0,0.0,0.0,0.0,0.0,0.0,0.0,0.0,-0.0013993506768651739,-0.0013063326355697786,0.008436402178316363,0.0,0.0,0.0,0.0,0.0,0.0,0.0,0.0,0.0,0.060001000653500794,0.09866452274692607,9.813233315167034,0.0,0.0,0.0,0.0,0.0,0.0,0.0,0.0,0.0
2025/05/25 19:00:52.884130553,1748192452,15874149,mA1/imu,0.2542993710552546,-0.9671249407800749,-0.0010475867340219987,-0.00028524388402541105,0.0,0.0,0.0,0.0,0.0,0.0,0.0,0.0,0.0,-0.0014632596702511568,-0.00207175677421165,0.007788648542975189,0.0,0.0,0.0,0.0,0.0,0.0,0.0,0.0,0.0,0.0010851506840470655,-0.46249372642513015,9.809156557264961,0.0,0.0,0.0,0.0,0.0,0.0,0.0,0.0,0.0
2025/05/25 19:00:52.894124322,1748192452,65045921,mA1/imu,0.25411040141883356,-0.967174553821406,-0.0010879524634660042,-0.0003204536794958744,0.0,0.0,0.0,0.0,0.0,0.0,0.0,0.0,0.0,-0.0006188055350124321,-0.0015711224500762361,0.007832811350638067,0.0,0.0,0.0,0.0,0.0,0.0,0.0,0.0,0.0,0.0009033514023129696,0.03580518542807573,9.80987930988192,0.0,0.0,0.0,0.0,0.0,0.0,0.0,0.0,0.0
2025/05/25 19:00:52.903654731,1748192452,114889077,mA1/imu,0.253920229992053,-0.9672244383739361,-0.0011344956120084907,-0.0003399010345631568,0.0,0.0,0.0,0.0,0.0,0.0,0.0,0.0,0.0,-0.00032809076316769854,-0.0010067454868712628,0.007884885294985891,0.0,0.0,0.0,0.0,0.0,0.0,0.0,0.0,0.0,0.0016361388469471553,0.0441416468186868,9.809532850378973,0.0,0.0,0.0,0.0,0.0,0.0,0.0,0.0,0.0
2025/05/25 19:00:52.915648632,1748192452,166385713,mA1/imu,0.2537287672719628,-0.9672746337838345,-0.0011729842016481701,-0.00034583964689774524,0.0,0.0,0.0,0.0,0.0,0.0,0.0,0.0,0.0,-0.0017459401040598292,-0.00038378943348562017,0.007940517567263087,0.0,0.0,0.0,0.0,0.0,0.0,0.0,0.0,0.0,0.0017116390246862522,0.10118129389111966,9.809863841863585,0.0,0.0,0.0,0.0,0.0,0.0,0.0,0.0,0.0
2025/05/25 19:00:53.868907824,1748192452,915420048,mA1/imu,0.25074146525643254,-0.9680537266262629,-0.0008365072201104689,1.4890692539051864e-05,0.0,0.0,0.0,0.0,0.0,0.0,0.0,0.0,0.0,0.00024878026734880785,-0.0014218526086162264,0.008209479504673697,0.0,0.0,0.0,0.0,0.0,0.0,0.0,0.0,0.0,0.020556919012595227,-0.10889321991393526,9.809621936995342,0.0,0.0,0.0,0.0,0.0,0.0,0.0,0.0,0.0
2025/05/25 19:00:53.874602284,1748192452,966138058,mA1/imu,0.25054835604296294,-0.9681037495360383,-0.00080586390918274,-4.474139211380288e-05,0.0,0.0,0.0,0.0,0.0,0.0,0.0,0.0,0.0,0.0016333639579902588,-0.0024741589012359988,0.007724722925497187,0.0,0.0,0.0,0.0,0.0,0.0,0.0,0.0,0.0,0.052136779603104005,-0.007479077888890302,9.809244870358418,0.0,0.0,0.0,0.0,0.0,0.0,0.0,0.0,0.0
2025/05/25 19:00:53.886906924,1748192453,16234489,mA1/imu,0.25037410757003575,-0.9681488237052365,-0.0008027769429209393,-0.00013025304226932299,0.0,0.0,0.0,0.0,0.0,0.0,0.0,0.0,0.0,-9.317414095087243e-05,-0.003443222269773776,0.007077234492535954,0.0,0.0,0.0,0.0,0.0,0.0,0.0,0.0,0.0,-0.003113191873037789,0.5383650568754722,9.808770120518327,0.0,0.0,0.0,0.0,0.0,0.0,0.0,0.0,0.0
2025/05/25 19:00:53.898058809,1748192453,67260739,mA1/imu,0.25020218629318747,-0.9681932535112235,-0.00080195561743496,-0.00021609407305117991,0.0,0.0,0.0,0.0,0.0,0.0,0.0,0.0,0.0,0.0005767980783491046,-0.0032695020030833106,0.00706333221325937,0.0,0.0,0.0,0.0,0.0,0.0,0.0,0.0,0.0,0.014438096383314183,0.6005465581417008,9.81004944054706,0.0,0.0,0.0,0.0,0.0,0.0,0.0,0.0,0.0
2025/05/25 19:00:53.908715786,1748192453,117094722,mA1/imu,0.25003268002193074,-0.9682370120642704,-0.0008129135169348608,-0.0002942133892920863,0.0,0.0,0.0,0.0,0.0,0.0,0.0,0.0,0.0,-0.0006819642002636162,-0.0029354876035307836,0.00701731534857782,0.0,0.0,0.0,0.0,0.0,0.0,0.0,0.0,0.0,-0.005311521071320404,0.5340328120799273,9.809759956032188,0.0,0.0,0.0,0.0,0.0,0.0,0.0,0.0,0.0
2025/05/25 19:00:54.868132859,1748192453,917802120,mA1/imu,0.24732791810546745,-0.9689312210512225,-0.0010387059213541956,0.00033299821489009946,0.0,0.0,0.0,0.0,0.0,0.0,0.0,0.0,0.0,-2.9297960782824262e-05,0.00035412537129355954,0.007184340471589822,0.0,0.0,0.0,0.0,0.0,0.0,0.0,0.0,0.0,-0.0038841191176752633,-0.09186417681425599,9.811250860064638,0.0,0.0,0.0,0.0,0.0,0.0,0.0,0.0,0.0
2025/05/25 19:00:54.872096941,1748192453,969375577,mA1/imu,0.247152433711137,-0.9689760084027923,-0.001030108116885217,0.0003294354583366525,0.0,0.0,0.0,0.0,0.0,0.0,0.0,0.0,0.0,0.0004924009972305771,-0.00042261512578905803,0.00723349491651997,0.0,0.0,0.0,0.0,0.0,0.0,0.0,0.0,0.0,0.016524172850599123,0.03337164752498464,9.808663851086294,0.0,0.0,0.0,0.0,0.0,0.0,0.0,0.0,0.0
2025/05/25 19:00:54.879198600,1748192454,19692792,mA1/imu,0.24698096679667333,-0.9690197353812722,-0.0010318492423860063,0.0002996146370294172,0.0,0.0,0.0,0.0,0.0,0.0,0.0,0.0,0.0,-0.00018198096916767297,-0.0016515197265804535,0.006974564114844304,0.0,0.0,0.0,0.0,0.0,0.0,0.0,0.0,0.0,0.013478818419326504,-0.08067471617086303,9.808749629401932,0.0,0.0,0.0,0.0,0.0,0.0,0.0,0.0,0.0
2025/05/25 19:00:55.119088093,1748192454,171353851,mA1/imu,0.24646599377609818,-0.9691509317802958,-0.0009874212158538533,0.00010168916995783128,0.0,0.0,0.0,0.0,0.0,0.0,0.0,0.0,0.0,0.0017608954539003376,-0.0027058145236148433,0.0072914311392175395,0.0,0.0,0.0,0.0,0.0,0.0,0.0,0.0,0.0,-0.007654821461578922,0.0006097086978207808,9.808747565573976,0.0,0.0,0.0,0.0,0.0,0.0,0.0,0.0,0.0
2025/05/25 19:00:55.120764987,1748192454,221242343,mA1/imu,0.2462872003871763,-0.9691964017428479,-0.0009741577994523477,2.812018093218248e-05,0.0,0.0,0.0,0.0,0.0,0.0,0.0,0.0,0.0,0.00031515330181018766,-0.00271971145218217,0.007432471162129856,0.0,0.0,0.0,0.0,0.0,0.0,0.0,0.0,0.0,-0.007071021656185838,0.5212797553415709,9.809374676815759,0.0,0.0,0.0,0.0,0.0,0.0,0.0,0.0,0.0
2025/05/25 19:00:55.128603759,1748192454,272328204,mA1/imu,0.24610588716009207,-0.9692424803761511,-0.000951007825585536,-4.60819490167296e-05,0.0,0.0,0.0,0.0,0.0,0.0,0.0,0.0,0.0,0.0018891920295777188,-0.0025860781071737923,0.007478772713611342,0.0,0.0,0.0,0.0,0.0,0.0,0.0,0.0,0.0,-0.008646418657558557,-0.4485219634008157,9.810456066200398,0.0,0.0,0.0,0.0,0.0,0.0,0.0,0.0,0.0
2025/05/25 19:00:55.139106403,1748192454,316535073,mA1/imu,0.24592355096149557,-0.9692887787797362,-0.0009258438743995998,-0.00011500998477966787,0.0,0.0,0.0,0.0,0.0,0.0,0.0,0.0,0.0,0.002030851491183914,-0.0023133798702038577,0.007573238858532768,0.0,0.0,0.0,0.0,0.0,0.0,0.0,0.0,0.0,-0.007934663616745217,0.008407091442071066,9.810239462232651,0.0,0.0,0.0,0.0,0.0,0.0,0.0,0.0,0.0
2025/05/25 19:00:55.151305032,1748192454,368027829,mA1/imu,0.24573819405430797,-0.9693358061386594,-0.0008966885235196127,-0.0001756989865075562,0.0,0.0,0.0,0.0,0.0,0.0,0.0,0.0,0.0,0.0016695094122234147,-0.0018946059085542875,0.007695575104051861,0.0,0.0,0.0,0.0,0.0,0.0,0.0,0.0,0.0,-0.008375401106992527,0.6221263463322096,9.810415563161046,0.0,0.0,0.0,0.0,0.0,0.0,0.0,0.0,0.0
2025/05/25 19:00:55.160259847,1748192454,417734305,mA1/imu,0.24554992714390386,-0.9693835164648495,-0.0008848063462818885,-0.00022000817245125832,0.0,0.0,0.0,0.0,0.0,0.0,0.0,0.0,0.0,0.0002948895770831349,-0.001409850319475318,0.007814258989151808,0.0,0.0,0.0,0.0,0.0,0.0,0.0,0.0,0.0,-0.007536031662879561,0.5061398973953966,9.8093524202658,0.0,0.0,0.0,0.0,0.0,0.0,0.0,0.0,0.0
2025/05/25 19:00:56.121466681,1748192455,169716234,mA1/imu,0.24234107784714323,-0.9701905596410851,-0.001035214397099769,9.111725983632535e-05,0.0,0.0,0.0,0.0,0.0,0.0,0.0,0.0,0.0,-0.002173446028346618,-0.0010974307770140867,0.009647559182384673,0.0,0.0,0.0,0.0,0.0,0.0,0.0,0.0,0.0,0.00860827546299119,0.5460421889051483,9.81028590956272,0.0,0.0,0.0,0.0,0.0,0.0,0.0,0.0,0.0
2025/05/25 19:00:56.126578891,1748192455,220163854,mA1/imu,0.24210701304852575,-0.9702489541290371,-0.0010757425589831575,6.342063783521326e-05,0.0,0.0,0.0,0.0,0.0,0.0,0.0,0.0,0.0,-0.001790999473715456,-0.0017134783795002841,0.009648382318032705,0.0,0.0,0.0,0.0,0.0,0.0,0.0,0.0,0.0,0.007685838736540237,-0.07031925513906365,9.809258284150049,0.0,0.0,0.0,0.0,0.0,0.0,0.0,0.0,0.0
