time,header_stamp_secs,header_stamp_nsecs,header_frame_id,orientation_x,orientation_y,orientation_z,orientation_w,orientation_covariance_0,orientation_covariance_1,orientation_covariance_2,orientation_covariance_3,orientation_covariance_4,orientation_covariance_5,orientation_covariance_6,orientation_covariance_7,orientation_covariance_8,angular_velocity_x,angular_velocity_y,angular_velocity_z,angular_velocity_covariance_0,angular_velocity_covariance_1,angular_velocity_covariance_2,angular_velocity_covariance_3,angular_velocity_covariance_4,angular_velocity_covariance_5,angular_velocity_covariance_6,angular_velocity_covariance_7,angular_velocity_covariance_8,linear_acceleration_x,linear_acceleration_y,linear_acceleration_z,linear_acceleration_covariance_0,linear_acceleration_covariance_1,linear_acceleration_covariance_2,linear_acceleration_covariance_3,linear_acceleration_covariance_4,linear_acceleration_covariance_5,linear_acceleration_covariance_6,linear_acceleration_covariance_7,linear_acceleration_covariance_8
2025/04/09 09:59:47.403630582,1744185587,401219834,mA1/imu,0.705493464425513,0.7087159106427685,0.0003247885204590808,0.0007900424645743033,0.0,0.0,0.0,0.0,0.0,0.0,0.0,0.0,0.0,0.0008136438355433607,0.0004452193013767183,0.0004888609630977189,0.0,0.0,0.0,0.0,0.0,0.0,0.0,0.0,0.0,0.008211773858209911,-0.5855902315390399,9.80859138112588,0.0,0.0,0.0,0.0,0.0,0.0,0.0,0.0,0.0
2025/04/09 09:59:47.450514936,1744185587,449739554,mA1/imu,0.7055021520224067,0.70870726874847,0.00032943050005984246,0.0007824259595745099,0.0,0.0,0.0,0.0,0.0,0.0,0.0,0.0,0.0,0.000659354605476326,0.00027385930491560296,0.0004913498190297602,0.0,0.0,0.0,0.0,0.0,0.0,0.0,0.0,0.0,0.008655992449325377,0.03185586485948225,9.809800538312976,0.0,0.0,0.0,0.0,0.0,0.0,0.0,0.0,0.0
2025/04/09 09:59:47.501430826,1744185587,500619825,mA1/imu,0.705510878887838,0.7086985763372217,0.0003369028700016853,0.0007836867753092922,0.0,0.0,0.0,0.0,0.0,0.0,0.0,0.0,0.0,-0.0009463798770256677,0.00010422801748614696,0.0004938562854296621,0.0,0.0,0.0,0.0,0.0,0.0,0.0,0.0,0.0,0.008343100954272726,0.5540780674535778,9.81128240513299,0.0,0.0,0.0,0.0,0.0,0.0,0.0,0.0,0.0
2025/04/09 09:59:47.551477293,1744185587,550453389,mA1/imu,0.7055196499607238,0.7086898382381029,0.00034089150483664055,0.0007877120866524384,0.0,0.0,0.0,0.0,0.0,0.0,0.0,0.0,0.0,-0.0008083088795197336,-6.744646468288804e-05,0.0004963042929607695,0.0,0.0,0.0,0.0,0.0,0.0,0.0,0.0,0.0,0.007776200861465851,-0.0629503867633234,9.810438898110352,0.0,0.0,0.0,0.0,0.0,0.0,0.0,0.0,0.0
2025/04/09 09:59:47.602024685,1744185587,601370970,mA1/imu,0.7055284515155061,0.7086810764821933,0.0003363116743269985,0.0007891974593127309,0.0,0.0,0.0,0.0,0.0,0.0,0.0,0.0,0.0,0.000781608917761235,-0.0002344374595626383,0.0004965441344178883,0.0,0.0,0.0,0.0,0.0,0.0,0.0,0.0,0.0,0.007619739233544517,-0.5853961260854073,9.808860266208468,0.0,0.0,0.0,0.0,0.0,0.0,0.0,0.0,0.0
2025/04/09 09:59:47.652387337,1744185587,651198552,mA1/imu,0.705537250373472,0.7086723146839372,0.0003295750311798495,0.0007937986207252897,0.0,0.0,0.0,0.0,0.0,0.0,0.0,0.0,0.0,0.0006438030471050272,-0.0003804216053303464,0.000496312511340913,0.0,0.0,0.0,0.0,0.0,0.0,0.0,0.0,0.0,0.008037412600470483,0.03203325702258887,9.810049860948714,0.0,0.0,0.0,0.0,0.0,0.0,0.0,0.0,0.0
2025/04/09 09:59:47.703048109,1744185587,702159673,mA1/imu,0.7055457836122636,0.7086638071802132,0.0003276610062962246,0.0008051447495317998,0.0,0.0,0.0,0.0,0.0,0.0,0.0,0.0,0.0,-0.0009738930042342453,-0.0003374247076421459,0.00045956341550047595,0.0,0.0,0.0,0.0,0.0,0.0,0.0,0.0,0.0,0.0008343573014385295,0.5497931421403268,9.811590745178787,0.0,0.0,0.0,0.0,0.0,0.0,0.0,0.0,0.0
2025/04/09 09:59:47.756477934,1744185587,752475239,mA1/imu,0.7055537168387015,0.7086558980248616,0.00032679287017365005,0.0008148963678940087,0.0,0.0,0.0,0.0,0.0,0.0,0.0,0.0,0.0,-0.0008267730599142484,-0.0002866904377403718,0.00044905673371898426,0.0,0.0,0.0,0.0,0.0,0.0,0.0,0.0,0.0,0.00371677057825103,-0.06286019437109323,9.81057612813889,0.0,0.0,0.0,0.0,0.0,0.0,0.0,0.0,0.0
2025/04/09 09:59:47.804123968,1744185587,803456608,mA1/imu,0.7055616999641857,0.7086479485103009,0.00032047125933241623,0.0008184827198704972,0.0,0.0,0.0,0.0,0.0,0.0,0.0,0.0,0.0,0.0007772864514026444,-0.0002733300245096038,0.0004513422330470438,0.0,0.0,0.0,0.0,0.0,0.0,0.0,0.0,0.0,0.004495803361137932,-0.5854937024206411,9.808939457809212,0.0,0.0,0.0,0.0,0.0,0.0,0.0,0.0,0.0
2025/04/09 09:59:47.855412292,1744185587,853620236,mA1/imu,0.705569722806028,0.7086399591251534,0.00031476750554488425,0.0008218953359907134,0.0,0.0,0.0,0.0,0.0,0.0,0.0,0.0,0.0,0.000653773943274359,-0.0002511589414452592,0.0004534672084845338,0.0,0.0,0.0,0.0,0.0,0.0,0.0,0.0,0.0,0.005062315252247996,0.031910727990537964,9.81006420460936,0.0,0.0,0.0,0.0,0.0,0.0,0.0,0.0,0.0
2025/04/09 09:59:47.907829958,1744185587,905642458,mA1/imu,0.7055780595196453,0.7086316482327129,0.000313576103807055,0.0008310941630380049,0.0,0.0,0.0,0.0,0.0,0.0,0.0,0.0,0.0,-0.000897322087149587,-0.0003579571772569106,0.0004944083314715912,0.0,0.0,0.0,0.0,0.0,0.0,0.0,0.0,0.0,0.010810117736652365,0.5596686089608339,9.811581864951759,0.0,0.0,0.0,0.0,0.0,0.0,0.0,0.0,0.0
2025/04/09 09:59:47.956428370,1744185587,955483340,mA1/imu,0.7055870554314785,0.7086226815019675,0.00030901308264271555,0.0008408206775391278,0.0,0.0,0.0,0.0,0.0,0.0,0.0,0.0,0.0,-0.0007130478167803955,-0.00041790845211961007,0.0005086522326546066,0.0,0.0,0.0,0.0,0.0,0.0,0.0,0.0,0.0,0.007458597431816081,-0.06278933721410908,9.810454889101816,0.0,0.0,0.0,0.0,0.0,0.0,0.0,0.0,0.0
2025/04/09 09:59:47.997436152,1744185587,996431871,mA1/imu,0.7055958048061337,0.7086139699531291,0.00029897375847128763,0.0008440627593770962,0.0,0.0,0.0,0.0,0.0,0.0,0.0,0.0,0.0,0.0008832836916112699,-0.00031099747761862583,0.00047088566460544445,0.0,0.0,0.0,0.0,0.0,0.0,0.0,0.0,0.0,0.002153520297248717,-0.5906009121811581,9.808525627285277,0.0,0.0,0.0,0.0,0.0,0.0,0.0,0.0,0.0
2025/04/09 09:59:48.47358945,1744185588,46217200,mA1/imu,0.7056039535478219,0.7086058570533141,0.00029171826828792345,0.0008455695555098423,0.0,0.0,0.0,0.0,0.0,0.0,0.0,0.0,0.0,0.000752866827705585,-0.00021890606033192,0.0004603465160812563,0.0,0.0,0.0,0.0,0.0,0.0,0.0,0.0,0.0,0.005445178459280284,0.03236853728103861,9.809829541356157,0.0,0.0,0.0,0.0,0.0,0.0,0.0,0.0,0.0
2025/04/09 09:59:48.98200367,1744185588,97181310,mA1/imu,0.7056121644475392,0.7085976743434012,0.00029060969592097655,0.0008513781689825862,0.0,0.0,0.0,0.0,0.0,0.0,0.0,0.0,0.0,-0.0008107034787504812,-0.00022234133459121303,0.0004733631684662087,0.0,0.0,0.0,0.0,0.0,0.0,0.0,0.0,0.0,0.012080870887830934,0.559630511480784,9.811300212607444,0.0,0.0,0.0,0.0,0.0,0.0,0.0,0.0,0.0
2025/04/09 09:59:48.150738968,1744185588,147836664,mA1/imu,0.7056208496312627,0.7085890200628311,0.00028695718699903205,0.0008572442033328235,0.0,0.0,0.0,0.0,0.0,0.0,0.0,0.0,0.0,-0.0006328771926769462,-0.0002817737144831905,0.0004922878484818034,0.0,0.0,0.0,0.0,0.0,0.0,0.0,0.0,0.0,0.008713952157109732,-0.06298614147585344,9.810154065102616,0.0,0.0,0.0,0.0,0.0,0.0,0.0,0.0,0.0
2025/04/09 09:59:48.201244593,1744185588,199042299,mA1/imu,0.70563128808334,0.7085786319429241,0.0002813079844081248,0.0008535206843313046,0.0,0.0,0.0,0.0,0.0,0.0,0.0,0.0,0.0,0.0009418269852441387,0.0002663360247495466,0.0007351653183873326,0.0,0.0,0.0,0.0,0.0,0.0,0.0,0.0,0.0,-0.017965399012317883,-0.5948448961489486,9.807324571088326,0.0,0.0,0.0,0.0,0.0,0.0,0.0,0.0,0.0
2025/04/09 09:59:48.255795382,1744185588,249251606,mA1/imu,0.705645744978341,0.708564246723431,0.000285494895363979,0.0008422303031966679,0.0,0.0,0.0,0.0,0.0,0.0,0.0,0.0,0.0,0.0007839562353569139,0.0004455465340330424,0.0008137311042212643,0.0,0.0,0.0,0.0,0.0,0.0,0.0,0.0,0.0,0.007056519275157017,0.03265164377020052,9.809550831025865,0.0,0.0,0.0,0.0,0.0,0.0,0.0,0.0,0.0
2025/04/09 09:59:48.302901351,1744185588,300648450,mA1/imu,0.7056583769971315,0.708551666473608,0.00029101781636780774,0.000840368893795977,0.0,0.0,0.0,0.0,0.0,0.0,0.0,0.0,0.0,-0.0007736241999077342,-0.00012234270245008435,0.0005648538508281706,0.0,0.0,0.0,0.0,0.0,0.0,0.0,0.0,0.0,0.03420796835722077,0.5637869854309193,9.81197646835152,0.0,0.0,0.0,0.0,0.0,0.0,0.0,0.0,0.0
2025/04/09 09:59:48.352887923,1744185588,351289179,mA1/imu,0.7056668957592193,0.708543177464945,0.0002858783518875796,0.0008462688665370646,0.0,0.0,0.0,0.0,0.0,0.0,0.0,0.0,0.0,-0.0005976875333665838,-0.00033463745294119967,0.0004807245152431955,0.0,0.0,0.0,0.0,0.0,0.0,0.0,0.0,0.0,0.009281975597579224,-0.06315137659431054,9.809996050293867,0.0,0.0,0.0,0.0,0.0,0.0,0.0,0.0,0.0
2025/04/09 09:59:48.403392460,1744185588,402222363,mA1/imu,0.7056771238870243,0.7085329973081013,0.0002786947257157509,0.0008431354491052571,0.0,0.0,0.0,0.0,0.0,0.0,0.0,0.0,0.0,0.0009631136729000459,0.00020653202904408235,0.0007231590906209271,0.0,0.0,0.0,0.0,0.0,0.0,0.0,0.0,0.0,-0.018322195797650428,-0.5946990830864397,9.80725540850803,0.0,0.0,0.0,0.0,0.0,0.0,0.0,0.0,0.0
2025/04/09 09:59:48.452883431,1744185588,452095144,mA1/imu,0.7056913521403659,0.7085188373235851,0.0002816100735693307,0.000832687038270393,0.0,0.0,0.0,0.0,0.0,0.0,0.0,0.0,0.0,0.0007901294863240442,0.00038580602273724426,0.0008000708653520463,0.0,0.0,0.0,0.0,0.0,0.0,0.0,0.0,0.0,0.006809669563751255,0.032797256151558665,9.809541900380681,0.0,0.0,0.0,0.0,0.0,0.0,0.0,0.0,0.0
2025/04/09 09:59:48.504352285,1744185588,503039066,mA1/imu,0.705703742130679,0.7085064955778524,0.00028611562283952993,0.0008319883394977436,0.0,0.0,0.0,0.0,0.0,0.0,0.0,0.0,0.0,-0.0007848011132061591,-0.0001857426765245513,0.0005518812163710285,0.0,0.0,0.0,0.0,0.0,0.0,0.0,0.0,0.0,0.03411492518051979,0.5636391849872867,9.812054882446493,0.0,0.0,0.0,0.0,0.0,0.0,0.0,0.0,0.0
2025/04/09 09:59:48.553613638,1744185588,552852863,mA1/imu,0.7057120478909242,0.7084982161776864,0.00028022453495321197,0.0008394098189701091,0.0,0.0,0.0,0.0,0.0,0.0,0.0,0.0,0.0,-0.0006260635994625306,-0.0003993483694897447,0.0004691279589380074,0.0,0.0,0.0,0.0,0.0,0.0,0.0,0.0,0.0,0.009228079808615947,-0.06317949314080609,9.81013019015675,0.0,0.0,0.0,0.0,0.0,0.0,0.0,0.0,0.0
2025/04/09 09:59:48.604944209,1744185588,603828889,mA1/imu,0.7057220660987455,0.7084882417735542,0.0002725713474914058,0.0008380899690230851,0.0,0.0,0.0,0.0,0.0,0.0,0.0,0.0,0.0,0.0009190071453856492,0.00014165127472609971,0.0007107920591252042,0.0,0.0,0.0,0.0,0.0,0.0,0.0,0.0,0.0,-0.018284768270930937,-0.5948052612383855,9.8074689448365,0.0,0.0,0.0,0.0,0.0,0.0,0.0,0.0,0.0
2025/04/09 09:59:48.655285281,1744185588,654299390,mA1/imu,0.705736073671096,0.7084742974688797,0.0002753144046995528,0.0008296669578592185,0.0,0.0,0.0,0.0,0.0,0.0,0.0,0.0,0.0,0.0007328109078010604,0.00032617757630275663,0.0007879368829037114,0.0,0.0,0.0,0.0,0.0,0.0,0.0,0.0,0.0,0.006751228284293503,0.03277511551469814,9.809804580753147,0.0,0.0,0.0,0.0,0.0,0.0,0.0,0.0,0.0
2025/04/09 09:59:48.706492935,1744185588,705256507,mA1/imu,0.7057482532561331,0.7084621612850349,0.00027998696060755376,0.0008310598992970731,0.0,0.0,0.0,0.0,0.0,0.0,0.0,0.0,0.0,-0.0008523732421576716,-0.0002365340468540594,0.000540310109503921,0.0,0.0,0.0,0.0,0.0,0.0,0.0,0.0,0.0,0.034042191202874564,0.5636461435065915,9.812354704016006,0.0,0.0,0.0,0.0,0.0,0.0,0.0,0.0,0.0
2025/04/09 09:59:48.756344167,1744185588,755096046,mA1/imu,0.7057563565808631,0.7084540798426027,0.0002745992982315515,0.0008405327489252527,0.0,0.0,0.0,0.0,0.0,0.0,0.0,0.0,0.0,-0.0007009279774180246,-0.0004384400468299967,0.0004579806534143222,0.0,0.0,0.0,0.0,0.0,0.0,0.0,0.0,0.0,0.009159234279431728,-0.06319000620866863,9.810433984811619,0.0,0.0,0.0,0.0,0.0,0.0,0.0,0.0,0.0
2025/04/09 09:59:48.806748347,1744185588,806103872,mA1/imu,0.705766179265409,0.7084442963365896,0.00026776691287460334,0.0008411267095563332,0.0,0.0,0.0,0.0,0.0,0.0,0.0,0.0,0.0,0.0008405001831928553,0.00011599717701401725,0.0007000308760439781,0.0,0.0,0.0,0.0,0.0,0.0,0.0,0.0,0.0,-0.018354047169611237,-0.5948115966291895,9.807745661679741,0.0,0.0,0.0,0.0,0.0,0.0,0.0,0.0,0.0
2025/04/09 09:59:48.846999179,1744185588,845858508,mA1/imu,0.7057799985378024,0.7084305355361347,0.0002716079707301743,0.0008343938371001201,0.0,0.0,0.0,0.0,0.0,0.0,0.0,0.0,0.0,0.000654297560020954,0.0003152510824021359,0.0007776287803293437,0.0,0.0,0.0,0.0,0.0,0.0,0.0,0.0,0.0,0.006682512480698554,0.03277833401875921,9.81006580056349,0.0,0.0,0.0,0.0,0.0,0.0,0.0,0.0,0.0
2025/04/09 09:59:48.897782010,1744185588,896833112,mA1/imu,0.7057933928196239,0.7084171881099268,0.00028105155361894104,0.00083381809332303,0.0,0.0,0.0,0.0,0.0,0.0,0.0,0.0,0.0,-0.0009335173078791184,0.00013109432977395573,0.0006871625871428406,0.0,0.0,0.0,0.0,0.0,0.0,0.0,0.0,0.0,0.03454091504045009,0.5638657189400007,9.812548465715903,0.0,0.0,0.0,0.0,0.0,0.0,0.0,0.0,0.0
2025/04/09 09:59:48.947641883,1744185588,946677623,mA1/imu,0.7058037132179983,0.7084068987895226,0.0002824012018922377,0.0008392881851440028,0.0,0.0,0.0,0.0,0.0,0.0,0.0,0.0,0.0,-0.0007757989306924742,-0.00016735942352975227,0.000573896085301561,0.0,0.0,0.0,0.0,0.0,0.0,0.0,0.0,0.0,0.009581143816514924,-0.06317724406200605,9.810532242666138,0.0,0.0,0.0,0.0,0.0,0.0,0.0,0.0,0.0
2025/04/09 09:59:48.998474206,1744185588,997662551,mA1/imu,0.705813853893171,0.7083967956101033,0.0002767678169413239,0.0008408456353359598,0.0,0.0,0.0,0.0,0.0,0.0,0.0,0.0,0.0,0.0008057304006043944,-0.0002170566776305979,0.0005714438981553718,0.0,0.0,0.0,0.0,0.0,0.0,0.0,0.0,0.0,0.008665183859033532,-0.5853863292095577,9.808881504539066,0.0,0.0,0.0,0.0,0.0,0.0,0.0,0.0,0.0
2025/04/09 09:59:49.50499946,1744185589,49384742,mA1/imu,0.7058239517523304,0.7083867333486006,0.000271297270280714,0.0008435319874767699,0.0,0.0,0.0,0.0,0.0,0.0,0.0,0.0,0.0,0.0006575582167953982,-0.00024315627372671636,0.0005690068728635552,0.0,0.0,0.0,0.0,0.0,0.0,0.0,0.0,0.0,0.009112156645354018,0.0320944568497211,9.810013669383295,0.0,0.0,0.0,0.0,0.0,0.0,0.0,0.0,0.0
2025/04/09 09:59:49.101260441,1744185589,100267474,mA1/imu,0.7058339843219286,0.7083767266514666,0.00027149226041414074,0.0008520602898084021,0.0,0.0,0.0,0.0,0.0,0.0,0.0,0.0,0.0,-0.0009434716307922422,-0.00023294208028152826,0.0005647909608623904,0.0,0.0,0.0,0.0,0.0,0.0,0.0,0.0,0.0,0.008452054658881374,0.5539353914689887,9.811310881895935,0.0,0.0,0.0,0.0,0.0,0.0,0.0,0.0,0.0
2025/04/09 09:59:49.151029028,1744185589,150066503,mA1/imu,0.7058439344122844,0.7083668026528657,0.0002715014824918023,0.000859906790365786,0.0,0.0,0.0,0.0,0.0,0.0,0.0,0.0,0.0,-0.000801861805893554,-0.00020891889512604948,0.0005602717505132249,0.0,0.0,0.0,0.0,0.0,0.0,0.0,0.0,0.0,0.007925099415363273,-0.06309848416360055,9.810338826518898,0.0,0.0,0.0,0.0,0.0,0.0,0.0,0.0,0.0
2025/04/09 09:59:49.202437399,1744185589,201408315,mA1/imu,0.705853557881873,0.708357214066114,0.0002678508126814924,0.0008604428727049057,0.0,0.0,0.0,0.0,0.0,0.0,0.0,0.0,0.0,0.0007687103510763397,-1.96119293284054e-05,0.0005202066567632338,0.0,0.0,0.0,0.0,0.0,0.0,0.0,0.0,0.0,0.0017268265799306208,-0.5907959160435055,9.808416864040247,0.0,0.0,0.0,0.0,0.0,0.0,0.0,0.0,0.0
2025/04/09 09:59:49.252115696,1744185589,250859629,mA1/imu,0.7058625639235654,0.7083482420657295,0.00026875947761267053,0.0008582435458823508,0.0,0.0,0.0,0.0,0.0,0.0,0.0,0.0,0.0,0.0006188158485450544,0.00014294019391458977,0.0005089193092514396,0.0,0.0,0.0,0.0,0.0,0.0,0.0,0.0,0.0,0.005073997948345009,0.03217311495682121,9.809764841260096,0.0,0.0,0.0,0.0,0.0,0.0,0.0,0.0,0.0
2025/04/09 09:59:49.303643703,1744185589,301816852,mA1/imu,0.7058718626468025,0.7083389704254854,0.0002761008474430061,0.0008603885278032819,0.0,0.0,0.0,0.0,0.0,0.0,0.0,0.0,0.0,-0.0009445684710687651,0.00010539386268705174,0.0005487116619791955,0.0,0.0,0.0,0.0,0.0,0.0,0.0,0.0,0.0,0.012031566361832703,0.559546912855691,9.811227553212028,0.0,0.0,0.0,0.0,0.0,0.0,0.0,0.0,0.0
2025/04/09 09:59:49.354594430,1744185589,351889917,mA1/imu,0.7058818000202439,0.708329063076352,0.0002810679571801868,0.000862439772637397,0.0,0.0,0.0,0.0,0.0,0.0,0.0,0.0,0.0,-0.0007700805543079654,8.029275705788984e-05,0.000561869925481393,0.0,0.0,0.0,0.0,0.0,0.0,0.0,0.0,0.0,0.008722533402495779,-0.06294701741584577,9.810071660836543,0.0,0.0,0.0,0.0,0.0,0.0,0.0,0.0,0.0
2025/04/09 09:59:49.404810327,1744185589,403706489,mA1/imu,0.7058914886875332,0.7083194134898186,0.00028118962565919486,0.0008576737911243804,0.0,0.0,0.0,0.0,0.0,0.0,0.0,0.0,0.0,0.0008182036509497165,0.00021264686361037718,0.0005250067702246425,0.0,0.0,0.0,0.0,0.0,0.0,0.0,0.0,0.0,0.0028330148740735948,-0.5906138579696495,9.808202699030508,0.0,0.0,0.0,0.0,0.0,0.0,0.0,0.0,0.0
2025/04/09 09:59:49.455305733,1744185589,454223994,mA1/imu,0.705900605061193,0.7083103349361054,0.0002844469574759987,0.0008510504522587052,0.0,0.0,0.0,0.0,0.0,0.0,0.0,0.0,0.0,0.0006826772083022228,0.0003063172657785715,0.0005161757298213338,0.0,0.0,0.0,0.0,0.0,0.0,0.0,0.0,0.0,0.006144121171378698,0.03238508001875937,9.809577270557911,0.0,0.0,0.0,0.0,0.0,0.0,0.0,0.0,0.0
2025/04/09 09:59:49.505963877,1744185589,505181582,mA1/imu,0.7059100210527312,0.7083009490211901,0.00029277800397778576,0.0008497494068142292,0.0,0.0,0.0,0.0,0.0,0.0,0.0,0.0,0.0,-0.0008726180743756615,0.00020754261393613895,0.000554262643664438,0.0,0.0,0.0,0.0,0.0,0.0,0.0,0.0,0.0,0.012554508525391667,0.5592768662685509,9.811115539730503,0.0,0.0,0.0,0.0,0.0,0.0,0.0,0.0,0.0
2025/04/09 09:59:49.558022849,1744185589,555208925,mA1/imu,0.7059200287326616,0.7082909734904187,0.00029758336067146034,0.0008493233875411345,0.0,0.0,0.0,0.0,0.0,0.0,0.0,0.0,0.0,-0.0006942933805714299,0.00012127551380732188,0.000564710992299487,0.0,0.0,0.0,0.0,0.0,0.0,0.0,0.0,0.0,0.009228021277330495,-0.06317320114660806,9.810011554583394,0.0,0.0,0.0,0.0,0.0,0.0,0.0,0.0,0.0
2025/04/09 09:59:49.606987678,1744185589,606158094,mA1/imu,0.705929740410374,0.7082813021015592,0.0002964083630578515,0.0008431130080735214,0.0,0.0,0.0,0.0,0.0,0.0,0.0,0.0,0.0,0.0008968697455330375,0.000192606930048679,0.0005251477079943097,0.0,0.0,0.0,0.0,0.0,0.0,0.0,0.0,0.0,0.0032991675268083318,-0.5904384147282908,9.808232494537522,0.0,0.0,0.0,0.0,0.0,0.0,0.0,0.0,0.0
2025/04/09 09:59:49.646897285,1744185589,645908831,mA1/imu,0.7059388305639155,0.708272249990493,0.00029728977166317396,0.000836070719458047,0.0,0.0,0.0,0.0,0.0,0.0,0.0,0.0,0.0,0.0007616110826300184,0.00022817767455383494,0.0005134902667246649,0.0,0.0,0.0,0.0,0.0,0.0,0.0,0.0,0.0,0.0065834044823726325,0.03252608481568903,9.809660445715844,0.0,0.0,0.0,0.0,0.0,0.0,0.0,0.0,0.0
2025/04/09 09:59:49.699002631,1744185589,696944789,mA1/imu,0.7059482152497057,0.7082628960312465,0.0003042177826504939,0.0008336322495701337,0.0,0.0,0.0,0.0,0.0,0.0,0.0,0.0,0.0,-0.0008084161170427929,0.00037237490672814685,0.0005940377554320449,0.0,0.0,0.0,0.0,0.0,0.0,0.0,0.0,0.0,-0.014020269531673759,0.555915490774331,9.812177342843171,0.0,0.0,0.0,0.0,0.0,0.0,0.0,0.0,0.0
2025/04/09 09:59:49.747795528,1744185589,746923816,mA1/imu,0.7059604992068943,0.7082506567827236,0.00031458068779042695,0.0008256908526269157,0.0,0.0,0.0,0.0,0.0,0.0,0.0,0.0,0.0,-0.000644842679113396,0.0005087847325372692,0.0007024107262027233,0.0,0.0,0.0,0.0,0.0,0.0,0.0,0.0,0.0,0.0071519200249334424,-0.06324323032449644,9.810180465884619,0.0,0.0,0.0,0.0,0.0,0.0,0.0,0.0,0.0
2025/04/09 09:59:49.801544329,1744185589,799375217,mA1/imu,0.7059711349314469,0.7082400662882545,0.00031376032994707146,0.0008165182599836013,0.0,0.0,0.0,0.0,0.0,0.0,0.0,0.0,0.0,0.0010053494212681232,-0.00011504432452884234,0.00045290249812110126,0.0,0.0,0.0,0.0,0.0,0.0,0.0,0.0,0.0,0.035403316873466,-0.577883107246994,9.807592122805117,0.0,0.0,0.0,0.0,0.0,0.0,0.0,0.0,0.0
2025/04/09 09:59:49.850891118,1744185589,849221166,mA1/imu,0.7059777976973273,0.7082334281925162,0.00030201047023126003,0.0008180090363057771,0.0,0.0,0.0,0.0,0.0,0.0,0.0,0.0,0.0,0.000873511013379938,-0.00043154904665552253,0.00037737813183484647,0.0,0.0,0.0,0.0,0.0,0.0,0.0,0.0,0.0,0.009902336624757703,0.031659246516345156,9.809849365658517,0.0,0.0,0.0,0.0,0.0,0.0,0.0,0.0,0.0
2025/04/09 09:59:49.901321425,1744185589,900167285,mA1/imu,0.7059862891325895,0.7082249586436009,0.0002981142619633209,0.0008237954554183476,0.0,0.0,0.0,0.0,0.0,0.0,0.0,0.0,0.0,-0.0007765934541696177,1.996565442960903e-06,0.0006279025483775904,0.0,0.0,0.0,0.0,0.0,0.0,0.0,0.0,0.0,-0.018630686003689702,0.5463870198369252,9.812351360314572,0.0,0.0,0.0,0.0,0.0,0.0,0.0,0.0,0.0
2025/04/09 09:59:49.953468342,1744185589,952676655,mA1/imu,0.7059987957255235,0.7082124916065416,0.00030195093310148187,0.0008221874475104292,0.0,0.0,0.0,0.0,0.0,0.0,0.0,0.0,0.0,-0.0006478220234580003,0.0001399665598555169,0.0007056225251683491,0.0,0.0,0.0,0.0,0.0,0.0,0.0,0.0,0.0,0.006917511616813683,-0.06305437468000642,9.810368718344868,0.0,0.0,0.0,0.0,0.0,0.0,0.0,0.0,0.0
2025/04/09 09:59:50.4258021,1744185590,3575981,mA1/imu,0.7060095148819096,0.7082018118315928,0.0002953376300052204,0.0008193841248438574,0.0,0.0,0.0,0.0,0.0,0.0,0.0,0.0,0.0,0.0009815976299247064,-0.00043889443571596684,0.00045835029027179635,0.0,0.0,0.0,0.0,0.0,0.0,0.0,0.0,0.0,0.03480952572399812,-0.5775762239825651,9.807755558769827,0.0,0.0,0.0,0.0,0.0,0.0,0.0,0.0,0.0
2025/04/09 09:59:50.56723238,1744185590,53520518,mA1/imu,0.7060162914793121,0.7081950543563268,0.0002791223873181071,0.0008265843765115025,0.0,0.0,0.0,0.0,0.0,0.0,0.0,0.0,0.0,0.0008316908480866773,-0.000693156221777657,0.00038460507401817906,0.0,0.0,0.0,0.0,0.0,0.0,0.0,0.0,0.0,0.009292835380111174,0.03183671173409969,9.810007993479232,0.0,0.0,0.0,0.0,0.0,0.0,0.0,0.0,0.0
2025/04/09 09:59:50.106026150,1744185590,105042685,mA1/imu,0.7060249139799575,0.7081864485384479,0.00027235627289017467,0.0008371189608152215,0.0,0.0,0.0,0.0,0.0,0.0,0.0,0.0,0.0,-0.0008367058454890547,-0.00018046427623121658,0.0006351639329597242,0.0,0.0,0.0,0.0,0.0,0.0,0.0,0.0,0.0,-0.01935898803932666,0.5462806586344376,9.81247424865811,0.0,0.0,0.0,0.0,0.0,0.0,0.0,0.0,0.0
2025/04/09 09:59:50.155717530,1744185590,154891163,mA1/imu,0.706037523142009,0.7081738742485918,0.00027509804360344056,0.0008390877803601282,0.0,0.0,0.0,0.0,0.0,0.0,0.0,0.0,0.0,-0.0007239533212894659,4.1471074233569246e-05,0.0007104159369824144,0.0,0.0,0.0,0.0,0.0,0.0,0.0,0.0,0.0,0.006327799905944997,-0.06323838571182155,9.810445053062185,0.0,0.0,0.0,0.0,0.0,0.0,0.0,0.0,0.0
2025/04/09 09:59:50.206321448,1744185590,205810179,mA1/imu,0.706048317751823,0.70816311487695,0.00026907150480514095,0.0008386466012345617,0.0,0.0,0.0,0.0,0.0,0.0,0.0,0.0,0.0,0.0008940960310468431,-0.0004582325626023899,0.000463004202069679,0.0,0.0,0.0,0.0,0.0,0.0,0.0,0.0,0.0,0.0344692664805517,-0.5776808562431951,9.807765488262282,0.0,0.0,0.0,0.0,0.0,0.0,0.0,0.0,0.0
2025/04/09 09:59:50.248815196,1744185590,246432656,mA1/imu,0.7060551816792494,0.7081562666722682,0.0002549617226616525,0.0008469894909299525,0.0,0.0,0.0,0.0,0.0,0.0,0.0,0.0,0.0,0.0007374103150286673,-0.000635590674019337,0.0003897841396288533,0.0,0.0,0.0,0.0,0.0,0.0,0.0,0.0,0.0,0.009001562800462846,0.031844243261572265,9.809985992682863,0.0,0.0,0.0,0.0,0.0,0.0,0.0,0.0,0.0
2025/04/09 09:59:50.299615527,1744185590,298285957,mA1/imu,0.706063862229327,0.7081476004270538,0.00025168842200534307,0.0008573891473333944,0.0,0.0,0.0,0.0,0.0,0.0,0.0,0.0,0.0,-0.0009316149359479866,-4.885667666291002e-05,0.0006367745793146224,0.0,0.0,0.0,0.0,0.0,0.0,0.0,0.0,0.0,-0.019691065300636128,0.5463824780997203,9.812399444044885,0.0,0.0,0.0,0.0,0.0,0.0,0.0,0.0,0.0
2025/04/09 09:59:50.351303514,1744185590,350352028,mA1/imu,0.706076469817005,0.7081350263668137,0.0002591307892249262,0.0008579361645238067,0.0,0.0,0.0,0.0,0.0,0.0,0.0,0.0,0.0,-0.0008149727472986545,0.00024094411805957185,0.0007096943282769808,0.0,0.0,0.0,0.0,0.0,0.0,0.0,0.0,0.0,0.005929668782187953,-0.06308699259286732,9.810320246444723,0.0,0.0,0.0,0.0,0.0,0.0,0.0,0.0,0.0
2025/04/09 09:59:50.402443550,1744185590,401379948,mA1/imu,0.7060872217471365,0.7081243093152063,0.0002587739185936915,0.0008549142245411454,0.0,0.0,0.0,0.0,0.0,0.0,0.0,0.0,0.0,0.0008086309567906699,-0.00020473178369155578,0.0004598662338899495,0.0,0.0,0.0,0.0,0.0,0.0,0.0,0.0,0.0,0.03421165880159232,-0.5778131114397863,9.807601107941808,0.0,0.0,0.0,0.0,0.0,0.0,0.0,0.0,0.0
2025/04/09 09:59:50.452254786,1744185590,451259026,mA1/imu,0.7060940016175942,0.7081175458068638,0.0002509884062868386,0.0008597702814982359,0.0,0.0,0.0,0.0,0.0,0.0,0.0,0.0,0.0,0.0006603043010973376,-0.0003445323688665532,0.0003842841746487635,0.0,0.0,0.0,0.0,0.0,0.0,0.0,0.0,0.0,0.008785820295126588,0.03171781163673151,9.809820554563004,0.0,0.0,0.0,0.0,0.0,0.0,0.0,0.0,0.0
2025/04/09 09:59:50.503082536,1744185590,502231107,mA1/imu,0.7061008431205357,0.7081107125411317,0.0002502726746904511,0.0008691907430778314,0.0,0.0,0.0,0.0,0.0,0.0,0.0,0.0,0.0,-0.0009443078024970112,-0.0002463308333763382,0.000388204345680198,0.0,0.0,0.0,0.0,0.0,0.0,0.0,0.0,0.0,0.007367676517817709,0.553924651982804,9.81114445831052,0.0,0.0,0.0,0.0,0.0,0.0,0.0,0.0,0.0
2025/04/09 09:59:50.554161371,1744185590,552071965,mA1/imu,0.7061077529902633,0.708103813083686,0.00025107270876233894,0.0008763708577901206,0.0,0.0,0.0,0.0,0.0,0.0,0.0,0.0,0.0,-0.0008074258632350737,-0.00013172075632843032,0.0003921129286894146,0.0,0.0,0.0,0.0,0.0,0.0,0.0,0.0,0.0,0.006910502912132699,-0.06310401880886385,9.81011601872363,0.0,0.0,0.0,0.0,0.0,0.0,0.0,0.0,0.0
2025/04/09 09:59:50.605451165,1744185590,603042147,mA1/imu,0.7061150509363805,0.7080965375853655,0.00024901964988100183,0.0008753798854041349,0.0,0.0,0.0,0.0,0.0,0.0,0.0,0.0,0.0,0.0007745299222839557,6.534133197158826e-05,0.0004413173077730883,0.0,0.0,0.0,0.0,0.0,0.0,0.0,0.0,0.0,0.003238680357045491,-0.5870423723095431,9.808140996746879,0.0,0.0,0.0,0.0,0.0,0.0,0.0,0.0,0.0
2025/04/09 09:59:50.653844880,1744185590,652917430,mA1/imu,0.7061231563584504,0.7080884585781682,0.000251025247737432,0.0008717047082207575,0.0,0.0,0.0,0.0,0.0,0.0,0.0,0.0,0.0,0.0006277430276754305,0.00020432248738872733,0.00045773121042850113,0.0,0.0,0.0,0.0,0.0,0.0,0.0,0.0,0.0,0.007208041111872281,0.032029122171222155,9.809683488409481,0.0,0.0,0.0,0.0,0.0,0.0,0.0,0.0,0.0
2025/04/09 09:59:50.704913195,1744185590,703870137,mA1/imu,0.7061309371974951,0.7080806953096335,0.00025999327015489203,0.0008722762822940081,0.0,0.0,0.0,0.0,0.0,0.0,0.0,0.0,0.0,-0.0009596789582383284,0.00022800278082281514,0.0004123729122196327,0.0,0.0,0.0,0.0,0.0,0.0,0.0,0.0,0.0,0.011091988774649056,0.5554365412366575,9.811340942357692,0.0,0.0,0.0,0.0,0.0,0.0,0.0,0.0,0.0
2025/04/09 09:59:50.754709305,1744185590,753710685,mA1/imu,0.7061379790409072,0.7080736702150948,0.00026848176915932005,0.0008717922274962956,0.0,0.0,0.0,0.0,0.0,0.0,0.0,0.0,0.0,-0.0008021548367083991,0.0002851310723391028,0.00039977692215240225,0.0,0.0,0.0,0.0,0.0,0.0,0.0,0.0,0.0,0.007292482128850275,-0.06316430802775197,9.810051934519977,0.0,0.0,0.0,0.0,0.0,0.0,0.0,0.0,0.0
2025/04/09 09:59:50.808644210,1744185590,804727836,mA1/imu,0.7061450952910683,0.7080665806965167,0.00027190973960892627,0.0008647324469346193,0.0,0.0,0.0,0.0,0.0,0.0,0.0,0.0,0.0,0.0008007617580843705,0.000300714738786291,0.00040349582001579114,0.0,0.0,0.0,0.0,0.0,0.0,0.0,0.0,0.0,0.008748784937042902,-0.585336029095089,9.808448979037195,0.0,0.0,0.0,0.0,0.0,0.0,0.0,0.0,0.0
2025/04/09 09:59:50.850007810,1744185590,848508091,mA1/imu,0.7061522752978833,0.7080594270252515,0.0002756690900255877,0.0008578454684672544,0.0,0.0,0.0,0.0,0.0,0.0,0.0,0.0,0.0,0.0006753947604471542,0.0002938978959251143,0.0004070037561679624,0.0,0.0,0.0,0.0,0.0,0.0,0.0,0.0,0.0,0.009251141249385055,0.03213678506908468,9.809721026437371,0.0,0.0,0.0,0.0,0.0,0.0,0.0,0.0,0.0
2025/04/09 09:59:50.900706178,1744185590,899667113,mA1/imu,0.7061612579259761,0.7080504689679082,0.0002889126941489862,0.0008530698586353394,0.0,0.0,0.0,0.0,0.0,0.0,0.0,0.0,0.0,-0.0009549527755453478,0.0008186937497462677,0.000655115202656147,0.0,0.0,0.0,0.0,0.0,0.0,0.0,0.0,0.0,-0.019195431610211568,0.5462109841712511,9.812223962375215,0.0,0.0,0.0,0.0,0.0,0.0,0.0,0.0,0.0
2025/04/09 09:59:50.953589250,1744185590,949555588,mA1/imu,0.7061741930102184,0.7080375753971201,0.00031057592638161123,0.0008393418423375801,0.0,0.0,0.0,0.0,0.0,0.0,0.0,0.0,0.0,-0.0007980581666045871,0.0009995072290656113,0.0007287989452763189,0.0,0.0,0.0,0.0,0.0,0.0,0.0,0.0,0.0,0.0064729780168717235,-0.06297456056855795,9.810184628871324,0.0,0.0,0.0,0.0,0.0,0.0,0.0,0.0,0.0
2025/04/09 09:59:51.2379344,1744185591,476501,mA1/imu,0.7061852631412608,0.7080265477257931,0.00032124699467317707,0.0008237948601410743,0.0,0.0,0.0,0.0,0.0,0.0,0.0,0.0,0.0,0.0008666215336606561,0.00039429855927596155,0.0004774792634366124,0.0,0.0,0.0,0.0,0.0,0.0,0.0,0.0,0.0,0.035177875426364406,-0.5775899797321808,9.807592307165732,0.0,0.0,0.0,0.0,0.0,0.0,0.0,0.0,0.0
2025/04/09 09:59:51.51474662,1744185591,50311186,mA1/imu,0.7061923454485293,0.7080194900988908,0.00032062594770919557,0.0008185774326273404,0.0,0.0,0.0,0.0,0.0,0.0,0.0,0.0,0.0,0.0007570037302279952,6.538591262147977e-05,0.00040130112047833137,0.0,0.0,0.0,0.0,0.0,0.0,0.0,0.0,0.0,0.009751073660012058,0.03184814170775499,9.809906639448286,0.0,0.0,0.0,0.0,0.0,0.0,0.0,0.0,0.0
2025/04/09 09:59:51.102126279,1744185591,101252326,mA1/imu,0.7062012277834756,0.7080106287028824,0.0003269320723918273,0.0008177018288571102,0.0,0.0,0.0,0.0,0.0,0.0,0.0,0.0,0.0,-0.0008664926721324873,0.00046314730175328286,0.0006492881322981726,0.0,0.0,0.0,0.0,0.0,0.0,0.0,0.0,0.0,-0.018875144130335104,0.5461685532061229,9.812394085383273,0.0,0.0,0.0,0.0,0.0,0.0,0.0,0.0,0.0
2025/04/09 09:59:51.152685114,1744185591,152001251,mA1/imu,0.7062140681177201,0.7079978240581873,0.00033960397981124956,0.0008098090077961059,0.0,0.0,0.0,0.0,0.0,0.0,0.0,0.0,0.0,-0.0007080084842128456,0.0005417454573746511,0.0007234125357641705,0.0,0.0,0.0,0.0,0.0,0.0,0.0,0.0,0.0,0.006687149951228126,-0.0631113900492048,9.81035491843615,0.0,0.0,0.0,0.0,0.0,0.0,0.0,0.0,0.0
2025/04/09 09:59:51.203832048,1744185591,202943922,mA1/imu,0.7062250343214074,0.7079868945356901,0.0003397649865371788,0.0008016378176353204,0.0,0.0,0.0,0.0,0.0,0.0,0.0,0.0,0.0,0.0009551733552128271,-0.0001406408451033867,0.0004702266984804251,0.0,0.0,0.0,0.0,0.0,0.0,0.0,0.0,0.0,0.0354499906215146,-0.5774447681561607,9.807750787509072,0.0,0.0,0.0,0.0,0.0,0.0,0.0,0.0,0.0
2025/04/09 09:59:51.254229761,1744185591,253188066,mA1/imu,0.7062319584366881,0.7079799895786595,0.00032762510126759436,0.0008049227754114862,0.0,0.0,0.0,0.0,0.0,0.0,0.0,0.0,0.0,0.0008406285944110016,-0.0005168509235101333,0.00039086822563027,0.0,0.0,0.0,0.0,0.0,0.0,0.0,0.0,0.0,0.009910430359468725,0.03193294367186944,9.810041640499579,0.0,0.0,0.0,0.0,0.0,0.0,0.0,0.0,0.0
2025/04/09 09:59:51.305137314,1744185591,304154581,mA1/imu,0.7062406484130573,0.7079713141350431,0.0003221315070597647,0.0008130942730492708,0.0,0.0,0.0,0.0,0.0,0.0,0.0,0.0,0.0,-0.000791665892673225,-0.0001258959436141602,0.0006379368591103737,0.0,0.0,0.0,0.0,0.0,0.0,0.0,0.0,0.0,-0.01902913602186479,0.54648212674975,9.812472794419717,0.0,0.0,0.0,0.0,0.0,0.0,0.0,0.0,0.0
2025/04/09 09:59:51.355692915,1744185591,354019361,mA1/imu,0.7062532764393226,0.7079587148806402,0.00032340644926280197,0.0008142183628840034,0.0,0.0,0.0,0.0,0.0,0.0,0.0,0.0,0.0,-0.0006452201739481409,-2.347371104359741e-05,0.0007105535296388825,0.0,0.0,0.0,0.0,0.0,0.0,0.0,0.0,0.0,0.006597813032746783,-0.06304748947821216,9.810391371515365,0.0,0.0,0.0,0.0,0.0,0.0,0.0,0.0,0.0
2025/04/09 09:59:51.407317674,1744185591,405526611,mA1/imu,0.7062640251534236,0.7079479961356909,0.0003132696835451543,0.0008144959480025865,0.0,0.0,0.0,0.0,0.0,0.0,0.0,0.0,0.0,0.0010006993181036208,-0.0006420885454502783,0.00045828398016877,0.0,0.0,0.0,0.0,0.0,0.0,0.0,0.0,0.0,0.03487480286493546,-0.5777123264044859,9.80774042417176,0.0,0.0,0.0,0.0,0.0,0.0,0.0,0.0,0.0
2025/04/09 09:59:51.456496579,1744185591,455354858,mA1/imu,0.7062707548521538,0.7079412789312487,0.0002926221179895715,0.0008251048738844085,0.0,0.0,0.0,0.0,0.0,0.0,0.0,0.0,0.0,0.0008669076217342313,-0.0009258810560893116,0.00038008616353509857,0.0,0.0,0.0,0.0,0.0,0.0,0.0,0.0,0.0,0.009355255728540674,0.031831559832483224,9.809991613955894,0.0,0.0,0.0,0.0,0.0,0.0,0.0,0.0,0.0
2025/04/09 09:59:51.507360437,1744185591,506277960,mA1/imu,0.7062757398135696,0.70793629404876,0.00027173270142195763,0.00084206926183736,0.0,0.0,0.0,0.0,0.0,0.0,0.0,0.0,0.0,-0.00039204912732025135,-0.001248877362981351,0.00013197162270606278,0.0,0.0,0.0,0.0,0.0,0.0,0.0,0.0,0.0,0.021684137005854767,0.5672215913477453,9.812298486633178,0.0,0.0,0.0,0.0,0.0,0.0,0.0,0.0,0.0
2025/04/09 09:59:51.546905334,1744185591,546032265,mA1/imu,0.7062737742819669,0.7079382468217041,0.00023620295381286503,0.0008594513840699226,0.0,0.0,0.0,0.0,0.0,0.0,0.0,0.0,0.0,6.516101275737568e-05,-0.0016249740948590069,-0.00027273943470635417,0.0,0.0,0.0,0.0,0.0,0.0,0.0,0.0,0.0,0.01983153214035551,-0.025712850957249817,9.811295218330892,0.0,0.0,0.0,0.0,0.0,0.0,0.0,0.0,0.0
2025/04/09 09:59:51.598634012,1744185591,597344187,mA1/imu,0.7062730672380871,0.707938972090038,0.0001922134705365681,0.0008540165025029132,0.0,0.0,0.0,0.0,0.0,0.0,0.0,0.0,0.0,0.0025024148766105217,-0.0003803051185447836,0.000366495603320966,0.0,0.0,0.0,0.0,0.0,0.0,0.0,0.0,0.0,-0.0449178787576103,-0.486631073685963,9.806901472548176,0.0,0.0,0.0,0.0,0.0,0.0,0.0,0.0,0.0
2025/04/09 09:59:51.648623486,1744185591,647725184,mA1/imu,0.7062908961369528,0.7079212536831974,0.0001629179712478153,0.0008012960782489476,0.0,0.0,0.0,0.0,0.0,0.0,0.0,0.0,0.0,0.003129349145736127,0.001193298703904437,0.0013380498651533446,0.0,0.0,0.0,0.0,0.0,0.0,0.0,0.0,0.0,-0.0224958156912803,0.12281406508177112,9.808239132751972,0.0,0.0,0.0,0.0,0.0,0.0,0.0,0.0,0.0
2025/04/09 09:59:51.699595234,1744185591,698687845,mA1/imu,0.7063169910041398,0.7078953011781922,0.00014148719386229973,0.0007285396819768002,0.0,0.0,0.0,0.0,0.0,0.0,0.0,0.0,0.0,0.0022934333347621014,0.0014985880144094865,0.0014798443271491284,0.0,0.0,0.0,0.0,0.0,0.0,0.0,0.0,0.0,0.007249378253533041,0.6691908468435029,9.811113883347769,0.0,0.0,0.0,0.0,0.0,0.0,0.0,0.0,0.0
2025/04/09 09:59:51.750040516,1744185591,748541639,mA1/imu,0.7063430256080491,0.7078694187901214,0.00010264412823232232,0.0006368522480022438,0.0,0.0,0.0,0.0,0.0,0.0,0.0,0.0,0.0,0.003674379795878163,0.0014903969125327524,0.0014616725994649235,0.0,0.0,0.0,0.0,0.0,0.0,0.0,0.0,0.0,0.006742146867832574,0.08042823415959428,9.810324696189827,0.0,0.0,0.0,0.0,0.0,0.0,0.0,0.0,0.0
2025/04/09 09:59:51.801952031,1744185591,799494059,mA1/imu,0.7063664810749478,0.7078461082515614,3.772954572972434e-05,0.0005291723683639096,0.0,0.0,0.0,0.0,0.0,0.0,0.0,0.0,0.0,0.0055880798356788206,0.0011622753875656392,0.0013045537728786527,0.0,0.0,0.0,0.0,0.0,0.0,0.0,0.0,0.0,0.005804598432763765,-0.07460857700432413,9.809070453254094,0.0,0.0,0.0,0.0,0.0,0.0,0.0,0.0,0.0
2025/04/09 09:59:51.853595042,1744185591,849342327,mA1/imu,0.7063894739110839,0.7078232381382528,-3.599088405413403e-05,0.0004164177672687081,0.0,0.0,0.0,0.0,0.0,0.0,0.0,0.0,0.0,0.004554111011766965,0.001086642782750351,0.0012882553764643973,0.0,0.0,0.0,0.0,0.0,0.0,0.0,0.0,0.0,0.0045795177427558915,0.6519233981418466,9.808925315437609,0.0,0.0,0.0,0.0,0.0,0.0,0.0,0.0,0.0
2025/04/09 09:59:51.901098387,1744185591,900253160,mA1/imu,0.7064109039601062,0.7078019019732142,-0.00012944274174953962,0.0002925302424358456,0.0,0.0,0.0,0.0,0.0,0.0,0.0,0.0,0.0,0.00702276089372596,0.0009569572709455534,0.0012990263856432406,0.0,0.0,0.0,0.0,0.0,0.0,0.0,0.0,0.0,-0.009486592583709243,-0.44075918064707287,9.811170435215242,0.0,0.0,0.0,0.0,0.0,0.0,0.0,0.0,0.0
2025/04/09 09:59:51.951416204,1744185591,950185497,mA1/imu,-0.7064362186528669,-0.7077766550990952,0.00021927871567834658,-0.00016549628501815868,0.0,0.0,0.0,0.0,0.0,0.0,0.0,0.0,0.0,0.005853064404351068,0.0010183544431771854,0.0014558458907624203,0.0,0.0,0.0,0.0,0.0,0.0,0.0,0.0,0.0,0.007358325704707899,0.42766191305471685,9.810247643727891,0.0,0.0,0.0,0.0,0.0,0.0,0.0,0.0,0.0
2025/04/09 09:59:52.3324631,1744185592,1195916,mA1/imu,-0.7064614827047698,-0.707751420929957,0.0003127529613425058,-4.256512911786955e-05,0.0,0.0,0.0,0.0,0.0,0.0,0.0,0.0,0.0,0.005406810088673008,0.0007164699118396272,0.0013992614511263736,0.0,0.0,0.0,0.0,0.0,0.0,0.0,0.0,0.0,0.008709624637076004,0.587706117304682,9.810382581822964,0.0,0.0,0.0,0.0,0.0,0.0,0.0,0.0,0.0
2025/04/09 09:59:52.51842287,1744185592,50967946,mA1/imu,-0.7064858211550782,-0.7077270771640618,0.00040501885409367224,6.866860135274063e-05,0.0,0.0,0.0,0.0,0.0,0.0,0.0,0.0,0.0,0.005654073544052943,0.0004177050288302442,0.0013671208330572066,0.0,0.0,0.0,0.0,0.0,0.0,0.0,0.0,0.0,0.006832359452985333,0.010083291225323188,9.810543746288992,0.0,0.0,0.0,0.0,0.0,0.0,0.0,0.0,0.0
2025/04/09 09:59:52.107968077,1744185592,104348141,mA1/imu,-0.7065111955165615,-0.7077016754246862,0.0004914280123141446,0.0001664612870546063,0.0,0.0,0.0,0.0,0.0,0.0,0.0,0.0,0.0,0.006007200529335947,0.00034611116363023764,0.001538192624423915,0.0,0.0,0.0,0.0,0.0,0.0,0.0,0.0,0.0,-0.006950981018971305,-0.4236674326523985,9.808336661761354,0.0,0.0,0.0,0.0,0.0,0.0,0.0,0.0,0.0
2025/04/09 09:59:52.159489254,1744185592,153138339,mA1/imu,-0.7065414109341505,-0.7076714388521059,0.0005563748385510291,0.00024436695550130285,0.0,0.0,0.0,0.0,0.0,0.0,0.0,0.0,0.0,0.00486384246670906,0.0003730180300471123,0.0018107501010114027,0.0,0.0,0.0,0.0,0.0,0.0,0.0,0.0,0.0,-0.005549250881467114,-0.34246065869670317,9.81015376205812,0.0,0.0,0.0,0.0,0.0,0.0,0.0,0.0,0.0
2025/04/09 09:59:52.207059556,1744185592,204280776,mA1/imu,-0.7065735118416022,-0.707639338811958,0.000595010698672464,0.0002906748508326944,0.0,0.0,0.0,0.0,0.0,0.0,0.0,0.0,0.0,0.002385649884484,0.0002218130729864291,0.001911934419642443,0.0,0.0,0.0,0.0,0.0,0.0,0.0,0.0,0.0,-0.007348265274916205,0.1158751338233454,9.811143340826488,0.0,0.0,0.0,0.0,0.0,0.0,0.0,0.0,0.0
2025/04/09 09:59:52.254053681,1744185592,249385617,mA1/imu,-0.7066106091441351,-0.707602259454567,0.000619375588770906,0.0003253208049953712,0.0,0.0,0.0,0.0,0.0,0.0,0.0,0.0,0.0,-0.00027644918327587333,0.00034986422740415375,0.0022154500098085384,0.0,0.0,0.0,0.0,0.0,0.0,0.0,0.0,0.0,-0.007637840077435387,0.6614392303038258,9.811197388325816,0.0,0.0,0.0,0.0,0.0,0.0,0.0,0.0,0.0
2025/04/09 09:59:52.312794033,1744185592,303871954,mA1/imu,-0.7066528066650756,-0.7075601249067696,0.0006106899707009855,0.00032792079460831295,0.0,0.0,0.0,0.0,0.0,0.0,0.0,0.0,0.0,-0.00035596905399566176,0.0003214779845869134,0.0025128955589376963,0.0,0.0,0.0,0.0,0.0,0.0,0.0,0.0,0.0,-0.006513579335282158,0.13120645866393063,9.809942020066407,0.0,0.0,0.0,0.0,0.0,0.0,0.0,0.0,0.0
2025/04/09 09:59:52.347627534,1744185592,346242800,mA1/imu,-0.706699864735752,-0.7075131621759606,0.0005773224944174341,0.0003053342101712068,0.0,0.0,0.0,0.0,0.0,0.0,0.0,0.0,0.0,-0.0020195454356186993,0.00029875520021895133,0.0027570015960650543,0.0,0.0,0.0,0.0,0.0,0.0,0.0,0.0,0.0,-0.005467162211303578,0.6717853550492787,9.81108609500911,0.0,0.0,0.0,0.0,0.0,0.0,0.0,0.0,0.0
2025/04/09 09:59:52.399215851,1744185592,397349284,mA1/imu,-0.7067503676125924,-0.7074627821875598,0.0005170331149632341,0.00024975119884035075,0.0,0.0,0.0,0.0,0.0,0.0,0.0,0.0,0.0,-0.004030747976535649,-4.881834562701379e-05,0.002850273319576068,0.0,0.0,0.0,0.0,0.0,0.0,0.0,0.0,0.0,0.009476480195804719,0.16047772441504726,9.809776665169991,0.0,0.0,0.0,0.0,0.0,0.0,0.0,0.0,0.0
2025/04/09 09:59:52.448761117,1744185592,447730942,mA1/imu,-0.7068002546738448,-0.7074130128323551,0.00044820944164537227,0.0001684539542662107,0.0,0.0,0.0,0.0,0.0,0.0,0.0,0.0,0.0,-0.0044958739078698375,-0.0005528609968316921,0.0027964289747108378,0.0,0.0,0.0,0.0,0.0,0.0,0.0,0.0,0.0,0.008281890286960449,0.12327426454824081,9.810594401222591,0.0,0.0,0.0,0.0,0.0,0.0,0.0,0.0,0.0
2025/04/09 09:59:52.499767069,1744185592,498632240,mA1/imu,-0.7068509478153584,-0.7073624274486247,0.00036103414675988136,5.882910176674568e-05,0.0,0.0,0.0,0.0,0.0,0.0,0.0,0.0,0.0,-0.005098942656231648,-0.0006063419066323873,0.0029951501741481007,0.0,0.0,0.0,0.0,0.0,0.0,0.0,0.0,0.0,-0.008438863729184048,-0.48478280690179265,9.8071348979792,0.0,0.0,0.0,0.0,0.0,0.0,0.0,0.0,0.0
2025/04/09 09:59:52.549165713,1744185592,548492477,mA1/imu,-0.7069050766777006,-0.7073083773289354,0.00026003154933638837,-6.565969668748471e-05,0.0,0.0,0.0,0.0,0.0,0.0,0.0,0.0,0.0,-0.007222349150778888,-0.0007734322489702296,0.003059243874880426,0.0,0.0,0.0,0.0,0.0,0.0,0.0,0.0,0.0,0.00644236472318467,0.05607495866661576,9.810515739998658,0.0,0.0,0.0,0.0,0.0,0.0,0.0,0.0,0.0
2025/04/09 09:59:52.601465681,1744185592,599425259,mA1/imu,0.7069659591375532,0.7072475325398664,-0.00014646882809826335,0.00019718993938151218,0.0,0.0,0.0,0.0,0.0,0.0,0.0,0.0,0.0,-0.008323938054113958,-0.00010165977512454361,0.003846603577170196,0.0,0.0,0.0,0.0,0.0,0.0,0.0,0.0,0.0,-0.034476907301441206,0.4058874541979962,9.811424225593091,0.0,0.0,0.0,0.0,0.0,0.0,0.0,0.0,0.0
2025/04/09 09:59:52.657167812,1744185592,649706690,mA1/imu,0.7070406454657978,0.7071728369133954,-1.9158663955852126e-05,0.0003225276946158096,0.0,0.0,0.0,0.0,0.0,0.0,0.0,0.0,0.0,-0.008414502285575809,2.954030196353328e-05,0.0043946569348983075,0.0,0.0,0.0,0.0,0.0,0.0,0.0,0.0,0.0,-0.00017327980218006817,0.6461225780710246,9.809278562179742,0.0,0.0,0.0,0.0,0.0,0.0,0.0,0.0,0.0
2025/04/09 09:59:52.701779765,1744185592,700664348,mA1/imu,0.7071212929889047,0.7070921161400927,0.00010498302414255965,0.0004530704025875316,0.0,0.0,0.0,0.0,0.0,0.0,0.0,0.0,0.0,-0.007143395077764851,-0.0004257917058330898,0.004566847984059693,0.0,0.0,0.0,0.0,0.0,0.0,0.0,0.0,0.0,0.022151644183575063,-0.5447373184605369,9.809884021054424,0.0,0.0,0.0,0.0,0.0,0.0,0.0,0.0,0.0
2025/04/09 09:59:52.751379928,1744185592,750489222,mA1/imu,0.7071984729375542,0.7070148035791346,0.00020419963787497093,0.0005879602512309284,0.0,0.0,0.0,0.0,0.0,0.0,0.0,0.0,0.0,-0.0051286661296476655,-0.00145500306110298,0.004205726532518057,0.0,0.0,0.0,0.0,0.0,0.0,0.0,0.0,0.0,0.031181405114054414,-0.4363199152542869,9.809392902455485,0.0,0.0,0.0,0.0,0.0,0.0,0.0,0.0,0.0
2025/04/09 09:59:52.805008011,1744185592,803430791,mA1/imu,0.7072718080745918,0.7069412817483273,0.00028720274231885934,0.0007288192607805066,0.0,0.0,0.0,0.0,0.0,0.0,0.0,0.0,0.0,-0.00540561724387714,-0.0017257378750790502,0.004160703758842257,0.0,0.0,0.0,0.0,0.0,0.0,0.0,0.0,0.0,0.005651087552977281,0.12957084250575615,9.80969706745894,0.0,0.0,0.0,0.0,0.0,0.0,0.0,0.0,0.0
2025/04/09 09:59:52.855593458,1744185592,854035165,mA1/imu,0.7073455946059369,0.70686726760625,0.000359041197653054,0.000864215173618661,0.0,0.0,0.0,0.0,0.0,0.0,0.0,0.0,0.0,-0.005470278727385619,-0.001844992402343254,0.0041941037134884,0.0,0.0,0.0,0.0,0.0,0.0,0.0,0.0,0.0,0.005197405630745068,0.05491690090232057,9.81218975772861,0.0,0.0,0.0,0.0,0.0,0.0,0.0,0.0,0.0
2025/04/09 09:59:52.909497810,1744185592,906530936,mA1/imu,0.7074202461507094,0.7067923859036086,0.0004065038431713653,0.000976380755285712,0.0,0.0,0.0,0.0,0.0,0.0,0.0,0.0,0.0,-0.005089487738763232,-0.00181194552985958,0.004243736685430946,0.0,0.0,0.0,0.0,0.0,0.0,0.0,0.0,0.0,0.004210814675382457,-0.05204629844926932,9.813169024738224,0.0,0.0,0.0,0.0,0.0,0.0,0.0,0.0,0.0
2025/04/09 09:59:52.947043392,1744185592,945824475,mA1/imu,0.7074954890198866,0.7067169390472411,0.00042609613312774445,0.0010580748059389386,0.0,0.0,0.0,0.0,0.0,0.0,0.0,0.0,0.0,-0.0026375496657934207,-0.0017033111905988137,0.0042782437770243825,0.0,0.0,0.0,0.0,0.0,0.0,0.0,0.0,0.0,0.005412077358567351,-0.25469862553682293,9.809549605329146,0.0,0.0,0.0,0.0,0.0,0.0,0.0,0.0,0.0
2025/04/09 09:59:52.998494757,1744185592,996784329,mA1/imu,0.7075714626876211,0.7066407852828258,0.0004272852309935589,0.0011149853376816957,0.0,0.0,0.0,0.0,0.0,0.0,0.0,0.0,0.0,-0.0012347071772014701,-0.001481637750485308,0.004313534616680142,0.0,0.0,0.0,0.0,0.0,0.0,0.0,0.0,0.0,0.0035718142344976517,0.07253227919435645,9.812962076955985,0.0,0.0,0.0,0.0,0.0,0.0,0.0,0.0,0.0
2025/04/09 09:59:53.47437800,1744185593,46602870,mA1/imu,0.7076469844548442,0.7065651122040334,0.0004117221535025978,0.0011480822861164213,0.0,0.0,0.0,0.0,0.0,0.0,0.0,0.0,0.0,0.00020275004778053544,-0.00135246741543148,0.004206370255382629,0.0,0.0,0.0,0.0,0.0,0.0,0.0,0.0,0.0,0.012418180014683918,-0.005319551194267115,9.812566259590431,0.0,0.0,0.0,0.0,0.0,0.0,0.0,0.0,0.0
2025/04/09 09:59:53.98812928,1744185593,97580932,mA1/imu,0.7077200004596055,0.706491995122005,0.00037228017364012464,0.0011502979862806108,0.0,0.0,0.0,0.0,0.0,0.0,0.0,0.0,0.0,0.0012711131263977312,-0.0010018328983323222,0.004123891387044077,0.0,0.0,0.0,0.0,0.0,0.0,0.0,0.0,0.0,0.0018128595516463068,0.04527679234978809,9.809710256817942,0.0,0.0,0.0,0.0,0.0,0.0,0.0,0.0,0.0
2025/04/09 09:59:53.150412411,1744185593,149009077,mA1/imu,0.7077927757898156,0.706419170415161,0.0003138033528974932,0.0011152296442810356,0.0,0.0,0.0,0.0,0.0,0.0,0.0,0.0,0.0,0.0033530878284393053,-0.0004489819251214991,0.004108754141495539,0.0,0.0,0.0,0.0,0.0,0.0,0.0,0.0,0.0,0.001892382389490646,-0.07857536388052731,9.80993872281832,0.0,0.0,0.0,0.0,0.0,0.0,0.0,0.0,0.0
2025/04/09 09:59:53.201730813,1744185593,199992360,mA1/imu,0.7078651804725437,0.7063467453835333,0.00024435654974747735,0.0010496906876130531,0.0,0.0,0.0,0.0,0.0,0.0,0.0,0.0,0.0,0.0046683674685826,0.00010648869164819765,0.004086756942746498,0.0,0.0,0.0,0.0,0.0,0.0,0.0,0.0,0.0,0.0016131882912384723,0.10138253417247343,9.810742871790655,0.0,0.0,0.0,0.0,0.0,0.0,0.0,0.0,0.0
2025/04/09 09:59:53.250755783,1744185593,249815122,mA1/imu,0.7079373002678943,0.7062746121573985,0.0001700963776816287,0.000960301277626043,0.0,0.0,0.0,0.0,0.0,0.0,0.0,0.0,0.0,0.0050851663796172,0.0006233087568734245,0.004072356250253292,0.0,0.0,0.0,0.0,0.0,0.0,0.0,0.0,0.0,0.0008466202865093069,0.0602209912264985,9.812420286138389,0.0,0.0,0.0,0.0,0.0,0.0,0.0,0.0,0.0
2025/04/09 09:59:53.302409943,1744185593,300781002,mA1/imu,0.708007700993098,0.7062042059688778,7.84601273280527e-05,0.0008418137224410423,0.0,0.0,0.0,0.0,0.0,0.0,0.0,0.0,0.0,0.005292226524762147,0.0008355265269532491,0.003953088148317005,0.0,0.0,0.0,0.0,0.0,0.0,0.0,0.0,0.0,0.010714375234080137,0.6573741308290183,9.81063437734337,0.0,0.0,0.0,0.0,0.0,0.0,0.0,0.0,0.0
2025/04/09 09:59:53.352303613,1744185593,350658489,mA1/imu,0.7080770849260176,0.7061347750367746,-8.572927711636717e-06,0.0007219507888341623,0.0,0.0,0.0,0.0,0.0,0.0,0.0,0.0,0.0,0.005301571889302164,0.00098021791636742,0.0039043027175671013,0.0,0.0,0.0,0.0,0.0,0.0,0.0,0.0,0.0,0.010566902162317388,0.5707912196343293,9.810863710783938,0.0,0.0,0.0,0.0,0.0,0.0,0.0,0.0,0.0
2025/04/09 09:59:53.402385003,1744185593,401589373,mA1/imu,0.7081456166687403,0.7060661626384455,-0.00010289588617844268,0.0005907472443158447,0.0,0.0,0.0,0.0,0.0,0.0,0.0,0.0,0.0,0.00576953251208081,0.001067766025648246,0.0038580353717617595,0.0,0.0,0.0,0.0,0.0,0.0,0.0,0.0,0.0,0.011541687190566492,0.014598014826917659,9.81166012139687,0.0,0.0,0.0,0.0,0.0,0.0,0.0,0.0,0.0
2025/04/09 09:59:53.452408927,1744185593,451490486,mA1/imu,0.7082133246261119,0.7059983296282902,-0.00020239516642005869,0.0004521286211695397,0.0,0.0,0.0,0.0,0.0,0.0,0.0,0.0,0.0,0.007392464131504586,0.001102972674629489,0.003812786258554064,0.0,0.0,0.0,0.0,0.0,0.0,0.0,0.0,0.0,0.010957476866842814,-0.4929671606813428,9.810292146854238,0.0,0.0,0.0,0.0,0.0,0.0,0.0,0.0,0.0
2025/04/09 09:59:53.503315953,1744185593,502399670,mA1/imu,0.7082850088346129,0.7059264577184577,-0.0002812862725193813,0.0003216073000914662,0.0,0.0,0.0,0.0,0.0,0.0,0.0,0.0,0.0,0.006115098142322201,0.0019708685135294396,0.004450962371370076,0.0,0.0,0.0,0.0,0.0,0.0,0.0,0.0,0.0,-0.03879739182501488,0.083460877555709,9.812660339648437,0.0,0.0,0.0,0.0,0.0,0.0,0.0,0.0,0.0
2025/04/09 09:59:53.555250765,1744185593,552220896,mA1/imu,-0.7083676981096357,-0.7058435039503154,0.000346383771956246,-0.0001795112241671058,0.0,0.0,0.0,0.0,0.0,0.0,0.0,0.0,0.0,0.003937717027312315,0.002055078517781817,0.004689190045667498,0.0,0.0,0.0,0.0,0.0,0.0,0.0,0.0,0.0,0.015925645826111934,0.38214159043511,9.809643873745607,0.0,0.0,0.0,0.0,0.0,0.0,0.0,0.0,0.0
2025/04/09 09:59:53.603932927,1744185593,603143821,mA1/imu,-0.7084508620250001,-0.7057600255916403,0.00039774530580504656,-6.458787131038204e-05,0.0,0.0,0.0,0.0,0.0,0.0,0.0,0.0,0.0,0.004455468578244996,0.0016186261304423544,0.004729465486120912,0.0,0.0,0.0,0.0,0.0,0.0,0.0,0.0,0.0,0.016579454466654188,0.07668048305702993,9.808879734118808,0.0,0.0,0.0,0.0,0.0,0.0,0.0,0.0,0.0
2025/04/09 09:59:53.653862401,1744185593,653020152,mA1/imu,-0.7085347864986442,-0.7056757563828122,0.00042780186447976013,1.2666152395131091e-05,0.0,0.0,0.0,0.0,0.0,0.0,0.0,0.0,0.0,0.0017665510098265225,0.0011268891147047646,0.0047750265257402525,0.0,0.0,0.0,0.0,0.0,0.0,0.0,0.0,0.0,0.016469132395449487,-0.024762059612315385,9.811751752950451,0.0,0.0,0.0,0.0,0.0,0.0,0.0,0.0,0.0
2025/04/09 09:59:53.705179850,1744185593,704040102,mA1/imu,-0.7086192906393587,-0.705590874914402,0.0004611917318680817,7.398301995623478e-05,0.0,0.0,0.0,0.0,0.0,0.0,0.0,0.0,0.0,0.0012608771592917973,0.0005706861834762113,0.004795549438924964,0.0,0.0,0.0,0.0,0.0,0.0,0.0,0.0,0.0,0.016758384116766327,0.030609290462920016,9.808354584896444,0.0,0.0,0.0,0.0,0.0,0.0,0.0,0.0,0.0
2025/04/09 09:59:53.754977775,1744185593,753865165,mA1/imu,-0.7087040451627042,-0.7055057331179263,0.0004768911228920507,9.737871409851867e-05,0.0,0.0,0.0,0.0,0.0,0.0,0.0,0.0,0.0,0.0011333815557892177,-1.5121621826992881e-05,0.004810827756543941,0.0,0.0,0.0,0.0,0.0,0.0,0.0,0.0,0.0,0.01639957231924346,0.11984567941619978,9.808303314913118,0.0,0.0,0.0,0.0,0.0,0.0,0.0,0.0,0.0
2025/04/09 09:59:53.806937170,1744185593,804893843,mA1/imu,-0.7087892208408474,-0.705420169821105,0.0004677167465303192,7.530227886244276e-05,0.0,0.0,0.0,0.0,0.0,0.0,0.0,0.0,0.0,-0.0003017033205531651,-0.0005983056730891864,0.004845228182629083,0.0,0.0,0.0,0.0,0.0,0.0,0.0,0.0,0.0,0.01533807600942401,0.12408013447139914,9.808703114726415,0.0,0.0,0.0,0.0,0.0,0.0,0.0,0.0,0.0
2025/04/09 09:59:53.855530465,1744185593,854704192,mA1/imu,-0.7088750455993258,-0.7053339446769977,0.0004425693545432137,1.8582420411258194e-05,0.0,0.0,0.0,0.0,0.0,0.0,0.0,0.0,0.0,-0.004599386912961151,-0.0010734514877879396,0.004882994079386922,0.0,0.0,0.0,0.0,0.0,0.0,0.0,0.0,0.0,0.015578401783864125,0.3537445615411743,9.809913921914477,0.0,0.0,0.0,0.0,0.0,0.0,0.0,0.0,0.0
2025/04/09 09:59:53.908233708,1744185593,905824058,mA1/imu,-0.7089614913267344,-0.7052470693314769,0.0004142235393349368,-5.8600303727610596e-05,0.0,0.0,0.0,0.0,0.0,0.0,0.0,0.0,0.0,-0.0047055094979944175,-0.0015229864645440747,0.004916078107143638,0.0,0.0,0.0,0.0,0.0,0.0,0.0,0.0,0.0,0.014868474146491482,0.6312575806052713,9.808014126744068,0.0,0.0,0.0,0.0,0.0,0.0,0.0,0.0,0.0
2025/04/09 09:59:53.956468846,1744185593,955621710,mA1/imu,-0.7090484834149731,-0.7051596183493736,0.000362030095184827,-0.0001724833402296632,0.0,0.0,0.0,0.0,0.0,0.0,0.0,0.0,0.0,-0.004835164459853289,-0.0018536157584518455,0.00494987165779464,0.0,0.0,0.0,0.0,0.0,0.0,0.0,0.0,0.0,0.014261695084761158,0.06874718157963229,9.809587684649712,0.0,0.0,0.0,0.0,0.0,0.0,0.0,0.0,0.0
2025/04/09 09:59:53.997283181,1744185593,996468460,mA1/imu,0.7091361033910307,0.7050714883269876,-0.00029734317518667467,0.000307900614359174,0.0,0.0,0.0,0.0,0.0,0.0,0.0,0.0,0.0,-0.006065670683197651,-0.0020574020098448153,0.004990274316220311,0.0,0.0,0.0,0.0,0.0,0.0,0.0,0.0,0.0,0.013486946871466385,0.04471047437049839,9.80751664685109,0.0,0.0,0.0,0.0,0.0,0.0,0.0,0.0,0.0
2025/04/09 09:59:54.50973660,1744185594,46920590,mA1/imu,0.7092244447271502,0.7049825724589741,-0.00022208501804650874,0.00045848537346457964,0.0,0.0,0.0,0.0,0.0,0.0,0.0,0.0,0.0,-0.008560376785442062,-0.0021182434457332863,0.005033379828574632,0.0,0.0,0.0,0.0,0.0,0.0,0.0,0.0,0.0,0.012929189833557245,0.5464171713982137,9.808593115714784,0.0,0.0,0.0,0.0,0.0,0.0,0.0,0.0,0.0
2025/04/09 09:59:54.98733728,1744185594,97937945,mA1/imu,0.7093184637150848,0.7048878869071772,-0.00013776560379257833,0.0006041068156637742,0.0,0.0,0.0,0.0,0.0,0.0,0.0,0.0,0.0,-0.007273977345331123,-0.001101250720029319,0.005771455117644559,0.0,0.0,0.0,0.0,0.0,0.0,0.0,0.0,0.0,-0.032187418062896316,0.02747673661296209,9.810474199737971,0.0,0.0,0.0,0.0,0.0,0.0,0.0,0.0,0.0
2025/04/09 09:59:54.148651735,1744185594,147851303,mA1/imu,0.7094248594337077,0.704780691920808,-3.462239743510815e-05,0.0007375055124881824,0.0,0.0,0.0,0.0,0.0,0.0,0.0,0.0,0.0,-0.005950835921196182,-0.0008602636780546431,0.00608482504695109,0.0,0.0,0.0,0.0,0.0,0.0,0.0,0.0,0.0,0.017348288435657992,0.11402985349575033,9.810748688478892,0.0,0.0,0.0,0.0,0.0,0.0,0.0,0.0,0.0
2025/04/09 09:59:54.200124875,1744185594,198839972,mA1/imu,0.7095269910264058,0.704677697686831,6.54653099952833e-05,0.0008871877451126287,0.0,0.0,0.0,0.0,0.0,0.0,0.0,0.0,0.0,-0.005870663856851488,-0.002061439571096745,0.005353979835569918,0.0,0.0,0.0,0.0,0.0,0.0,0.0,0.0,0.0,0.06204887917364189,0.10702006903448635,9.809585117003769,0.0,0.0,0.0,0.0,0.0,0.0,0.0,0.0,0.0
2025/04/09 09:59:54.249603259,1744185594,248635318,mA1/imu,0.7096171581821447,0.7045866707642178,0.00014529193851727998,0.0010445502119996169,0.0,0.0,0.0,0.0,0.0,0.0,0.0,0.0,0.0,-0.006663090712165823,-0.002027586513639888,0.005138691137783286,0.0,0.0,0.0,0.0,0.0,0.0,0.0,0.0,0.0,0.010422948852556532,0.029113208070981656,9.809134232057747,0.0,0.0,0.0,0.0,0.0,0.0,0.0,0.0,0.0
2025/04/09 09:59:54.302068419,1744185594,300333967,mA1/imu,0.7097128484787959,0.7044900654279145,0.0002226718497264864,0.0011708265173393049,0.0,0.0,0.0,0.0,0.0,0.0,0.0,0.0,0.0,-0.004718808621261766,-0.0006209472411764357,0.005872401115534579,0.0,0.0,0.0,0.0,0.0,0.0,0.0,0.0,0.0,-0.03306342965152891,-0.5128204463450333,9.810956794257466,0.0,0.0,0.0,0.0,0.0,0.0,0.0,0.0,0.0
2025/04/09 09:59:54.352169794,1744185594,350151296,mA1/imu,0.7098209694312624,0.7043809437660428,0.00030496016256114484,0.0012587351671485415,0.0,0.0,0.0,0.0,0.0,0.0,0.0,0.0,0.0,-0.004909746549185247,-2.5670537831379323e-05,0.006188361145112022,0.0,0.0,0.0,0.0,0.0,0.0,0.0,0.0,0.0,0.015858109745962128,0.6363172932064807,9.812243595060453,0.0,0.0,0.0,0.0,0.0,0.0,0.0,0.0,0.0
2025/04/09 09:59:54.402042544,1744185594,401085800,mA1/imu,0.7099300296598532,0.7042708741225685,0.00037444330873400003,0.0013223622808293898,0.0,0.0,0.0,0.0,0.0,0.0,0.0,0.0,0.0,-0.0036730827260866425,0.0003268225917810485,0.006170353476737203,0.0,0.0,0.0,0.0,0.0,0.0,0.0,0.0,0.0,0.013304660481601395,0.11098990240932415,9.811856380830505,0.0,0.0,0.0,0.0,0.0,0.0,0.0,0.0,0.0
2025/04/09 09:59:54.451871694,1744185594,450910851,mA1/imu,0.7100386767199539,0.7041612389869807,0.00042853465447477505,0.0013577290404187528,0.0,0.0,0.0,0.0,0.0,0.0,0.0,0.0,0.0,-0.0025716075590887953,0.0006747708780553377,0.006200569729846663,0.0,0.0,0.0,0.0,0.0,0.0,0.0,0.0,0.0,0.012934627836760599,-0.0036592132113144223,9.811003316155503,0.0,0.0,0.0,0.0,0.0,0.0,0.0,0.0,0.0
2025/04/09 09:59:54.502641757,1744185594,501849790,mA1/imu,0.7101467093717034,0.7040522487394318,0.0004627235238579926,0.0013667847055972829,0.0,0.0,0.0,0.0,0.0,0.0,0.0,0.0,0.0,-0.0006015728034926022,0.00057837279841157,0.006013238842779449,0.0,0.0,0.0,0.0,0.0,0.0,0.0,0.0,0.0,0.03713014629102569,-0.602915587173447,9.809263146177527,0.0,0.0,0.0,0.0,0.0,0.0,0.0,0.0,0.0
2025/04/09 09:59:54.554858337,1744185594,552211242,mA1/imu,0.7102512810226356,0.7039467864911232,0.00046739842962254056,0.0013494936954772845,0.0,0.0,0.0,0.0,0.0,0.0,0.0,0.0,0.0,0.0008085556528234594,0.0007516734513183742,0.00594991837932747,0.0,0.0,0.0,0.0,0.0,0.0,0.0,0.0,0.0,0.010777348443715268,-0.5948768621032227,9.812308303027862,0.0,0.0,0.0,0.0,0.0,0.0,0.0,0.0,0.0
2025/04/09 09:59:54.604042856,1744185594,603150504,mA1/imu,0.710355199217505,0.7038420542106305,0.000441217089938011,0.0012880204572285926,0.0,0.0,0.0,0.0,0.0,0.0,0.0,0.0,0.0,0.0029312442778512454,0.0011624940727721913,0.005823446618359969,0.0,0.0,0.0,0.0,0.0,0.0,0.0,0.0,0.0,0.007338627410659604,0.07875544648494467,9.81024951952493,0.0,0.0,0.0,0.0,0.0,0.0,0.0,0.0,0.0
2025/04/09 09:59:54.654259197,1744185594,652943295,mA1/imu,0.7104566624232318,0.7037397790143042,0.0004182238347794083,0.0012162812850981851,0.0,0.0,0.0,0.0,0.0,0.0,0.0,0.0,0.0,0.0044185525647806095,0.0014589210531395346,0.005745623393568323,0.0,0.0,0.0,0.0,0.0,0.0,0.0,0.0,0.0,0.010051501542950236,0.09780362610990312,9.812755164046019,0.0,0.0,0.0,0.0,0.0,0.0,0.0,0.0,0.0
2025/04/09 09:59:54.705136709,1744185594,703861631,mA1/imu,0.7105574629217006,0.703638193653047,0.00037480885685793846,0.0011152745284870047,0.0,0.0,0.0,0.0,0.0,0.0,0.0,0.0,0.0,0.003773218321529767,0.001680795179669799,0.005711015910279009,0.0,0.0,0.0,0.0,0.0,0.0,0.0,0.0,0.0,0.010276321193280261,0.60775655804181,9.811449854209833,0.0,0.0,0.0,0.0,0.0,0.0,0.0,0.0,0.0
2025/04/09 09:59:54.754369663,1744185594,753649107,mA1/imu,0.7106576965109606,0.7035371640758971,0.0003200216458863022,0.0009973664951882747,0.0,0.0,0.0,0.0,0.0,0.0,0.0,0.0,0.0,0.004583268423828002,0.0017950227780310244,0.005679244379911012,0.0,0.0,0.0,0.0,0.0,0.0,0.0,0.0,0.0,0.009942730520484205,-0.02404663679650447,9.810858456732774,0.0,0.0,0.0,0.0,0.0,0.0,0.0,0.0,0.0
2025/04/09 09:59:54.807889437,1744185594,805160340,mA1/imu,0.7107556399988618,0.7034384296350704,0.000241541027014013,0.0008588249452642382,0.0,0.0,0.0,0.0,0.0,0.0,0.0,0.0,0.0,0.006103339904981927,0.001472470860702362,0.005406976090296836,0.0,0.0,0.0,0.0,0.0,0.0,0.0,0.0,0.0,0.026783215332694232,0.033997563435788504,9.810581090537513,0.0,0.0,0.0,0.0,0.0,0.0,0.0,0.0,0.0
2025/04/09 09:59:54.857148102,1744185594,854957608,mA1/imu,0.710848732913335,0.7033445323137196,0.00015523127266466323,0.0007236595561086654,0.0,0.0,0.0,0.0,0.0,0.0,0.0,0.0,0.0,0.006512601463766735,0.001338128434164985,0.005251566211867276,0.0,0.0,0.0,0.0,0.0,0.0,0.0,0.0,0.0,0.008581716003590405,0.23277713018143026,9.81093138510998,0.0,0.0,0.0,0.0,0.0,0.0,0.0,0.0,0.0
2025/04/09 09:59:54.900866117,1744185594,898465284,mA1/imu,0.710940386763883,0.7032520303212766,6.529748337248643e-05,0.0005865605350327905,0.0,0.0,0.0,0.0,0.0,0.0,0.0,0.0,0.0,0.006790572389704044,0.0012609444027419877,0.005179507819234832,0.0,0.0,0.0,0.0,0.0,0.0,0.0,0.0,0.0,0.008946586099519165,0.057043092353599396,9.809244990024693,0.0,0.0,0.0,0.0,0.0,0.0,0.0,0.0,0.0
2025/04/09 09:59:54.950600083,1744185594,948311230,mA1/imu,0.7110308192706564,0.703160695101467,-1.9242540581796764e-05,0.0004588479549149741,0.0,0.0,0.0,0.0,0.0,0.0,0.0,0.0,0.0,0.005083588567012993,0.0011250168992231017,0.005112448709235701,0.0,0.0,0.0,0.0,0.0,0.0,0.0,0.0,0.0,0.008991108987202574,-0.04227403022438449,9.808590007799548,0.0,0.0,0.0,0.0,0.0,0.0,0.0,0.0,0.0
2025/04/09 09:59:55.2885207,1744185594,999631670,mA1/imu,0.7111254644963593,0.7030650456238757,-0.00010106535746249337,0.000324272305723226,0.0,0.0,0.0,0.0,0.0,0.0,0.0,0.0,0.0,0.004827544866243306,0.001990830080305212,0.005801869739621993,0.0,0.0,0.0,0.0,0.0,0.0,0.0,0.0,0.0,-0.03430739583428852,-0.030798642714731303,9.809710110987236,0.0,0.0,0.0,0.0,0.0,0.0,0.0,0.0,0.0
2025/04/09 09:59:55.51434062,1744185595,49757239,mA1/imu,0.7112316371103243,0.7029576770189657,-0.00016643685854758695,0.0001870621273318971,0.0,0.0,0.0,0.0,0.0,0.0,0.0,0.0,0.0,0.005213759269892918,0.0018021923827138357,0.0060483739800712985,0.0,0.0,0.0,0.0,0.0,0.0,0.0,0.0,0.0,0.014158692005576196,0.04971368314380495,9.80987713141883,0.0,0.0,0.0,0.0,0.0,0.0,0.0,0.0,0.0
2025/04/09 09:59:55.102542591,1744185595,100677159,mA1/imu,-0.7113381503102018,-0.7028498999640208,0.00021631594620791624,-8.509546500059572e-05,0.0,0.0,0.0,0.0,0.0,0.0,0.0,0.0,0.0,0.0038728207438843555,0.001206861998798802,0.006067887492962739,0.0,0.0,0.0,0.0,0.0,0.0,0.0,0.0,0.0,0.014267465325007837,0.6617317031860535,9.808835265792258,0.0,0.0,0.0,0.0,0.0,0.0,0.0,0.0,0.0
2025/04/09 09:59:55.153465941,1744185595,150508993,mA1/imu,-0.7114449793348658,-0.7027417566964463,0.0002538807887704747,-1.7859178039220688e-05,0.0,0.0,0.0,0.0,0.0,0.0,0.0,0.0,0.0,0.002999684494890394,0.000559027481140692,0.0060874781772755964,0.0,0.0,0.0,0.0,0.0,0.0,0.0,0.0,0.0,0.014201658430907428,0.05774976172877583,9.806524577096827,0.0,0.0,0.0,0.0,0.0,0.0,0.0,0.0,0.0
2025/04/09 09:59:55.199958968,1744185595,196612155,mA1/imu,-0.7115521626792446,-0.7026332186211482,0.00028214785094288685,1.6406271071540897e-05,0.0,0.0,0.0,0.0,0.0,0.0,0.0,0.0,0.0,0.0014727324406395863,-0.00011453989769530104,0.006110229019897581,0.0,0.0,0.0,0.0,0.0,0.0,0.0,0.0,0.0,0.01450872913802576,-0.1988111927929362,9.807933059326949,0.0,0.0,0.0,0.0,0.0,0.0,0.0,0.0,0.0
2025/04/09 09:59:55.246961384,1744185595,246230935,mA1/imu,-0.7116597089922637,-0.7025242843956576,0.00029706528559418903,1.3551069290059794e-05,0.0,0.0,0.0,0.0,0.0,0.0,0.0,0.0,0.0,-0.0011905746953490724,-0.0007547282846736431,0.006132359644165503,0.0,0.0,0.0,0.0,0.0,0.0,0.0,0.0,0.0,0.01458725808057288,0.5878127013115703,9.808738975289414,0.0,0.0,0.0,0.0,0.0,0.0,0.0,0.0,0.0
2025/04/09 09:59:55.298255950,1744185595,297412022,mA1/imu,-0.7117727462112328,-0.7024097605316335,0.00029293173182984674,-1.5868644209507236e-05,0.0,0.0,0.0,0.0,0.0,0.0,0.0,0.0,0.0,-0.001983207247834238,-0.0003441137537888835,0.0068775224486952,0.0,0.0,0.0,0.0,0.0,0.0,0.0,0.0,0.0,-0.03498064791698649,0.002981572005218409,9.805137887372414,0.0,0.0,0.0,0.0,0.0,0.0,0.0,0.0,0.0
2025/04/09 09:59:55.349434215,1744185595,347666853,mA1/imu,-0.7118985212237163,-0.7022822955348536,0.0002623951833342733,-6.329731441924994e-05,0.0,0.0,0.0,0.0,0.0,0.0,0.0,0.0,0.0,-0.0019665925316494992,-0.0007606504086363003,0.007203448788637217,0.0,0.0,0.0,0.0,0.0,0.0,0.0,0.0,0.0,0.01817335783152126,-0.5367515554555446,9.806945059728765,0.0,0.0,0.0,0.0,0.0,0.0,0.0,0.0,0.0
2025/04/09 09:59:55.399613102,1744185595,398587319,mA1/imu,-0.7120205335115306,-0.7021585887029972,0.00022809765861708288,-0.00015537061662896764,0.0,0.0,0.0,0.0,0.0,0.0,0.0,0.0,0.0,-0.0035866535460304457,-0.0024920044860427416,0.006527269871942067,0.0,0.0,0.0,0.0,0.0,0.0,0.0,0.0,0.0,0.06635820657906576,0.06127695467305647,9.810835790624868,0.0,0.0,0.0,0.0,0.0,0.0,0.0,0.0,0.0
2025/04/09 09:59:55.451656792,1744185595,448370041,mA1/imu,0.7121310854421086,0.7020464309884339,-0.00019614352323839485,0.0002956537915443215,0.0,0.0,0.0,0.0,0.0,0.0,0.0,0.0,0.0,-0.005629133172887651,-0.0031423070052651893,0.00631316385004644,0.0,0.0,0.0,0.0,0.0,0.0,0.0,0.0,0.0,0.011852370658581156,0.6364119382975435,9.81005897116093,0.0,0.0,0.0,0.0,0.0,0.0,0.0,0.0,0.0
2025/04/09 09:59:55.500643011,1744185595,499319181,mA1/imu,0.7122421142839175,0.7019337116195268,-0.0001453923860249138,0.0004625942756140564,0.0,0.0,0.0,0.0,0.0,0.0,0.0,0.0,0.0,-0.007255768718145636,-0.003281220529673683,0.006341947085996554,0.0,0.0,0.0,0.0,0.0,0.0,0.0,0.0,0.0,0.010791463195247195,0.3178716940732944,9.809907226174564,0.0,0.0,0.0,0.0,0.0,0.0,0.0,0.0,0.0
2025/04/09 09:59:55.550839573,1744185595,549086653,mA1/imu,0.7123536045079039,0.7018204436386258,-9.365380077394609e-05,0.0006310819637100041,0.0,0.0,0.0,0.0,0.0,0.0,0.0,0.0,0.0,-0.0060684731244505475,-0.003215599175120179,0.006370769344663897,0.0,0.0,0.0,0.0,0.0,0.0,0.0,0.0,0.0,0.009702422936636094,-0.36107088667533727,9.809235141945091,0.0,0.0,0.0,0.0,0.0,0.0,0.0,0.0,0.0
2025/04/09 09:59:55.602029920,1744185595,600059256,mA1/imu,0.7124655526591583,0.7017066245897768,-2.9549837027982486e-05,0.0008052376724738369,0.0,0.0,0.0,0.0,0.0,0.0,0.0,0.0,0.0,-0.007773303476814689,-0.002941078332760061,0.006400102819654918,0.0,0.0,0.0,0.0,0.0,0.0,0.0,0.0,0.0,0.008883056229807493,0.5934726124949391,9.810445351156094,0.0,0.0,0.0,0.0,0.0,0.0,0.0,0.0,0.0
2025/04/09 09:59:55.651408427,1744185595,649853977,mA1/imu,0.7125780039166415,0.7015922193353811,3.90953219984128e-05,0.0009718918587231567,0.0,0.0,0.0,0.0,0.0,0.0,0.0,0.0,0.0,-0.005827827315209937,-0.0025419438852277644,0.006431587458005473,0.0,0.0,0.0,0.0,0.0,0.0,0.0,0.0,0.0,0.00810719641242425,0.23787421748591925,9.81110513435969,0.0,0.0,0.0,0.0,0.0,0.0,0.0,0.0,0.0
2025/04/09 09:59:55.703862339,1744185595,700774091,mA1/imu,0.7126957600058552,0.7014723606380614,0.00012551732153479077,0.0011248004017838284,0.0,0.0,0.0,0.0,0.0,0.0,0.0,0.0,0.0,-0.006031010797550631,-0.0010544081434331804,0.007153286244413858,0.0,0.0,0.0,0.0,0.0,0.0,0.0,0.0,0.0,-0.040990397157629276,0.06342489849502392,9.807645654641535,0.0,0.0,0.0,0.0,0.0,0.0,0.0,0.0,0.0
2025/04/09 09:59:55.751457104,1744185595,750675285,mA1/imu,0.7128260967540861,0.701339698777662,0.00022204746588570302,0.0012383051787897433,0.0,0.0,0.0,0.0,0.0,0.0,0.0,0.0,0.0,-0.0038240743218910843,-0.00026553393977463716,0.0074816656696222675,0.0,0.0,0.0,0.0,0.0,0.0,0.0,0.0,0.0,0.01282045194104906,-0.47259574380904984,9.81117909030503,0.0,0.0,0.0,0.0,0.0,0.0,0.0,0.0,0.0
2025/04/09 09:59:55.802878029,1744185595,801776081,mA1/imu,0.7129571206810346,0.7012062822077365,0.00032190546047720177,0.0013379983137412803,0.0,0.0,0.0,0.0,0.0,0.0,0.0,0.0,0.0,-0.004620378896918401,0.00022989186376607724,0.007444137618779035,0.0,0.0,0.0,0.0,0.0,0.0,0.0,0.0,0.0,0.010964946381466133,0.03903763402486531,9.81320873494575,0.0,0.0,0.0,0.0,0.0,0.0,0.0,0.0,0.0
2025/04/09 09:59:55.854501635,1744185595,851626912,mA1/imu,0.713087501657425,0.7010735113581703,0.00040936259264624786,0.001406795708365893,0.0,0.0,0.0,0.0,0.0,0.0,0.0,0.0,0.0,-0.003837772618843557,0.0007656052235366948,0.007471858754291079,0.0,0.0,0.0,0.0,0.0,0.0,0.0,0.0,0.0,0.010329082695511646,-0.41953314748729903,9.812939039663581,0.0,0.0,0.0,0.0,0.0,0.0,0.0,0.0,0.0
2025/04/09 09:59:55.904622339,1744185595,902596358,mA1/imu,0.7132198284679001,0.7009387786313116,0.00048022857731865065,0.0014402331678395445,0.0,0.0,0.0,0.0,0.0,0.0,0.0,0.0,0.0,-0.003261147148271486,0.001271422819180263,0.007647051712897207,0.0,0.0,0.0,0.0,0.0,0.0,0.0,0.0,0.0,0.012545115179191714,0.2358344953814236,9.81394057207331,0.0,0.0,0.0,0.0,0.0,0.0,0.0,0.0,0.0
2025/04/09 09:59:55.954316052,1744185595,952439048,mA1/imu,0.7133553321722689,0.7008008340614592,0.0005332019757148907,0.001441088410982714,0.0,0.0,0.0,0.0,0.0,0.0,0.0,0.0,0.0,-0.001215882435781096,0.001612937865277394,0.007782108321036232,0.0,0.0,0.0,0.0,0.0,0.0,0.0,0.0,0.0,0.01243750183071791,0.01329413730690655,9.810910913748707,0.0,0.0,0.0,0.0,0.0,0.0,0.0,0.0,0.0
2025/04/09 09:59:56.4751217,1744185596,3417789,mA1/imu,0.713492780773583,0.7006609231467432,0.0005685009645833223,0.0014139893163854092,0.0,0.0,0.0,0.0,0.0,0.0,0.0,0.0,0.0,0.0003797152023324297,0.0018418634207730577,0.007889838960978965,0.0,0.0,0.0,0.0,0.0,0.0,0.0,0.0,0.0,0.01329375112227986,0.2626230885695719,9.811657475638873,0.0,0.0,0.0,0.0,0.0,0.0,0.0,0.0,0.0
2025/04/09 09:59:56.54963949,1744185596,53269313,mA1/imu,0.7136320922971104,0.7005191299515053,0.0005824721896882907,0.0013587280017412972,0.0,0.0,0.0,0.0,0.0,0.0,0.0,0.0,0.0,0.0025810064704391393,0.001975602898179473,0.007995080455335361,0.0,0.0,0.0,0.0,0.0,0.0,0.0,0.0,0.0,0.01382944508020567,0.07624936132258274,9.812519081182334,0.0,0.0,0.0,0.0,0.0,0.0,0.0,0.0,0.0
2025/04/09 09:59:56.107484556,1744185596,105943099,mA1/imu,0.7137731631726579,0.7003755459389607,0.000574787318499896,0.0012789858245215952,0.0,0.0,0.0,0.0,0.0,0.0,0.0,0.0,0.0,0.00387138929277083,0.002001273662539127,0.008091965361793628,0.0,0.0,0.0,0.0,0.0,0.0,0.0,0.0,0.0,0.013728120042162853,0.07604963770265147,9.812569626683244,0.0,0.0,0.0,0.0,0.0,0.0,0.0,0.0,0.0
2025/04/09 09:59:56.157683553,1744185596,155719323,mA1/imu,0.7139158873942081,0.7002302541597902,0.000548375362527056,0.0011815963430230035,0.0,0.0,0.0,0.0,0.0,0.0,0.0,0.0,0.0,0.005104632035990966,0.0018996181748415786,0.008185016671857708,0.0,0.0,0.0,0.0,0.0,0.0,0.0,0.0,0.0,0.01445323719676737,-0.5501023533178812,9.810430683920652,0.0,0.0,0.0,0.0,0.0,0.0,0.0,0.0,0.0
2025/04/09 09:59:56.197435304,1744185596,196540232,mA1/imu,0.714060284013381,0.70008323992477,0.0004929773879502831,0.0010606339904134171,0.0,0.0,0.0,0.0,0.0,0.0,0.0,0.0,0.0,0.0054306528675439735,0.0017096435805272197,0.008281791922387923,0.0,0.0,0.0,0.0,0.0,0.0,0.0,0.0,0.0,0.014269831145231419,0.30013891287637473,9.810833719453296,0.0,0.0,0.0,0.0,0.0,0.0,0.0,0.0,0.0
2025/04/09 09:59:56.250681481,1744185596,246562819,mA1/imu,0.714206334805384,0.6999344549712782,0.0004296324180888266,0.0009410015435480463,0.0,0.0,0.0,0.0,0.0,0.0,0.0,0.0,0.0,0.004423758533748768,0.0014040204710447039,0.008377937346642194,0.0,0.0,0.0,0.0,0.0,0.0,0.0,0.0,0.0,0.014766172471986715,0.5373590503227245,9.810950993010499,0.0,0.0,0.0,0.0,0.0,0.0,0.0,0.0,0.0
2025/04/09 09:59:56.304306934,1744185596,300907794,mA1/imu,0.714353993657778,0.6997839682473143,0.0003407534045892075,0.0008083417238208654,0.0,0.0,0.0,0.0,0.0,0.0,0.0,0.0,0.0,0.006444186052449349,0.001015155051914021,0.008467059891670571,0.0,0.0,0.0,0.0,0.0,0.0,0.0,0.0,0.0,0.014943778956747832,-0.4250829662284464,9.809498261414243,0.0,0.0,0.0,0.0,0.0,0.0,0.0,0.0,0.0
2025/04/09 09:59:56.360135454,1744185596,355059507,mA1/imu,0.714503126699065,0.6996318738626593,0.0002429143748409294,0.000681179337903662,0.0,0.0,0.0,0.0,0.0,0.0,0.0,0.0,0.0,0.006358549408175937,0.0005862622349325086,0.008553368315352234,0.0,0.0,0.0,0.0,0.0,0.0,0.0,0.0,0.0,0.014537317268169873,0.02081483986210167,9.809368704121754,0.0,0.0,0.0,0.0,0.0,0.0,0.0,0.0,0.0
2025/04/09 09:59:56.404095516,1744185596,400338237,mA1/imu,0.7146527945672505,0.6994791264973029,0.00013784299794047188,0.000561970726363761,0.0,0.0,0.0,0.0,0.0,0.0,0.0,0.0,0.0,0.006359198895460825,0.00017267099525649976,0.008508782399813323,0.0,0.0,0.0,0.0,0.0,0.0,0.0,0.0,0.0,0.011313022240081596,0.019904619397883502,9.806258231569105,0.0,0.0,0.0,0.0,0.0,0.0,0.0,0.0,0.0
2025/04/09 09:59:56.451430172,1744185596,449596294,mA1/imu,0.714801631679681,0.6993271159989765,3.594226517239637e-05,0.0004592219216067618,0.0,0.0,0.0,0.0,0.0,0.0,0.0,0.0,0.0,0.005405654965467336,-0.0001945459482311536,0.008531217376976211,0.0,0.0,0.0,0.0,0.0,0.0,0.0,0.0,0.0,0.012326347059053513,-0.0077152985305270275,9.806452157064598,0.0,0.0,0.0,0.0,0.0,0.0,0.0,0.0,0.0
2025/04/09 09:59:56.512100039,1744185596,505955088,mA1/imu,0.7149521673957201,0.6991732665653732,-6.53131485191326e-05,0.0003706624614743896,0.0,0.0,0.0,0.0,0.0,0.0,0.0,0.0,0.0,0.005099641250645718,-0.000576968714601879,0.008691185221735486,0.0,0.0,0.0,0.0,0.0,0.0,0.0,0.0,0.0,0.013676577533631235,-0.2920604460150469,9.80759682277884,0.0,0.0,0.0,0.0,0.0,0.0,0.0,0.0,0.0
2025/04/09 09:59:56.551325497,1744185596,549845800,mA1/imu,0.7151056707128983,0.6990162818429114,-0.00015905025549439408,0.00030353876763175965,0.0,0.0,0.0,0.0,0.0,0.0,0.0,0.0,0.0,0.004570959964974583,-0.0009559734590182708,0.008824194949660712,0.0,0.0,0.0,0.0,0.0,0.0,0.0,0.0,0.0,0.013632767760198203,-0.17778578388125563,9.808287523965841,0.0,0.0,0.0,0.0,0.0,0.0,0.0,0.0,0.0
2025/04/09 09:59:56.601679563,1744185596,600788419,mA1/imu,0.7152609934654555,0.6988573424747667,-0.00023885755167482185,0.00026276032100977135,0.0,0.0,0.0,0.0,0.0,0.0,0.0,0.0,0.0,0.0028248854493807783,-0.0012687622458843685,0.008930777566449272,0.0,0.0,0.0,0.0,0.0,0.0,0.0,0.0,0.0,0.012784984071805167,-0.037792826048020194,9.807204441330734,0.0,0.0,0.0,0.0,0.0,0.0,0.0,0.0,0.0
2025/04/09 09:59:56.651538066,1744185596,650668270,mA1/imu,-0.7154181259562488,-0.6986964663538976,0.00030105790343661293,-0.00024964367480291376,0.0,0.0,0.0,0.0,0.0,0.0,0.0,0.0,0.0,0.001507923021959698,-0.0015022359986362449,0.00903672252524134,0.0,0.0,0.0,0.0,0.0,0.0,0.0,0.0,0.0,0.012645958185917124,-0.07560830234558603,9.808028157879455,0.0,0.0,0.0,0.0,0.0,0.0,0.0,0.0,0.0
2025/04/09 09:59:56.703443989,1744185596,701622320,mA1/imu,-0.7155769397594908,-0.6985337896256414,0.00034934365456498116,-0.00025689432364337477,0.0,0.0,0.0,0.0,0.0,0.0,0.0,0.0,0.0,0.00038984494082848514,-0.001622393568640859,0.009129958668812999,0.0,0.0,0.0,0.0,0.0,0.0,0.0,0.0,0.0,0.011583931131564654,0.015163235816072125,9.81006255647171,0.0,0.0,0.0,0.0,0.0,0.0,0.0,0.0,0.0
2025/04/09 09:59:56.752524527,1744185596,751476490,mA1/imu,-0.7157372631370039,-0.698369490960223,0.00037316549569155617,-0.0002915486628542494,0.0,0.0,0.0,0.0,0.0,0.0,0.0,0.0,0.0,0.0010179831966347908,-0.0016658663688721327,0.00921763130494698,0.0,0.0,0.0,0.0,0.0,0.0,0.0,0.0,0.0,0.011514720995812447,-0.4784099722202093,9.808962790415176,0.0,0.0,0.0,0.0,0.0,0.0,0.0,0.0,0.0
2025/04/09 09:59:56.804499467,1744185596,802402538,mA1/imu,-0.7158992116493514,-0.6982034502798433,0.0003700103679238763,-0.0003519509731495401,0.0,0.0,0.0,0.0,0.0,0.0,0.0,0.0,0.0,-0.000642676307408764,-0.0015607675442890264,0.009321590986047212,0.0,0.0,0.0,0.0,0.0,0.0,0.0,0.0,0.0,0.009744280508610646,-0.4108781941069757,9.807871362968305,0.0,0.0,0.0,0.0,0.0,0.0,0.0,0.0,0.0
2025/04/09 09:59:56.852950671,1744185596,852239213,mA1/imu,0.7160629884180705,0.6980354514321766,-0.00033897804750853983,0.0004361829241632785,0.0,0.0,0.0,0.0,0.0,0.0,0.0,0.0,0.0,-0.0026623541901082495,-0.0014139563556009424,0.009429975974257812,0.0,0.0,0.0,0.0,0.0,0.0,0.0,0.0,0.0,0.011152897241102949,-0.3034295833063355,9.81080815990844,0.0,0.0,0.0,0.0,0.0,0.0,0.0,0.0,0.0
2025/04/09 09:59:56.904383338,1744185596,903276561,mA1/imu,0.716228604222085,0.697865472696615,-0.0002855948354542812,0.0005356749050738747,0.0,0.0,0.0,0.0,0.0,0.0,0.0,0.0,0.0,-0.003705814877150042,-0.0011502080530873026,0.009540140576021212,0.0,0.0,0.0,0.0,0.0,0.0,0.0,0.0,0.0,0.009620722626918831,-0.5536065856201892,9.811668680694579,0.0,0.0,0.0,0.0,0.0,0.0,0.0,0.0,0.0
2025/04/09 09:59:56.955443378,1744185596,954542079,mA1/imu,0.7163960763878989,0.6976934845250293,-0.00020977311378364932,0.0006475975501236215,0.0,0.0,0.0,0.0,0.0,0.0,0.0,0.0,0.0,-0.005830574543208357,-0.0008240760519244747,0.009647928236005045,0.0,0.0,0.0,0.0,0.0,0.0,0.0,0.0,0.0,0.009972476528236227,-0.17386832640880392,9.80976328785014,0.0,0.0,0.0,0.0,0.0,0.0,0.0,0.0,0.0
2025/04/09 09:59:57.6327028,1744185597,5478189,mA1/imu,0.7165643248925117,0.69752059076678,-0.00011847558662641747,0.0007613877046447807,0.0,0.0,0.0,0.0,0.0,0.0,0.0,0.0,0.0,-0.006102540212252896,-0.0003733094578711699,0.00960841068705902,0.0,0.0,0.0,0.0,0.0,0.0,0.0,0.0,0.0,0.00900343579704278,-0.40906423680586296,9.80998752508283,0.0,0.0,0.0,0.0,0.0,0.0,0.0,0.0,0.0
2025/04/09 09:59:57.56170843,1744185597,55281447,mA1/imu,0.7167316229765907,0.6973485568651979,-9.012860343950136e-06,0.0008779419892783696,0.0,0.0,0.0,0.0,0.0,0.0,0.0,0.0,0.0,-0.0075929354511622615,6.394702644050959e-05,0.009624481422411908,0.0,0.0,0.0,0.0,0.0,0.0,0.0,0.0,0.0,0.0081178484621888,0.32263043773393724,9.813032228662166,0.0,0.0,0.0,0.0,0.0,0.0,0.0,0.0,0.0
2025/04/09 09:59:57.107112823,1744185597,106214101,mA1/imu,0.7168998124122957,0.6971754969340004,0.00010832710031184316,0.0009867640469202288,0.0,0.0,0.0,0.0,0.0,0.0,0.0,0.0,0.0,-0.007330421867648723,0.0005119970078315805,0.009678865656495578,0.0,0.0,0.0,0.0,0.0,0.0,0.0,0.0,0.0,0.008036543599309809,0.4848843102976356,9.812611946227547,0.0,0.0,0.0,0.0,0.0,0.0,0.0,0.0,0.0
2025/04/09 09:59:57.149035377,1744185597,146921029,mA1/imu,0.7170688669319794,0.6970014427369564,0.0002305568211699422,0.001084316854488979,0.0,0.0,0.0,0.0,0.0,0.0,0.0,0.0,0.0,-0.006356271318357073,0.0009556695402688335,0.009731066599826555,0.0,0.0,0.0,0.0,0.0,0.0,0.0,0.0,0.0,0.0073191104563360915,0.002319209690513642,9.812234650048879,0.0,0.0,0.0,0.0,0.0,0.0,0.0,0.0,0.0
2025/04/09 09:59:57.198721664,1744185597,197853110,mA1/imu,0.7172333926056098,0.6968319413320598,0.0003481451912681137,0.0011768031975128495,0.0,0.0,0.0,0.0,0.0,0.0,0.0,0.0,0.0,-0.005208431076283859,0.0003664666870153125,0.009005615263180852,0.0,0.0,0.0,0.0,0.0,0.0,0.0,0.0,0.0,0.05989468889596572,0.1398656764482804,9.817047840441141,0.0,0.0,0.0,0.0,0.0,0.0,0.0,0.0,0.0
2025/04/09 09:59:57.252705197,1744185597,249993999,mA1/imu,0.7173852486749127,0.6966753852225416,0.00044967227932947234,0.0012690167446069074,0.0,0.0,0.0,0.0,0.0,0.0,0.0,0.0,0.0,-0.00579115437287669,0.0005214019511614882,0.00871414858179855,0.0,0.0,0.0,0.0,0.0,0.0,0.0,0.0,0.0,0.004221369974271605,0.5764349570242536,9.813379717275415,0.0,0.0,0.0,0.0,0.0,0.0,0.0,0.0,0.0
2025/04/09 09:59:57.302094326,1744185597,300958196,mA1/imu,0.7175415205153547,0.696514267122499,0.0005427961399651748,0.0013218939712506537,0.0,0.0,0.0,0.0,0.0,0.0,0.0,0.0,0.0,-0.003005301911147217,0.001939304983602338,0.009387175834068114,0.0,0.0,0.0,0.0,0.0,0.0,0.0,0.0,0.0,-0.042408294950509226,-0.16860028944757105,9.81150117935812,0.0,0.0,0.0,0.0,0.0,0.0,0.0,0.0,0.0
2025/04/09 09:59:57.352678196,1744185597,350857258,mA1/imu,0.7177101582081667,0.6963403838453749,0.0006404360214810386,0.0013373378729068677,0.0,0.0,0.0,0.0,0.0,0.0,0.0,0.0,0.0,-0.0016711480448918378,0.0023705411078611626,0.009784261453201359,0.0,0.0,0.0,0.0,0.0,0.0,0.0,0.0,0.0,0.011717012991275746,-0.18146572392653929,9.812035392181981,0.0,0.0,0.0,0.0,0.0,0.0,0.0,0.0,0.0
2025/04/09 09:59:57.404577579,1744185597,402181069,mA1/imu,0.7178832483081541,0.6961618767664506,0.0007198222000131855,0.0013285298441901526,0.0,0.0,0.0,0.0,0.0,0.0,0.0,0.0,0.0,-0.0022423350742599366,0.0026727616322359663,0.010142899782295746,0.0,0.0,0.0,0.0,0.0,0.0,0.0,0.0,0.0,-0.003628415570544474,0.2303657143322245,9.811379416991167,0.0,0.0,0.0,0.0,0.0,0.0,0.0,0.0,0.0
2025/04/09 09:59:57.453287243,1744185597,451917508,mA1/imu,0.7180626083407476,0.6959768974958387,0.0007708191401532411,0.001286270889846195,0.0,0.0,0.0,0.0,0.0,0.0,0.0,0.0,0.0,0.0006608981758845792,0.0025131325703340642,0.010373503372914024,0.0,0.0,0.0,0.0,0.0,0.0,0.0,0.0,0.0,0.013882575080376155,0.0651012953196588,9.810629018234751,0.0,0.0,0.0,0.0,0.0,0.0,0.0,0.0,0.0
2025/04/09 09:59:57.506282874,1744185597,502855014,mA1/imu,0.7182467398615151,0.6957869299668047,0.000803551114690576,0.001234127740573187,0.0,0.0,0.0,0.0,0.0,0.0,0.0,0.0,0.0,0.0004305022558838761,0.002352446601689673,0.010817472193176282,0.0,0.0,0.0,0.0,0.0,0.0,0.0,0.0,0.0,0.0013125971204421757,0.5717586047963681,9.81092148847582,0.0,0.0,0.0,0.0,0.0,0.0,0.0,0.0,0.0
2025/04/09 09:59:57.555460269,1744185597,553518996,mA1/imu,0.7184384344691545,0.6955891207208779,0.0008044137346168632,0.001159280298324866,0.0,0.0,0.0,0.0,0.0,0.0,0.0,0.0,0.0,0.0027544948070916415,0.0018435403640272364,0.011101387114148261,0.0,0.0,0.0,0.0,0.0,0.0,0.0,0.0,0.0,0.016374067295253526,0.20992553506802175,9.809559209119941,0.0,0.0,0.0,0.0,0.0,0.0,0.0,0.0,0.0
2025/04/09 09:59:57.605954411,1744185597,604400111,mA1/imu,0.7186335807354949,0.695387673727928,0.0007747189204875832,0.0010768830650892988,0.0,0.0,0.0,0.0,0.0,0.0,0.0,0.0,0.0,0.003637382102884877,0.0011315485688500543,0.011297595668052104,0.0,0.0,0.0,0.0,0.0,0.0,0.0,0.0,0.0,0.016883619648694757,-0.00199719221348112,9.807914732159757,0.0,0.0,0.0,0.0,0.0,0.0,0.0,0.0,0.0
2025/04/09 09:59:57.656348335,1744185597,655532539,mA1/imu,0.7188320574311027,0.6951827034571636,0.000712294293486357,0.0009872488017108384,0.0,0.0,0.0,0.0,0.0,0.0,0.0,0.0,0.0,0.005474809636012787,0.00037430130873893796,0.011488754383059565,0.0,0.0,0.0,0.0,0.0,0.0,0.0,0.0,0.0,0.01641056330048872,-0.41764088178061093,9.80642458062302,0.0,0.0,0.0,0.0,0.0,0.0,0.0,0.0,0.0
2025/04/09 09:59:57.697638120,1744185597,696719615,mA1/imu,0.7190338478250625,0.6949741851432838,0.0006279631254066959,0.0009018473410106556,0.0,0.0,0.0,0.0,0.0,0.0,0.0,0.0,0.0,0.0034385331165601874,-0.00036876994789245736,0.011684016139601123,0.0,0.0,0.0,0.0,0.0,0.0,0.0,0.0,0.0,0.01698192803228582,0.24671716998176746,9.80848256955741,0.0,0.0,0.0,0.0,0.0,0.0,0.0,0.0,0.0
2025/04/09 09:59:57.746982451,1744185597,746558900,mA1/imu,0.719238992261885,0.6947620863730705,0.0005104687490591159,0.0008091787826874412,0.0,0.0,0.0,0.0,0.0,0.0,0.0,0.0,0.0,0.005381357322900147,-0.0010823136263287784,0.011879171775245998,0.0,0.0,0.0,0.0,0.0,0.0,0.0,0.0,0.0,0.014827993068236178,-0.02504214875162625,9.808386688212885,0.0,0.0,0.0,0.0,0.0,0.0,0.0,0.0,0.0
2025/04/09 09:59:57.799010930,1744185597,798335394,mA1/imu,0.7194473470147719,0.69454650642343,0.00037669171265557774,0.0007234582008144142,0.0,0.0,0.0,0.0,0.0,0.0,0.0,0.0,0.0,0.005938936841796767,-0.0017115412752081519,0.012061827041164846,0.0,0.0,0.0,0.0,0.0,0.0,0.0,0.0,0.0,0.01425904436760055,0.6279979054866985,9.808963209578506,0.0,0.0,0.0,0.0,0.0,0.0,0.0,0.0,0.0
2025/04/09 09:59:57.849097570,1744185597,848113644,mA1/imu,0.7196586955083697,0.6943276534152657,0.00023187368958644804,0.0006464647200712039,0.0,0.0,0.0,0.0,0.0,0.0,0.0,0.0,0.0,0.007484188966885532,-0.002236786015720626,0.012235392795348235,0.0,0.0,0.0,0.0,0.0,0.0,0.0,0.0,0.0,0.013920664277021141,0.11016403741305938,9.807805577697572,0.0,0.0,0.0,0.0,0.0,0.0,0.0,0.0,0.0
2025/04/09 09:59:57.901270707,1744185597,899329020,mA1/imu,0.719872615841832,0.694105928596186,0.00010542347270707004,0.0006047599160465603,0.0,0.0,0.0,0.0,0.0,0.0,0.0,0.0,0.0,0.006198575211965801,-0.0026905706380742664,0.012364762975141625,0.0,0.0,0.0,0.0,0.0,0.0,0.0,0.0,0.0,0.015730553645575115,-0.5793092476306868,9.8074315140487,0.0,0.0,0.0,0.0,0.0,0.0,0.0,0.0,0.0
2025/04/09 09:59:57.949848337,1744185597,948970178,mA1/imu,0.7200887131482605,0.6938817860431864,-3.794447305965735e-05,0.0005574533313417258,0.0,0.0,0.0,0.0,0.0,0.0,0.0,0.0,0.0,0.0036053390626431267,-0.002873566517807883,0.012515173337903161,0.0,0.0,0.0,0.0,0.0,0.0,0.0,0.0,0.0,0.01224435925626635,-0.08544919108516155,9.808421442119634,0.0,0.0,0.0,0.0,0.0,0.0,0.0,0.0,0.0
2025/04/09 09:59:58.1547422,1744185597,999935685,mA1/imu,0.7203065535008346,0.6936556537394424,-0.0001700046578781704,0.0005235622908614584,0.0,0.0,0.0,0.0,0.0,0.0,0.0,0.0,0.0,0.003853274522658074,-0.00280473896489731,0.012535862983838282,0.0,0.0,0.0,0.0,0.0,0.0,0.0,0.0,0.0,0.009029505745671733,-0.2899503228397021,9.810010590817033,0.0,0.0,0.0,0.0,0.0,0.0,0.0,0.0,0.0
2025/04/09 09:59:58.53003692,1744185598,51307803,mA1/imu,0.7205245566022079,0.6934291800424207,-0.0002784815746184093,0.0005079831693805033,0.0,0.0,0.0,0.0,0.0,0.0,0.0,0.0,0.0,0.0033441354939702387,-0.002609143987178629,0.012623653960477241,0.0,0.0,0.0,0.0,0.0,0.0,0.0,0.0,0.0,0.00924047787046929,-0.404594824406466,9.810651899317499,0.0,0.0,0.0,0.0,0.0,0.0,0.0,0.0,0.0
2025/04/09 09:59:58.103218975,1744185598,102248436,mA1/imu,0.7207466066217716,0.6931983436284735,-0.00036073532767242624,0.0005052761276110834,0.0,0.0,0.0,0.0,0.0,0.0,0.0,0.0,0.0,0.0025106594072824683,-0.0020132933647055338,0.013025717001869035,0.0,0.0,0.0,0.0,0.0,0.0,0.0,0.0,0.0,-0.003929655882604228,-0.578437452155927,9.809712691505931,0.0,0.0,0.0,0.0,0.0,0.0,0.0,0.0,0.0
2025/04/09 09:59:58.155083115,1744185598,153087420,mA1/imu,0.7209766863625675,0.6929590056631995,-0.00040959559834966117,0.0005161621524079612,0.0,0.0,0.0,0.0,0.0,0.0,0.0,0.0,0.0,0.001072910764955989,-0.0015764621587410742,0.013412759194187069,0.0,0.0,0.0,0.0,0.0,0.0,0.0,0.0,0.0,0.012184957031760979,-0.34966433796046253,9.811171085131472,0.0,0.0,0.0,0.0,0.0,0.0,0.0,0.0,0.0
2025/04/09 09:59:58.205156799,1744185598,204066580,mA1/imu,0.721208977193869,0.6927172071286001,-0.00043436569565562905,0.000541746590363103,0.0,0.0,0.0,0.0,0.0,0.0,0.0,0.0,0.0,0.0002967186062190175,-0.0013868386629186105,0.013313713090376862,0.0,0.0,0.0,0.0,0.0,0.0,0.0,0.0,0.0,0.020675757813019374,-0.14532631117496023,9.81186058838137,0.0,0.0,0.0,0.0,0.0,0.0,0.0,0.0,0.0
2025/04/09 09:59:58.254755495,1744185598,253839890,mA1/imu,0.7214380727138213,0.6924785765230232,-0.0004251445710673777,0.0005895317703282343,0.0,0.0,0.0,0.0,0.0,0.0,0.0,0.0,0.0,-0.0010359392813631791,-0.0008008529196958363,0.013208790498992066,0.0,0.0,0.0,0.0,0.0,0.0,0.0,0.0,0.0,0.00753451273316497,-0.5624635116832212,9.808614409869623,0.0,0.0,0.0,0.0,0.0,0.0,0.0,0.0,0.0
2025/04/09 09:59:58.306341594,1744185598,304860336,mA1/imu,0.7216622554847194,0.6922449058634452,-0.00039145128369103737,0.0006527485808723627,0.0,0.0,0.0,0.0,0.0,0.0,0.0,0.0,0.0,-0.002261082067262471,-0.0011496623681967102,0.012514748463865875,0.0,0.0,0.0,0.0,0.0,0.0,0.0,0.0,0.0,0.06484466518093042,-0.5741009786533817,9.805507808727143,0.0,0.0,0.0,0.0,0.0,0.0,0.0,0.0,0.0
2025/04/09 09:59:58.357161334,1744185598,354725572,mA1/imu,0.7218743989838454,0.6920236111915189,-0.0003322601529473784,0.0007504987355156375,0.0,0.0,0.0,0.0,0.0,0.0,0.0,0.0,0.0,-0.005775403170333405,-0.0006257156812726104,0.012272986496276343,0.0,0.0,0.0,0.0,0.0,0.0,0.0,0.0,0.0,0.0021786141568938735,-0.0931820768291307,9.813732977345298,0.0,0.0,0.0,0.0,0.0,0.0,0.0,0.0,0.0
2025/04/09 09:59:58.407768169,1744185598,405633001,mA1/imu,0.7220869195188251,0.6918017931312436,-0.0002541575779379329,0.0008337170595868384,0.0,0.0,0.0,0.0,0.0,0.0,0.0,0.0,0.0,-0.006839691860802074,0.00035336817549170034,0.012305907975287874,0.0,0.0,0.0,0.0,0.0,0.0,0.0,0.0,0.0,0.0025674842054711922,0.5140372335461756,9.813371240891959,0.0,0.0,0.0,0.0,0.0,0.0,0.0,0.0,0.0
2025/04/09 09:59:58.456749201,1744185598,455462626,mA1/imu,0.7222999705645713,0.691579280693484,-0.0001492189727157375,0.0009103689367606028,0.0,0.0,0.0,0.0,0.0,0.0,0.0,0.0,0.0,-0.0059119801667415275,0.0012949146687913015,0.012340516937010887,0.0,0.0,0.0,0.0,0.0,0.0,0.0,0.0,0.0,0.0016084236346361747,0.61470200503947,9.811836405899522,0.0,0.0,0.0,0.0,0.0,0.0,0.0,0.0,0.0
2025/04/09 09:59:58.497518464,1744185598,496394780,mA1/imu,0.7225135098903318,0.6913561106213973,-2.229478836394288e-05,0.0009776683231300508,0.0,0.0,0.0,0.0,0.0,0.0,0.0,0.0,0.0,-0.0044665057569906385,0.0021340685092508284,0.012371869034062408,0.0,0.0,0.0,0.0,0.0,0.0,0.0,0.0,0.0,0.002050598913392026,0.23543443833751407,9.811179721284603,0.0,0.0,0.0,0.0,0.0,0.0,0.0,0.0,0.0
2025/04/09 09:59:58.549126148,1744185598,546235993,mA1/imu,0.722727450468023,0.6911323276638248,0.00014285530504671667,0.0010571614525476918,0.0,0.0,0.0,0.0,0.0,0.0,0.0,0.0,0.0,-0.0051144635245510325,0.002772767293943181,0.012403110122762486,0.0,0.0,0.0,0.0,0.0,0.0,0.0,0.0,0.0,0.005262211726063755,-0.5777176215621375,9.811092588099445,0.0,0.0,0.0,0.0,0.0,0.0,0.0,0.0,0.0
2025/04/09 09:59:58.598033020,1744185598,597150211,mA1/imu,0.7229422379338415,0.6909075354034534,0.00029417165539491247,0.0011007256567496025,0.0,0.0,0.0,0.0,0.0,0.0,0.0,0.0,0.0,-0.00673961790409243,0.0034512574146809585,0.012535885867671567,0.0,0.0,0.0,0.0,0.0,0.0,0.0,0.0,0.0,-0.014280252592954856,-0.07901498280684241,9.809118144426114,0.0,0.0,0.0,0.0,0.0,0.0,0.0,0.0,0.0
2025/04/09 09:59:58.650573723,1744185598,647820586,mA1/imu,0.7231613626769149,0.6906780489358505,0.0004508728725360451,0.0011282566585387739,0.0,0.0,0.0,0.0,0.0,0.0,0.0,0.0,0.0,-0.006292650049483541,0.0038654980387379098,0.012737954644457634,0.0,0.0,0.0,0.0,0.0,0.0,0.0,0.0,0.0,0.007388087123326217,0.5505797145930941,9.81089473560037,0.0,0.0,0.0,0.0,0.0,0.0,0.0,0.0,0.0
2025/04/09 09:59:58.700094256,1744185598,698748507,mA1/imu,0.7233840562973977,0.6904446668297096,0.0006026569897386701,0.0011427798071264195,0.0,0.0,0.0,0.0,0.0,0.0,0.0,0.0,0.0,-0.005714152143317498,0.004123378665102535,0.013114390973708902,0.0,0.0,0.0,0.0,0.0,0.0,0.0,0.0,0.0,-0.0034096098397479093,0.5356998883594414,9.811269243682256,0.0,0.0,0.0,0.0,0.0,0.0,0.0,0.0,0.0
2025/04/09 09:59:58.752733157,1744185598,748593639,mA1/imu,0.7236142579015533,0.6902032738892377,0.0007395899368470404,0.0011399477564224077,0.0,0.0,0.0,0.0,0.0,0.0,0.0,0.0,0.0,-0.00307397195505179,0.0038706346212451863,0.013471760008028622,0.0,0.0,0.0,0.0,0.0,0.0,0.0,0.0,0.0,0.011599022004482479,0.026510328965649345,9.810700601417638,0.0,0.0,0.0,0.0,0.0,0.0,0.0,0.0,0.0
2025/04/09 09:59:58.801218208,1744185598,800249246,mA1/imu,0.7238485085004688,0.6899574931737998,0.000850070841769279,0.0011277120804738046,0.0,0.0,0.0,0.0,0.0,0.0,0.0,0.0,0.0,-0.0014661463608691362,0.0032552119683758435,0.013662276265415768,0.0,0.0,0.0,0.0,0.0,0.0,0.0,0.0,0.0,0.013496089146572497,0.06194866372782655,9.809140819851072,0.0,0.0,0.0,0.0,0.0,0.0,0.0,0.0,0.0
2025/04/09 09:59:58.850926792,1744185598,850090035,mA1/imu,0.7240859374761304,0.6897082274997288,0.0009350139786700525,0.0011143685904368133,0.0,0.0,0.0,0.0,0.0,0.0,0.0,0.0,0.0,-0.0013919529189141905,0.002479452251441531,0.013846920628100227,0.0,0.0,0.0,0.0,0.0,0.0,0.0,0.0,0.0,0.014079888287745673,-0.014453644357998915,9.807161546333184,0.0,0.0,0.0,0.0,0.0,0.0,0.0,0.0,0.0
2025/04/09 09:59:58.907413810,1744185598,901177626,mA1/imu,0.7243269759972459,0.6894550641779915,0.0009789225022726253,0.0010899691469969056,0.0,0.0,0.0,0.0,0.0,0.0,0.0,0.0,0.0,-0.00012773469688433882,0.0015100831200348462,0.014107615292136468,0.0,0.0,0.0,0.0,0.0,0.0,0.0,0.0,0.0,0.018103735191112063,-0.6399614321819168,9.808754183243241,0.0,0.0,0.0,0.0,0.0,0.0,0.0,0.0,0.0
2025/04/09 09:59:58.952959801,1744185598,951260976,mA1/imu,0.7245725896683609,0.6891969797889604,0.0009805723074951989,0.0010601080181499231,0.0,0.0,0.0,0.0,0.0,0.0,0.0,0.0,0.0,0.0004984765420687334,0.00041595259383874004,0.014327008678616726,0.0,0.0,0.0,0.0,0.0,0.0,0.0,0.0,0.0,0.017361750754179072,-0.049936762308791204,9.809612645985279,0.0,0.0,0.0,0.0,0.0,0.0,0.0,0.0,0.0
2025/04/09 09:59:59.4429498,1744185599,2480914,mA1/imu,0.7248204336534176,0.688936429595465,0.000939938387660629,0.001025402629254138,0.0,0.0,0.0,0.0,0.0,0.0,0.0,0.0,0.0,0.002290687735204332,-0.0006521970705174611,0.014378511074373997,0.0,0.0,0.0,0.0,0.0,0.0,0.0,0.0,0.0,0.014440464742621898,-0.007883208930071828,9.808868180004891,0.0,0.0,0.0,0.0,0.0,0.0,0.0,0.0,0.0
2025/04/09 09:59:59.53532748,1744185599,52830028,mA1/imu,0.7250688382953606,0.6886751355974,0.0008663977892325658,0.0009933266279508516,0.0,0.0,0.0,0.0,0.0,0.0,0.0,0.0,0.0,0.003890319729805008,-0.0016629508012919942,0.014472207292605356,0.0,0.0,0.0,0.0,0.0,0.0,0.0,0.0,0.0,0.014947367653102214,0.04187887356794352,9.809325752210208,0.0,0.0,0.0,0.0,0.0,0.0,0.0,0.0,0.0
2025/04/09 09:59:59.105023771,1744185599,103748964,mA1/imu,0.7253189641122161,0.6884118611201053,0.0007623062474731207,0.0009636687811157472,0.0,0.0,0.0,0.0,0.0,0.0,0.0,0.0,0.0,0.005617282763315753,-0.00260458689319426,0.01454200269117958,0.0,0.0,0.0,0.0,0.0,0.0,0.0,0.0,0.0,0.016081703524107645,-0.5253507624892374,9.808520492845595,0.0,0.0,0.0,0.0,0.0,0.0,0.0,0.0,0.0
2025/04/09 09:59:59.158811859,1744185599,153627502,mA1/imu,0.7255702669157367,0.6881471493851478,0.0006356606892767754,0.0009404766929629528,0.0,0.0,0.0,0.0,0.0,0.0,0.0,0.0,0.0,0.004384171987500333,-0.0033249400565332978,0.014638859498340569,0.0,0.0,0.0,0.0,0.0,0.0,0.0,0.0,0.0,0.013468985907919239,-0.027416114734548736,9.807215995423906,0.0,0.0,0.0,0.0,0.0,0.0,0.0,0.0,0.0
2025/04/09 09:59:59.207108463,1744185599,204872637,mA1/imu,0.7258222737593362,0.687881506008867,0.0004827340804897847,0.0009097107276212536,0.0,0.0,0.0,0.0,0.0,0.0,0.0,0.0,0.0,0.005462154206097376,-0.0037630996917568257,0.014589728990436597,0.0,0.0,0.0,0.0,0.0,0.0,0.0,0.0,0.0,0.011550532932793945,-0.6193030315474777,9.808241112241987,0.0,0.0,0.0,0.0,0.0,0.0,0.0,0.0,0.0
2025/04/09 09:59:59.257447672,1744185599,255236675,mA1/imu,0.7260730299205668,0.6876169537808321,0.0003209776531774342,0.0008815148796541569,0.0,0.0,0.0,0.0,0.0,0.0,0.0,0.0,0.0,0.004083055653487946,-0.003996427603964784,0.014595324599829113,0.0,0.0,0.0,0.0,0.0,0.0,0.0,0.0,0.0,0.010519181244449033,0.5429061484356816,9.810475025518112,0.0,0.0,0.0,0.0,0.0,0.0,0.0,0.0,0.0
2025/04/09 09:59:59.307679401,1744185599,306238097,mA1/imu,0.7263237898655842,0.6873521669988927,0.00015685426760983398,0.0008521701471944625,0.0,0.0,0.0,0.0,0.0,0.0,0.0,0.0,0.0,0.003915651835040921,-0.003875189447720477,0.014534233112037689,0.0,0.0,0.0,0.0,0.0,0.0,0.0,0.0,0.0,0.004437745414151165,0.5296242516582498,9.81079452741814,0.0,0.0,0.0,0.0,0.0,0.0,0.0,0.0,0.0
2025/04/09 09:59:59.346856476,1744185599,345958512,mA1/imu,0.726573276020502,0.6870884954693177,1.205899991310155e-06,0.000820953769022625,0.0,0.0,0.0,0.0,0.0,0.0,0.0,0.0,0.0,0.005268279353308859,-0.0035062435733593487,0.014525791462492046,0.0,0.0,0.0,0.0,0.0,0.0,0.0,0.0,0.0,0.004317915645414375,0.021057946249773994,9.811095956761427,0.0,0.0,0.0,0.0,0.0,0.0,0.0,0.0,0.0
2025/04/09 09:59:59.397767108,1744185599,396939092,mA1/imu,0.7268229313091095,0.6868244222937716,-0.0001398308283230148,0.0007873445242161665,0.0,0.0,0.0,0.0,0.0,0.0,0.0,0.0,0.0,0.005996156663223624,-0.0029630318377911764,0.014522051486127332,0.0,0.0,0.0,0.0,0.0,0.0,0.0,0.0,0.0,0.006442676597377729,-0.20862272671792223,9.810655587266638,0.0,0.0,0.0,0.0,0.0,0.0,0.0,0.0,0.0
2025/04/09 09:59:59.448099099,1744185599,447006704,mA1/imu,0.727072012662587,0.6865607361679087,-0.0002517153637146604,0.0007619676697161035,0.0,0.0,0.0,0.0,0.0,0.0,0.0,0.0,0.0,0.003923910007549177,-0.0022839959145022305,0.014503995171593956,0.0,0.0,0.0,0.0,0.0,0.0,0.0,0.0,0.0,0.004788797273869888,0.007457310102178163,9.810444880734572,0.0,0.0,0.0,0.0,0.0,0.0,0.0,0.0,0.0
2025/04/09 09:59:59.498810482,1744185599,497961342,mA1/imu,0.7273209197764164,0.6862970407518509,-0.0003414778365340759,0.0007313711280015542,0.0,0.0,0.0,0.0,0.0,0.0,0.0,0.0,0.0,0.003673785973036124,-0.001433546177161278,0.014496883751306776,0.0,0.0,0.0,0.0,0.0,0.0,0.0,0.0,0.0,0.0036132006120822534,-0.5779061307701507,9.809877560669442,0.0,0.0,0.0,0.0,0.0,0.0,0.0,0.0,0.0
2025/04/09 09:59:59.549516759,1744185599,547930716,mA1/imu,0.7275695190765965,0.6860334818744336,-0.00039403496866338526,0.0007080920384181029,0.0,0.0,0.0,0.0,0.0,0.0,0.0,0.0,0.0,0.0016374406140018363,-0.0005408628627034829,0.014485142540397525,0.0,0.0,0.0,0.0,0.0,0.0,0.0,0.0,0.0,0.004233962815073272,-0.21320537165216086,9.813165996636155,0.0,0.0,0.0,0.0,0.0,0.0,0.0,0.0,0.0
2025/04/09 09:59:59.600012076,1744185599,598878038,mA1/imu,0.727817471666591,0.6857704347025754,-0.0004206350262119038,0.000679625533843438,0.0,0.0,0.0,0.0,0.0,0.0,0.0,0.0,0.0,-0.00017126892889655066,0.0003549827450952823,0.014434429434838181,0.0,0.0,0.0,0.0,0.0,0.0,0.0,0.0,0.0,0.007108963228000148,-0.07480088703418919,9.811861536010975,0.0,0.0,0.0,0.0,0.0,0.0,0.0,0.0,0.0
2025/04/09 09:59:59.650932945,1744185599,648687061,mA1/imu,0.7280643488410541,0.6855083531993145,-0.0004141986635950207,0.0006558049123119334,0.0,0.0,0.0,0.0,0.0,0.0,0.0,0.0,0.0,0.0009616377486385881,0.0011531798363208338,0.01437864291731127,0.0,0.0,0.0,0.0,0.0,0.0,0.0,0.0,0.0,0.006568547307059729,-0.42577797652021204,9.810337393093981,0.0,0.0,0.0,0.0,0.0,0.0,0.0,0.0,0.0
2025/04/09 09:59:59.700692271,1744185599,699902956,mA1/imu,0.7283098643805648,0.6852475388939713,-0.00036994845987735727,0.0006442234518546115,0.0,0.0,0.0,0.0,0.0,0.0,0.0,0.0,0.0,-0.0012234849304062058,0.0018695370281920454,0.014290473053741776,0.0,0.0,0.0,0.0,0.0,0.0,0.0,0.0,0.0,0.009022153899598925,0.017855092720109593,9.810952060402867,0.0,0.0,0.0,0.0,0.0,0.0,0.0,0.0,0.0
2025/04/09 09:59:59.751472957,1744185599,750110989,mA1/imu,0.728553635341707,0.6849883957562724,-0.000297888390362076,0.0006398219581187556,0.0,0.0,0.0,0.0,0.0,0.0,0.0,0.0,0.0,-0.0027571185922006386,0.0024261545312972833,0.014194179092223643,0.0,0.0,0.0,0.0,0.0,0.0,0.0,0.0,0.0,0.010021702553060757,0.4795643232201961,9.81195036604592,0.0,0.0,0.0,0.0,0.0,0.0,0.0,0.0,0.0
2025/04/09 09:59:59.802052744,1744185599,801272869,mA1/imu,0.7287945477999999,0.6847321014886584,-0.00020120795804693612,0.000644828098962906,0.0,0.0,0.0,0.0,0.0,0.0,0.0,0.0,0.0,-0.004020151948309415,0.002856674675883909,0.013942200709450089,0.0,0.0,0.0,0.0,0.0,0.0,0.0,0.0,0.0,0.0057019975004098476,0.5703180020856689,9.81054187778684,0.0,0.0,0.0,0.0,0.0,0.0,0.0,0.0,0.0
2025/04/09 09:59:59.853674438,1744185599,851203108,mA1/imu,0.7290309502325101,0.6844804130960493,-8.415401094230741e-05,0.0006562080823291337,0.0,0.0,0.0,0.0,0.0,0.0,0.0,0.0,0.0,-0.0032757949312585584,0.0032182121323568076,0.013757098029112076,0.0,0.0,0.0,0.0,0.0,0.0,0.0,0.0,0.0,0.0073280475581948765,-0.45629499217390185,9.809238722583112,0.0,0.0,0.0,0.0,0.0,0.0,0.0,0.0,0.0
2025/04/09 09:59:59.904110440,1744185599,902164293,mA1/imu,0.7292644991090291,0.6842315568366967,5.2622617816010535e-05,0.0006813214713219118,0.0,0.0,0.0,0.0,0.0,0.0,0.0,0.0,0.0,-0.005266375630108647,0.0033068385054042964,0.01358178042827491,0.0,0.0,0.0,0.0,0.0,0.0,0.0,0.0,0.0,0.011508845858423619,0.2747259165729348,9.809824802390297,0.0,0.0,0.0,0.0,0.0,0.0,0.0,0.0,0.0
2025/04/09 09:59:59.954847286,1744185599,952321037,mA1/imu,0.729494823741006,0.6839859378396302,0.00019038994974913655,0.0007090305967313342,0.0,0.0,0.0,0.0,0.0,0.0,0.0,0.0,0.0,-0.005561011025522815,0.0031894414820509906,0.013399653289043072,0.0,0.0,0.0,0.0,0.0,0.0,0.0,0.0,0.0,0.012121401881656772,0.5805098145006337,9.810300244989184,0.0,0.0,0.0,0.0,0.0,0.0,0.0,0.0,0.0
2025/04/09 10:00:00.6130599,1744185600,4131831,mA1/imu,0.7297215627529643,0.6837439488116426,0.00032272788953386364,0.0007410556948905163,0.0,0.0,0.0,0.0,0.0,0.0,0.0,0.0,0.0,-0.0042118571962642916,0.002811652425932678,0.013165510518643711,0.0,0.0,0.0,0.0,0.0,0.0,0.0,0.0,0.0,0.015590502422828702,0.14813995115190232,9.810540793189318,0.0,0.0,0.0,0.0,0.0,0.0,0.0,0.0,0.0
2025/04/09 10:00:00.57467302,1744185600,54334465,mA1/imu,0.7299440923700419,0.6835062420164174,0.0004580563228443336,0.000793298856573278,0.0,0.0,0.0,0.0,0.0,0.0,0.0,0.0,0.0,-0.005121021559902393,0.0022957418920867994,0.012947463034794856,0.0,0.0,0.0,0.0,0.0,0.0,0.0,0.0,0.0,0.013236916861548516,0.2968848283101913,9.809179545787512,0.0,0.0,0.0,0.0,0.0,0.0,0.0,0.0,0.0
2025/04/09 10:00:00.107379017,1744185600,105326841,mA1/imu,0.7301627589518831,0.6832724947831555,0.0005724553495922998,0.0008459358426771568,0.0,0.0,0.0,0.0,0.0,0.0,0.0,0.0,0.0,-0.004155091564613649,0.00159284990198737,0.01270518552965101,0.0,0.0,0.0,0.0,0.0,0.0,0.0,0.0,0.0,0.01562910241739537,-0.21019244541644339,9.807759158572168,0.0,0.0,0.0,0.0,0.0,0.0,0.0,0.0,0.0
2025/04/09 10:00:00.158149778,1744185600,155155512,mA1/imu,0.730377041678894,0.6830432796972469,0.000664413693002648,0.0009019995900443964,0.0,0.0,0.0,0.0,0.0,0.0,0.0,0.0,0.0,-0.003731979011659596,0.0008221404145049495,0.012451970324316821,0.0,0.0,0.0,0.0,0.0,0.0,0.0,0.0,0.0,0.01568507841132195,-0.07562899042431302,9.809325656975389,0.0,0.0,0.0,0.0,0.0,0.0,0.0,0.0,0.0
2025/04/09 10:00:00.200314341,1744185600,198733125,mA1/imu,0.730586749524605,0.6828188242284188,0.0007301341926493827,0.0009600012772905941,0.0,0.0,0.0,0.0,0.0,0.0,0.0,0.0,0.0,-0.0031929692783051198,-2.304868625108856e-05,0.012175093078039526,0.0,0.0,0.0,0.0,0.0,0.0,0.0,0.0,0.0,0.016568414029754536,0.005919898690075268,9.808664627557505,0.0,0.0,0.0,0.0,0.0,0.0,0.0,0.0,0.0
2025/04/09 10:00:00.250493070,1744185600,248590612,mA1/imu,0.7307916141960202,0.6825994329541905,0.0007685651246173846,0.0010198328500966853,0.0,0.0,0.0,0.0,0.0,0.0,0.0,0.0,0.0,-0.002603689757543067,-0.0008447764953073158,0.011894420262017823,0.0,0.0,0.0,0.0,0.0,0.0,0.0,0.0,0.0,0.015363074137547488,-0.14503097762640207,9.807769401120263,0.0,0.0,0.0,0.0,0.0,0.0,0.0,0.0,0.0
2025/04/09 10:00:00.300527842,1744185600,299527908,mA1/imu,0.730991439044162,0.6823853518771714,0.0007723474266535984,0.001072877936605856,0.0,0.0,0.0,0.0,0.0,0.0,0.0,0.0,0.0,-0.001228444372884499,-0.0016849994729084654,0.011584552243636609,0.0,0.0,0.0,0.0,0.0,0.0,0.0,0.0,0.0,0.01681609629792076,0.013818509304365418,9.807730371783821,0.0,0.0,0.0,0.0,0.0,0.0,0.0,0.0,0.0
2025/04/09 10:00:00.350172329,1744185600,349341691,mA1/imu,0.7311858043176216,0.6821770157990329,0.0007518731136769352,0.0011284355274628578,0.0,0.0,0.0,0.0,0.0,0.0,0.0,0.0,0.0,-0.0017147019348021173,-0.002395297258318386,0.011267895565343213,0.0,0.0,0.0,0.0,0.0,0.0,0.0,0.0,0.0,0.016261716979790716,0.539050797196979,9.808884514403285,0.0,0.0,0.0,0.0,0.0,0.0,0.0,0.0,0.0
2025/04/09 10:00:00.401400159,1744185600,400315982,mA1/imu,0.731373537952989,0.6819757380107743,0.0006911386109672504,0.0011675076907188598,0.0,0.0,0.0,0.0,0.0,0.0,0.0,0.0,0.0,0.0017753347749342005,-0.0032082232855931824,0.01076578824123082,0.0,0.0,0.0,0.0,0.0,0.0,0.0,0.0,0.0,0.028369972227820294,-0.5554770743594908,9.809481948793342,0.0,0.0,0.0,0.0,0.0,0.0,0.0,0.0,0.0
2025/04/09 10:00:00.452042739,1744185600,450124535,mA1/imu,0.7315525228597675,0.6817837537326566,0.0006071243614589205,0.0012045097457047105,0.0,0.0,0.0,0.0,0.0,0.0,0.0,0.0,0.0,0.0015683707680646934,-0.0035781044308187526,0.010354257051221921,0.0,0.0,0.0,0.0,0.0,0.0,0.0,0.0,0.0,0.012436209471480969,0.27109126315898635,9.811219608050308,0.0,0.0,0.0,0.0,0.0,0.0,0.0,0.0,0.0
2025/04/09 10:00:00.502762300,1744185600,501076914,mA1/imu,0.7317256118227705,0.6815980352437924,0.0005012039254638936,0.0012231717048390267,0.0,0.0,0.0,0.0,0.0,0.0,0.0,0.0,0.0,0.0023868945872918376,-0.00362205949357733,0.010013224551181522,0.0,0.0,0.0,0.0,0.0,0.0,0.0,0.0,0.0,0.010259128705062567,-0.016853806244261853,9.809862083394588,0.0,0.0,0.0,0.0,0.0,0.0,0.0,0.0,0.0
2025/04/09 10:00:00.551759516,1744185600,550897271,mA1/imu,0.7318929122033812,0.6814184595672136,0.0003819986470239214,0.0012256037423725471,0.0,0.0,0.0,0.0,0.0,0.0,0.0,0.0,0.0,0.004313727149324352,-0.003491893670155446,0.009676417184806108,0.0,0.0,0.0,0.0,0.0,0.0,0.0,0.0,0.0,0.00943798108331626,-0.1434388413852936,9.8103889592977,0.0,0.0,0.0,0.0,0.0,0.0,0.0,0.0,0.0
2025/04/09 10:00:00.603698365,1744185600,602231894,mA1/imu,0.7320545092964674,0.6812449447660759,0.0002531855342075917,0.001206874666108146,0.0,0.0,0.0,0.0,0.0,0.0,0.0,0.0,0.0,0.0049340644718079635,-0.0031068015047566147,0.00934680524943044,0.0,0.0,0.0,0.0,0.0,0.0,0.0,0.0,0.0,0.008002086776501653,0.05155811725352205,9.810339223005803,0.0,0.0,0.0,0.0,0.0,0.0,0.0,0.0,0.0
2025/04/09 10:00:00.653988339,1744185600,651985467,mA1/imu,0.7322105262668074,0.6810773457391144,0.0001275909577647718,0.0011739103863291544,0.0,0.0,0.0,0.0,0.0,0.0,0.0,0.0,0.0,0.003962414975255374,-0.002548566304040517,0.00902524041350803,0.0,0.0,0.0,0.0,0.0,0.0,0.0,0.0,0.0,0.00821325841991945,0.5473822979920038,9.811232490441432,0.0,0.0,0.0,0.0,0.0,0.0,0.0,0.0,0.0
2025/04/09 10:00:00.703940678,1744185600,702938267,mA1/imu,0.7323602892698204,0.6809164050768054,6.734569034452364e-06,0.00112069288854972,0.0,0.0,0.0,0.0,0.0,0.0,0.0,0.0,0.0,0.004352882183169109,-0.0017523751111673757,0.008582630153061824,0.0,0.0,0.0,0.0,0.0,0.0,0.0,0.0,0.0,0.004234715074751533,-0.05829954632824567,9.813616506970767,0.0,0.0,0.0,0.0,0.0,0.0,0.0,0.0,0.0
2025/04/09 10:00:00.753569918,1744185600,752781963,mA1/imu,0.7325023463682607,0.6807636965612921,-0.00010581701642017015,0.001044419435184409,0.0,0.0,0.0,0.0,0.0,0.0,0.0,0.0,0.0,0.006015439063188031,-0.0008712940153680718,0.008207400264666787,0.0,0.0,0.0,0.0,0.0,0.0,0.0,0.0,0.0,0.004393605635083888,-0.5672417713979898,9.811866050121605,0.0,0.0,0.0,0.0,0.0,0.0,0.0,0.0,0.0
2025/04/09 10:00:00.806049557,1744185600,803907972,mA1/imu,0.7326386972861995,0.680617064905972,-0.00020078271001631055,0.0009538783274427936,0.0,0.0,0.0,0.0,0.0,0.0,0.0,0.0,0.0,0.005764402161989897,2.9259943587967228e-05,0.007866795971756277,0.0,0.0,0.0,0.0,0.0,0.0,0.0,0.0,0.0,0.0054884892390848,0.05420398524663905,9.810868072111315,0.0,0.0,0.0,0.0,0.0,0.0,0.0,0.0,0.0
2025/04/09 10:00:00.855624431,1744185600,853804678,mA1/imu,0.7327691831621166,0.6804766826793035,-0.00027159038608572474,0.0008571909688263252,0.0,0.0,0.0,0.0,0.0,0.0,0.0,0.0,0.0,0.0040386449675597165,0.0009037135567846719,0.007527806333133083,0.0,0.0,0.0,0.0,0.0,0.0,0.0,0.0,0.0,0.00611668394939947,0.5854617591701571,9.811481553964828,0.0,0.0,0.0,0.0,0.0,0.0,0.0,0.0,0.0
2025/04/09 10:00:00.906299405,1744185600,905400520,mA1/imu,0.732897529228868,0.6803385547146453,-0.0003135553768207999,0.0007512003952397259,0.0,0.0,0.0,0.0,0.0,0.0,0.0,0.0,0.0,0.0028744044496478594,0.002343689780414626,0.007727985681761155,0.0,0.0,0.0,0.0,0.0,0.0,0.0,0.0,0.0,-0.02208564681775339,0.20177559525162736,9.812742880713804,0.0,0.0,0.0,0.0,0.0,0.0,0.0,0.0,0.0
2025/04/09 10:00:00.957778305,1744185600,955291366,mA1/imu,0.7330290555206453,0.680196953300945,-0.0003254382987561761,0.0006344860409469009,0.0,0.0,0.0,0.0,0.0,0.0,0.0,0.0,0.0,0.001443411309077152,0.00298956058341631,0.007617140056331908,0.0,0.0,0.0,0.0,0.0,0.0,0.0,0.0,0.0,0.014020198303816926,0.396885742035206,9.811322958469592,0.0,0.0,0.0,0.0,0.0,0.0,0.0,0.0,0.0
2025/04/09 10:00:01.8113864,1744185601,6262213,mA1/imu,0.7331512265646721,0.6800653610122669,-0.00033321806640354605,0.0005222103909229485,0.0,0.0,0.0,0.0,0.0,0.0,0.0,0.0,0.0,0.002799819805784018,0.002466092153897614,0.006647484804237188,0.0,0.0,0.0,0.0,0.0,0.0,0.0,0.0,0.0,0.06100895822204252,-0.005131530340689961,9.81490987089952,0.0,0.0,0.0,0.0,0.0,0.0,0.0,0.0,0.0
2025/04/09 10:00:01.46785274,1744185601,45997472,mA1/imu,0.7332568718126674,0.6799515102209818,-0.00032463099884151635,0.0004453116010331776,0.0,0.0,0.0,0.0,0.0,0.0,0.0,0.0,0.0,0.0027606198197370592,0.002453247131044537,0.006082863928647494,0.0,0.0,0.0,0.0,0.0,0.0,0.0,0.0,0.0,0.00886170584865751,0.08425098956309433,9.809912122862041,0.0,0.0,0.0,0.0,0.0,0.0,0.0,0.0,0.0
2025/04/09 10:00:01.98465885,1744185601,97605592,mA1/imu,0.733357559862865,0.6798429625125226,-0.0002916427758946349,0.0003881477457623143,0.0,0.0,0.0,0.0,0.0,0.0,0.0,0.0,0.0,0.0019117935808598064,0.002505707391771598,0.005841548189979143,0.0,0.0,0.0,0.0,0.0,0.0,0.0,0.0,0.0,0.011686928648904249,-0.5273519854774623,9.807703400154335,0.0,0.0,0.0,0.0,0.0,0.0,0.0,0.0,0.0
2025/04/09 10:00:01.149331128,1744185601,147490853,mA1/imu,0.7334541693737184,0.6797387728603138,-0.00024176695126141637,0.00035163532956175646,0.0,0.0,0.0,0.0,0.0,0.0,0.0,0.0,0.0,0.00022317355999469183,0.0023808898800556574,0.005565971944758238,0.0,0.0,0.0,0.0,0.0,0.0,0.0,0.0,0.0,0.01376579887495304,-0.2513467099108791,9.809738742900322,0.0,0.0,0.0,0.0,0.0,0.0,0.0,0.0,0.0
2025/04/09 10:00:01.200324973,1744185601,198694925,mA1/imu,0.7335461646038799,0.679639520986133,-0.00017437026615980066,0.0003398583344221771,0.0,0.0,0.0,0.0,0.0,0.0,0.0,0.0,0.0,-0.002098011652803887,0.0022299447072738317,0.005337508386797626,0.0,0.0,0.0,0.0,0.0,0.0,0.0,0.0,0.0,0.009143463372612806,-0.4142254777072709,9.809508840064588,0.0,0.0,0.0,0.0,0.0,0.0,0.0,0.0,0.0
2025/04/09 10:00:01.254333108,1744185601,250068833,mA1/imu,0.7336343250698847,0.6795443660816173,-9.496640576017723e-05,0.0003501247910570512,0.0,0.0,0.0,0.0,0.0,0.0,0.0,0.0,0.0,-0.0033761608839465392,0.0018965430571727037,0.005074779937489101,0.0,0.0,0.0,0.0,0.0,0.0,0.0,0.0,0.0,0.013916712158625829,-0.04239188989245466,9.80696441683734,0.0,0.0,0.0,0.0,0.0,0.0,0.0,0.0,0.0
2025/04/09 10:00:01.302551105,1744185601,300979314,mA1/imu,0.7337179108804971,0.6794541042393605,-6.8935844178443894e-06,0.00038397646505641315,0.0,0.0,0.0,0.0,0.0,0.0,0.0,0.0,0.0,-0.005176769014435734,0.0015154424718615534,0.00482729058880346,0.0,0.0,0.0,0.0,0.0,0.0,0.0,0.0,0.0,0.011518657518621078,0.13183819775502448,9.80732097719785,0.0,0.0,0.0,0.0,0.0,0.0,0.0,0.0,0.0
2025/04/09 10:00:01.351654970,1744185601,350831877,mA1/imu,0.7337974471963931,0.6793681686845384,8.427300360863428e-05,0.0004367657658136181,0.0,0.0,0.0,0.0,0.0,0.0,0.0,0.0,0.0,-0.005102398118334957,0.0010747455556619403,0.004590373899829898,0.0,0.0,0.0,0.0,0.0,0.0,0.0,0.0,0.0,0.010424909836985512,0.5850911859945025,9.80808779429436,0.0,0.0,0.0,0.0,0.0,0.0,0.0,0.0,0.0
2025/04/09 10:00:01.403152535,1744185601,401814411,mA1/imu,0.7338716933743406,0.6792878870049859,0.0001835773002742862,0.000520126478915891,0.0,0.0,0.0,0.0,0.0,0.0,0.0,0.0,0.0,-0.003985441102823905,0.0002838974504003326,0.0041622763585361395,0.0,0.0,0.0,0.0,0.0,0.0,0.0,0.0,0.0,0.021800503137858505,0.07041153611482466,9.809096590222325,0.0,0.0,0.0,0.0,0.0,0.0,0.0,0.0,0.0
2025/04/09 10:00:01.452505071,1744185601,451606508,mA1/imu,0.7339388552929442,0.6792151967698651,0.00028266091798216354,0.0006271131969048102,0.0,0.0,0.0,0.0,0.0,0.0,0.0,0.0,0.0,-0.005389151915704799,-0.000149049635930845,0.0038704646191545363,0.0,0.0,0.0,0.0,0.0,0.0,0.0,0.0,0.0,0.00640071932804156,-0.0013445444973347737,9.80909983666101,0.0,0.0,0.0,0.0,0.0,0.0,0.0,0.0,0.0
2025/04/09 10:00:01.503479311,1744185601,502560570,mA1/imu,0.7340017710011989,0.6791470359414945,0.00038143985178664,0.0007471563595881474,0.0,0.0,0.0,0.0,0.0,0.0,0.0,0.0,0.0,-0.007051403990980593,-0.0005543084473449946,0.003575806584685706,0.0,0.0,0.0,0.0,0.0,0.0,0.0,0.0,0.0,0.012560483978673553,-0.11197180199815478,9.809583802884678,0.0,0.0,0.0,0.0,0.0,0.0,0.0,0.0,0.0
2025/04/09 10:00:01.554574174,1744185601,552620948,mA1/imu,0.7340594325287014,0.6790845135329922,0.00046839659190213163,0.0008681013378504941,0.0,0.0,0.0,0.0,0.0,0.0,0.0,0.0,0.0,-0.007030890561736091,-0.0008001141774186833,0.003308505916286555,0.0,0.0,0.0,0.0,0.0,0.0,0.0,0.0,0.0,0.0025759217290572314,-0.10486116727335819,9.80787079896995,0.0,0.0,0.0,0.0,0.0,0.0,0.0,0.0,0.0
2025/04/09 10:00:01.604733541,1744185601,603524727,mA1/imu,0.734112958527781,0.6790264392749525,0.0005425116103168003,0.0009821243914410556,0.0,0.0,0.0,0.0,0.0,0.0,0.0,0.0,0.0,-0.005345708315910826,-0.0009862777019105093,0.0030587748205032584,0.0,0.0,0.0,0.0,0.0,0.0,0.0,0.0,0.0,0.003423248293639631,-0.017967381513612428,9.808174954734532,0.0,0.0,0.0,0.0,0.0,0.0,0.0,0.0,0.0
2025/04/09 10:00:01.654306465,1744185601,653556661,mA1/imu,0.7341622230985039,0.6789729403423272,0.0006116566317413011,0.001096509973718208,0.0,0.0,0.0,0.0,0.0,0.0,0.0,0.0,0.0,-0.004905500782108293,-0.0011242006376515805,0.002810172593190774,0.0,0.0,0.0,0.0,0.0,0.0,0.0,0.0,0.0,0.0036778996103500362,0.6043808506312442,9.810027406976122,0.0,0.0,0.0,0.0,0.0,0.0,0.0,0.0,0.0
2025/04/09 10:00:01.706750658,1744185601,704539417,mA1/imu,0.7342089255693284,0.6789221925831839,0.0006753075235122428,0.001205815957514748,0.0,0.0,0.0,0.0,0.0,0.0,0.0,0.0,0.0,-0.0040578500863965835,-0.0010296304295472237,0.0027972390982417333,0.0,0.0,0.0,0.0,0.0,0.0,0.0,0.0,0.0,-0.005240147171841085,-0.016296915962665724,9.809068478217203,0.0,0.0,0.0,0.0,0.0,0.0,0.0,0.0,0.0
2025/04/09 10:00:01.756046032,1744185601,754421724,mA1/imu,0.7342551975063344,0.6788719249668942,0.0007266832691366575,0.0012985985152029708,0.0,0.0,0.0,0.0,0.0,0.0,0.0,0.0,0.0,-0.0033552202380344315,-0.0010605109294128752,0.0026483821366198876,0.0,0.0,0.0,0.0,0.0,0.0,0.0,0.0,0.0,0.006002310430458691,-0.03463944104360878,9.811847779704243,0.0,0.0,0.0,0.0,0.0,0.0,0.0,0.0,0.0
2025/04/09 10:00:01.806591036,1744185601,805352044,mA1/imu,0.734296840803871,0.6788266914268395,0.0007596474756316196,0.0013767816302704366,0.0,0.0,0.0,0.0,0.0,0.0,0.0,0.0,0.0,-0.0029916138834517525,-0.00130725239955569,0.0022727328330756622,0.0,0.0,0.0,0.0,0.0,0.0,0.0,0.0,0.0,0.018339941584891026,-0.08282794113042835,9.811318317489183,0.0,0.0,0.0,0.0,0.0,0.0,0.0,0.0,0.0
2025/04/09 10:00:01.856474388,1744185601,855176756,mA1/imu,0.7343321620752188,0.6787883558206315,0.0007672097109025184,0.001433573687697303,0.0,0.0,0.0,0.0,0.0,0.0,0.0,0.0,0.0,-0.0015594631491243482,-0.0012504748152316527,0.0019974963768993018,0.0,0.0,0.0,0.0,0.0,0.0,0.0,0.0,0.0,0.0017604870117290108,-0.0558893352498327,9.81124264997889,0.0,0.0,0.0,0.0,0.0,0.0,0.0,0.0,0.0
2025/04/09 10:00:01.899343576,1744185601,897741970,mA1/imu,0.7343639216246907,0.6787539249777728,0.0007623144729166398,0.001469292318662154,0.0,0.0,0.0,0.0,0.0,0.0,0.0,0.0,0.0,-0.0005634188643425368,-0.0010187932387195299,0.001789652572934795,0.0,0.0,0.0,0.0,0.0,0.0,0.0,0.0,0.0,0.0014886724310721597,-0.07277387111201908,9.811743830137344,0.0,0.0,0.0,0.0,0.0,0.0,0.0,0.0,0.0
2025/04/09 10:00:01.948312526,1744185601,946127478,mA1/imu,0.7343922435168855,0.6787232853216998,0.0007414792925227976,0.0014781179970013764,0.0,0.0,0.0,0.0,0.0,0.0,0.0,0.0,0.0,0.0009097512303189541,-0.0007377796454491657,0.0015864122751209336,0.0,0.0,0.0,0.0,0.0,0.0,0.0,0.0,0.0,0.0014834183998001082,-0.09269819844162971,9.812324763168547,0.0,0.0,0.0,0.0,0.0,0.0,0.0,0.0,0.0
2025/04/09 10:00:02.1668080,1744185602,346431,mA1/imu,0.7344170357523766,0.678696532272086,0.0007062663343079343,0.001461460366495256,0.0,0.0,0.0,0.0,0.0,0.0,0.0,0.0,0.0,0.0015784824043295301,-0.000513683210109084,0.00136437240385363,0.0,0.0,0.0,0.0,0.0,0.0,0.0,0.0,0.0,0.00692845216922581,0.08314628020034978,9.812201911995643,0.0,0.0,0.0,0.0,0.0,0.0,0.0,0.0,0.0
2025/04/09 10:00:02.48433627,1744185602,47715127,mA1/imu,0.7344381730672819,0.6786737891542316,0.0006588263171706746,0.001422604834392767,0.0,0.0,0.0,0.0,0.0,0.0,0.0,0.0,0.0,0.0029783794360500626,-0.00019866700082907116,0.0011636295315570462,0.0,0.0,0.0,0.0,0.0,0.0,0.0,0.0,0.0,0.0009841077120265034,-0.18221520524657597,9.8115141624406,0.0,0.0,0.0,0.0,0.0,0.0,0.0,0.0,0.0
2025/04/09 10:00:02.101123238,1744185602,99139953,mA1/imu,0.7344556329945554,0.6786550748876491,0.0006012133613338148,0.0013605272141331173,0.0,0.0,0.0,0.0,0.0,0.0,0.0,0.0,0.0,0.0041503396063589555,9.088973306206476e-05,0.0009037443699217747,0.0,0.0,0.0,0.0,0.0,0.0,0.0,0.0,0.0,0.005042207038074784,-0.04005802411554574,9.811380778147777,0.0,0.0,0.0,0.0,0.0,0.0,0.0,0.0,0.0
2025/04/09 10:00:02.151617904,1744185602,149169860,mA1/imu,0.7344686584366891,0.6786411877153479,0.0005376312316741978,0.001280259024899417,0.0,0.0,0.0,0.0,0.0,0.0,0.0,0.0,0.0,0.0038613969179364595,0.0004706499492408248,0.0006792661884981868,0.0,0.0,0.0,0.0,0.0,0.0,0.0,0.0,0.0,4.241540521163559e-05,0.5247910318783755,9.813106207526422,0.0,0.0,0.0,0.0,0.0,0.0,0.0,0.0,0.0
2025/04/09 10:00:02.201131666,1744185602,200324868,mA1/imu,0.7344788924378168,0.6786303333028757,0.0004731062925872788,0.0011846750532044149,0.0,0.0,0.0,0.0,0.0,0.0,0.0,0.0,0.0,0.005280963959668605,0.0008362496691840819,0.0005689417505783686,0.0,0.0,0.0,0.0,0.0,0.0,0.0,0.0,0.0,0.00045182603007992705,-0.5783709528919371,9.810779301164688,0.0,0.0,0.0,0.0,0.0,0.0,0.0,0.0,0.0
2025/04/09 10:00:02.251043707,1744185602,250149392,mA1/imu,0.7344875814917592,0.6786211453765365,0.00041050483751689444,0.001079429480170183,0.0,0.0,0.0,0.0,0.0,0.0,0.0,0.0,0.0,0.0037765020648082358,0.0011458141096862516,0.0004471216818721289,0.0,0.0,0.0,0.0,0.0,0.0,0.0,0.0,0.0,0.00038774081228028223,0.4742559560519484,9.810414644812777,0.0,0.0,0.0,0.0,0.0,0.0,0.0,0.0,0.0
2025/04/09 10:00:02.301996609,1744185602,301101393,mA1/imu,0.7344927022138519,0.6786158071632123,0.0003468101310385821,0.0009676701652405861,0.0,0.0,0.0,0.0,0.0,0.0,0.0,0.0,0.0,0.00537189505849875,0.0010638119629079825,0.00012891262724766482,0.0,0.0,0.0,0.0,0.0,0.0,0.0,0.0,0.0,0.017910905889912704,-0.6782973919125272,9.809641796096487,0.0,0.0,0.0,0.0,0.0,0.0,0.0,0.0,0.0
2025/04/09 10:00:02.352648508,1744185602,350988835,mA1/imu,0.7344924418129449,0.6786162589857663,0.0002866778342392647,0.0008624242809984798,0.0,0.0,0.0,0.0,0.0,0.0,0.0,0.0,0.0,0.004250185334526073,0.00118417734711165,-7.609197088959698e-05,0.0,0.0,0.0,0.0,0.0,0.0,0.0,0.0,0.0,-0.0008332166272313618,0.14265224830178036,9.810878625317077,0.0,0.0,0.0,0.0,0.0,0.0,0.0,0.0,0.0
2025/04/09 10:00:02.403153929,1744185602,401975217,mA1/imu,0.7344903560226018,0.6786186577725739,0.0002363810062046867,0.0007604977067116234,0.0,0.0,0.0,0.0,0.0,0.0,0.0,0.0,0.0,0.004001781569276234,0.001339964757553083,-0.000136634477832354,0.0,0.0,0.0,0.0,0.0,0.0,0.0,0.0,0.0,0.0018874786512196613,-0.34087031693734293,9.808680133382923,0.0,0.0,0.0,0.0,0.0,0.0,0.0,0.0,0.0
2025/04/09 10:00:02.452808478,1744185602,451837210,mA1/imu,0.7344879836264593,0.6786213365356543,0.00019537352469458334,0.000667335063059943,0.0,0.0,0.0,0.0,0.0,0.0,0.0,0.0,0.0,0.003398378299349908,0.0013013808153119208,-0.00014901579981334919,0.0,0.0,0.0,0.0,0.0,0.0,0.0,0.0,0.0,0.003430575584315384,-0.08278094602048418,9.808792083503475,0.0,0.0,0.0,0.0,0.0,0.0,0.0,0.0,0.0
2025/04/09 10:00:02.506550602,1744185602,503749890,mA1/imu,0.7344844036367842,0.6786252893687431,0.0001669629950745447,0.0005912417992463443,0.0,0.0,0.0,0.0,0.0,0.0,0.0,0.0,0.0,0.0023760524457619105,0.0011708676061488773,-0.0002581355302768256,0.0,0.0,0.0,0.0,0.0,0.0,0.0,0.0,0.0,0.004423864746410556,-0.09886667614216985,9.807552197016165,0.0,0.0,0.0,0.0,0.0,0.0,0.0,0.0,0.0
2025/04/09 10:00:02.554088996,1744185602,553416051,mA1/imu,0.7344789319898378,0.6786312667802245,0.0001461759347054686,0.0005299471021240692,0.0,0.0,0.0,0.0,0.0,0.0,0.0,0.0,0.0,0.003231388532717046,0.0009507252286036523,-0.00036802443231109404,0.0,0.0,0.0,0.0,0.0,0.0,0.0,0.0,0.0,0.0049118188385983115,-0.5005037771868275,9.807343831250341,0.0,0.0,0.0,0.0,0.0,0.0,0.0,0.0,0.0
2025/04/09 10:00:02.605215072,1744185602,604696492,mA1/imu,0.7344717161860314,0.6786391012752393,0.00014284487485484876,0.000497934155120562,0.0,0.0,0.0,0.0,0.0,0.0,0.0,0.0,0.0,0.0005158930653724918,0.0005910934161005378,-0.0004672512748408661,0.0,0.0,0.0,0.0,0.0,0.0,0.0,0.0,0.0,0.010604711126704715,0.5460607416354272,9.807649171289292,0.0,0.0,0.0,0.0,0.0,0.0,0.0,0.0,0.0
2025/04/09 10:00:02.655403677,1744185602,654579076,mA1/imu,0.7344629222764287,0.6786486145023205,0.00015807830303753425,0.0004988451655991555,0.0,0.0,0.0,0.0,0.0,0.0,0.0,0.0,0.0,-0.0014264065233909958,0.00034515395683131677,-0.0005451510910255181,0.0,0.0,0.0,0.0,0.0,0.0,0.0,0.0,0.0,0.0015716561908223651,0.031613325678010756,9.807519679211723,0.0,0.0,0.0,0.0,0.0,0.0,0.0,0.0,0.0
2025/04/09 10:00:02.706427198,1744185602,705534431,mA1/imu,0.7344519270009406,0.6786604968966932,0.00017717781774772114,0.0005152519378907978,0.0,0.0,0.0,0.0,0.0,0.0,0.0,0.0,0.0,-0.0016734863941475435,-0.00010135091915867173,-0.0007690230248270299,0.0,0.0,0.0,0.0,0.0,0.0,0.0,0.0,0.0,0.013059660258345544,-0.08970672018487134,9.807379456853415,0.0,0.0,0.0,0.0,0.0,0.0,0.0,0.0,0.0
2025/04/09 10:00:02.757649678,1744185602,755382565,mA1/imu,0.7344374053673209,0.6786761661713347,0.00021064947683238256,0.0005609769105687514,0.0,0.0,0.0,0.0,0.0,0.0,0.0,0.0,0.0,-0.0026269861263132346,-0.0003006206493709546,-0.0008758014837751285,0.0,0.0,0.0,0.0,0.0,0.0,0.0,0.0,0.0,-0.0005637465509808343,-0.07949775043889755,9.808160353925237,0.0,0.0,0.0,0.0,0.0,0.0,0.0,0.0,0.0
2025/04/09 10:00:02.807851742,1744185602,806303684,mA1/imu,0.734421689091301,0.6786930990656279,0.0002587550188444135,0.0006268323654373303,0.0,0.0,0.0,0.0,0.0,0.0,0.0,0.0,0.0,-0.003575472991744905,-0.00044155081685626516,-0.0009746725622256634,0.0,0.0,0.0,0.0,0.0,0.0,0.0,0.0,0.0,0.002104851916417363,-0.08497303553629816,9.808074750385405,0.0,0.0,0.0,0.0,0.0,0.0,0.0,0.0,0.0
2025/04/09 10:00:02.847110463,1744185602,846150583,mA1/imu,0.7344043369691806,0.6787117660431801,0.00032095161051170557,0.0007109609477692147,0.0,0.0,0.0,0.0,0.0,0.0,0.0,0.0,0.0,-0.005009782493338695,-0.00043641844576300913,-0.00103350604661025,0.0,0.0,0.0,0.0,0.0,0.0,0.0,0.0,0.0,-0.003544522985365484,0.22466925315227523,9.809795381473387,0.0,0.0,0.0,0.0,0.0,0.0,0.0,0.0,0.0
2025/04/09 10:00:02.899229298,1744185602,897084634,mA1/imu,0.7343863113983995,0.6787311241415839,0.0003950485518490189,0.000806652835323096,0.0,0.0,0.0,0.0,0.0,0.0,0.0,0.0,0.0,-0.005706857325251787,-0.00042978908353708234,-0.0010790783359133106,0.0,0.0,0.0,0.0,0.0,0.0,0.0,0.0,0.0,0.003775378904961114,0.17330287768562852,9.80936116659261,0.0,0.0,0.0,0.0,0.0,0.0,0.0,0.0,0.0
2025/04/09 10:00:02.948100012,1744185602,946913696,mA1/imu,0.734367859732602,0.6787509092283148,0.0004739232230467007,0.0009084108498369649,0.0,0.0,0.0,0.0,0.0,0.0,0.0,0.0,0.0,-0.005288298607041045,-0.0004199906747262696,-0.0010565139064875981,0.0,0.0,0.0,0.0,0.0,0.0,0.0,0.0,0.0,-0.0033028842421615546,-0.10540901121434126,9.809522050816474,0.0,0.0,0.0,0.0,0.0,0.0,0.0,0.0,0.0
2025/04/09 10:00:03.724640,1744185602,997857836,mA1/imu,0.7343495373215831,0.6787705149265268,0.0005587865498902346,0.0010162969773749645,0.0,0.0,0.0,0.0,0.0,0.0,0.0,0.0,0.0,-0.006186249273418309,-0.0004876505860878331,-0.001089771037898974,0.0,0.0,0.0,0.0,0.0,0.0,0.0,0.0,0.0,0.004170015973987162,0.36907485032436776,9.810714558695404,0.0,0.0,0.0,0.0,0.0,0.0,0.0,0.0,0.0
2025/04/09 10:00:03.49383751,1744185603,47719918,mA1/imu,0.7343306714900494,0.6787906859166232,0.0006408213774375125,0.001122038223772176,0.0,0.0,0.0,0.0,0.0,0.0,0.0,0.0,0.0,-0.005361985747137918,-0.00040599037431567834,-0.0011073181799236805,0.0,0.0,0.0,0.0,0.0,0.0,0.0,0.0,0.0,-0.0035920300391814397,0.15056618478962946,9.810508592210985,0.0,0.0,0.0,0.0,0.0,0.0,0.0,0.0,0.0
2025/04/09 10:00:03.99905884,1744185603,98653027,mA1/imu,0.7343121028014564,0.6788105263126827,0.0007200041606215976,0.001219278643583932,0.0,0.0,0.0,0.0,0.0,0.0,0.0,0.0,0.0,-0.004178979399293967,-0.00024402452258572385,-0.001045136428210683,0.0,0.0,0.0,0.0,0.0,0.0,0.0,0.0,0.0,-0.0024217034587533,-0.026861601840936347,9.809619972490351,0.0,0.0,0.0,0.0,0.0,0.0,0.0,0.0,0.0
2025/04/09 10:00:03.149829793,1744185603,148477581,mA1/imu,0.7342955370434867,0.6788281707785145,0.0008038604725277821,0.0013162993026129438,0.0,0.0,0.0,0.0,0.0,0.0,0.0,0.0,0.0,-0.005568681512002853,-0.00011616291880425907,-0.0009174452613357238,0.0,0.0,0.0,0.0,0.0,0.0,0.0,0.0,0.0,-0.0027061676523663725,0.4652702513860958,9.813686168412893,0.0,0.0,0.0,0.0,0.0,0.0,0.0,0.0,0.0
2025/04/09 10:00:03.200562823,1744185603,199450033,mA1/imu,0.7342798201466038,0.6788449383322455,0.0008699655202212048,0.001392331194385223,0.0,0.0,0.0,0.0,0.0,0.0,0.0,0.0,0.0,-0.0037913554068164735,-0.00016050455144373947,-0.0009314607817190524,0.0,0.0,0.0,0.0,0.0,0.0,0.0,0.0,0.0,0.00540416236999827,-0.3022541915937086,9.811638608146081,0.0,0.0,0.0,0.0,0.0,0.0,0.0,0.0,0.0
