time,header_stamp_secs,header_stamp_nsecs,header_frame_id,orientation_x,orientation_y,orientation_z,orientation_w,orientation_covariance_0,orientation_covariance_1,orientation_covariance_2,orientation_covariance_3,orientation_covariance_4,orientation_covariance_5,orientation_covariance_6,orientation_covariance_7,orientation_covariance_8,angular_velocity_x,angular_velocity_y,angular_velocity_z,angular_velocity_covariance_0,angular_velocity_covariance_1,angular_velocity_covariance_2,angular_velocity_covariance_3,angular_velocity_covariance_4,angular_velocity_covariance_5,angular_velocity_covariance_6,angular_velocity_covariance_7,angular_velocity_covariance_8,linear_acceleration_x,linear_acceleration_y,linear_acceleration_z,linear_acceleration_covariance_0,linear_acceleration_covariance_1,linear_acceleration_covariance_2,linear_acceleration_covariance_3,linear_acceleration_covariance_4,linear_acceleration_covariance_5,linear_acceleration_covariance_6,linear_acceleration_covariance_7,linear_acceleration_covariance_8
2025/05/07 10:38:46.102292026,1746607126,97896738,mti/imu_base_body,-0.11317508198981907,0.993486978230553,0.0032327126426991886,-0.0128286582264883,0.017453292519943295,0.0,0.0,0.0,0.017453292519943295,0.0,0.0,0.0,0.15707963267948966,0.02041284367442131,-0.004110506270080805,0.12638616561889648,0.0004363323129985824,0.0,0.0,0.0,0.0004363323129985824,0.0,0.0,0.0,0.0004363323129985824,-0.12067683041095734,0.03862912580370903,9.90949821472168,0.0004,0.0,0.0,0.0,0.0004,0.0,0.0,0.0,0.0004
2025/05/07 10:38:46.148329821,1746607126,148011303,mti/imu_base_body,-0.11256287925831548,0.993556541817102,0.0031901886566790567,-0.01283818997576453,0.017453292519943295,0.0,0.0,0.0,0.017453292519943295,0.0,0.0,0.0,0.15707963267948966,0.014977829530835152,0.005714621860533953,0.12976346909999847,0.0004363323129985824,0.0,0.0,0.0,0.0004363323129985824,0.0,0.0,0.0,0.0004363323129985824,-0.19835494458675385,0.02470632642507553,9.680554389953613,0.0004,0.0,0.0,0.0,0.0004,0.0,0.0,0.0,0.0004
2025/05/07 10:38:46.200472430,1746607126,200147734,mti/imu_base_body,-0.11198071510328833,0.993622747959783,0.0031334148219463323,-0.012819356199088743,0.017453292519943295,0.0,0.0,0.0,0.017453292519943295,0.0,0.0,0.0,0.15707963267948966,0.019281787797808647,-0.000306655652821064,0.12092743068933487,0.0004363323129985824,0.0,0.0,0.0,0.0004363323129985824,0.0,0.0,0.0,0.0004363323129985824,-0.18901917338371277,0.011155250482261181,9.7996187210083,0.0004,0.0,0.0,0.0,0.0004,0.0,0.0,0.0,0.0004
2025/05/07 10:38:46.248420397,1746607126,248115253,mti/imu_base_body,-0.11139591179824748,0.9936887639989704,0.0030774358677784002,-0.012810953333574533,0.017453292519943295,0.0,0.0,0.0,0.017453292519943295,0.0,0.0,0.0,0.15707963267948966,0.02419443428516388,0.0034533017314970493,0.12484032660722733,0.0004363323129985824,0.0,0.0,0.0,0.0004363323129985824,0.0,0.0,0.0,0.0004363323129985824,-0.17654606699943542,0.04411555826663971,9.82636547088623,0.0004,0.0,0.0,0.0,0.0004,0.0,0.0,0.0,0.0004
2025/05/07 10:38:46.298834124,1746607126,298014431,mti/imu_base_body,-0.11075190187781214,0.9937614074459228,0.003012321534787558,-0.012775258138970123,0.017453292519943295,0.0,0.0,0.0,0.017453292519943295,0.0,0.0,0.0,0.15707963267948966,0.01613638922572136,-0.0005987467593513429,0.131351500749588,0.0004363323129985824,0.0,0.0,0.0,0.0004363323129985824,0.0,0.0,0.0,0.0004363323129985824,-0.13490165770053864,0.03718992695212364,9.804963111877441,0.0004,0.0,0.0,0.0,0.0004,0.0,0.0,0.0,0.0004
2025/05/07 10:38:46.349246483,1746607126,348064599,mti/imu_base_body,-0.11016948500083185,0.9938264911115922,0.0029579963668504286,-0.012760893266749309,0.017453292519943295,0.0,0.0,0.0,0.017453292519943295,0.0,0.0,0.0,0.15707963267948966,0.020118683576583862,0.004022388253360987,0.11909972876310349,0.0004363323129985824,0.0,0.0,0.0,0.0004363323129985824,0.0,0.0,0.0,0.0004363323129985824,-0.14637425541877747,0.04960119351744652,9.825257301330566,0.0004,0.0,0.0,0.0,0.0004,0.0,0.0,0.0,0.0004
2025/05/07 10:38:46.399017572,1746607126,398734687,mti/imu_base_body,-0.10954867763350057,0.9938956086455666,0.002902921839941535,-0.012734967161370209,0.017453292519943295,0.0,0.0,0.0,0.017453292519943295,0.0,0.0,0.0,0.15707963267948966,0.016216279938817024,-0.0023994045332074165,0.1360825151205063,0.0004363323129985824,0.0,0.0,0.0,0.0004363323129985824,0.0,0.0,0.0,0.0004363323129985824,-0.18691806495189667,0.051751554012298584,9.67286491394043,0.0004,0.0,0.0,0.0,0.0004,0.0,0.0,0.0,0.0004
2025/05/07 10:38:46.448705176,1746607126,448420923,mti/imu_base_body,-0.08912459768581166,0.9959420633041676,0.0021703686081495704,-0.012308620104790446,0.017453292519943295,0.0,0.0,0.0,0.017453292519943295,0.0,0.0,0.0,0.15707963267948966,0.006130412686616182,0.004316738341003656,0.12354613840579987,0.0004363323129985824,0.0,0.0,0.0,0.0004363323129985824,0.0,0.0,0.0,0.0004363323129985824,-0.14739395678043365,0.06421031057834625,9.742435455322266,0.0004,0.0,0.0,0.0,0.0004,0.0,0.0,0.0,0.0004
2025/05/07 10:38:46.789007798,1746607126,498656558,mti/imu_base_body,-0.08849157483059417,0.9959982146688497,0.002162333386863037,-0.01233376969095117,0.017453292519943295,0.0,0.0,0.0,0.017453292519943295,0.0,0.0,0.0,0.15707963267948966,0.0059678321704268456,-0.00010073793964693323,0.13112139701843262,0.0004363323129985824,0.0,0.0,0.0,0.0004363323129985824,0.0,0.0,0.0,0.0004363323129985824,-0.13401053845882416,0.06979960948228836,9.902670860290527,0.0004,0.0,0.0,0.0,0.0004,0.0,0.0,0.0,0.0004
2025/05/07 10:38:46.790906465,1746607126,548787344,mti/imu_base_body,-0.08782976681829602,0.9960572529411967,0.002187775789487513,-0.01229205275678575,0.017453292519943295,0.0,0.0,0.0,0.017453292519943295,0.0,0.0,0.0,0.15707963267948966,0.004734266083687544,0.0006313985213637352,0.13547644019126892,0.0004363323129985824,0.0,0.0,0.0,0.0004363323129985824,0.0,0.0,0.0,0.0004363323129985824,-0.15099471807479858,0.0514264814555645,9.825268745422363,0.0004,0.0,0.0,0.0,0.0004,0.0,0.0,0.0,0.0004
2025/05/07 10:38:46.791147325,1746607126,598115504,mti/imu_base_body,-0.08725986983089479,0.996107411059272,0.0021937995199410813,-0.012285275477409027,0.017453292519943295,0.0,0.0,0.0,0.017453292519943295,0.0,0.0,0.0,0.15707963267948966,0.007869414053857327,-0.0011889219749718904,0.11556338518857956,0.0004363323129985824,0.0,0.0,0.0,0.0004363323129985824,0.0,0.0,0.0,0.0004363323129985824,-0.17036277055740356,0.04642181843519211,9.719541549682617,0.0004,0.0,0.0,0.0,0.0004,0.0,0.0,0.0,0.0004
2025/05/07 10:38:46.791372487,1746607126,647807475,mti/imu_base_body,-0.08671722135009763,0.9961546719850595,0.0022264509563401326,-0.012289667196288847,0.017453292519943295,0.0,0.0,0.0,0.017453292519943295,0.0,0.0,0.0,0.15707963267948966,-0.0001565978891449049,0.004091685172170401,0.11924579739570618,0.0004363323129985824,0.0,0.0,0.0,0.0004363323129985824,0.0,0.0,0.0,0.0004363323129985824,-0.1496027559041977,0.07350312918424606,9.82418441772461,0.0004,0.0,0.0,0.0,0.0004,0.0,0.0,0.0,0.0004
2025/05/07 10:38:46.791550468,1746607126,697905866,mti/imu_base_body,-0.08610933353340366,0.9962075991259479,0.0022559435582169968,-0.012268367487553987,0.017453292519943295,0.0,0.0,0.0,0.017453292519943295,0.0,0.0,0.0,0.15707963267948966,0.0014110887423157692,0.0006760473479516804,0.1225050687789917,0.0004363323129985824,0.0,0.0,0.0,0.0004363323129985824,0.0,0.0,0.0,0.0004363323129985824,-0.14296983182430267,0.04808664694428444,9.806777000427246,0.0004,0.0,0.0,0.0,0.0004,0.0,0.0,0.0,0.0004
2025/05/07 10:38:46.791690881,1746607126,747859387,mti/imu_base_body,-0.08547410836507213,0.9962623386327261,0.0022589840370466786,-0.012264844571693361,0.017453292519943295,0.0,0.0,0.0,0.017453292519943295,0.0,0.0,0.0,0.15707963267948966,0.007000287063419819,-0.0008833315805532038,0.13228891789913177,0.0004363323129985824,0.0,0.0,0.0,0.0004363323129985824,0.0,0.0,0.0,0.0004363323129985824,-0.1603802889585495,0.08506560325622559,9.833915710449219,0.0004,0.0,0.0,0.0,0.0004,0.0,0.0,0.0,0.0004
2025/05/07 10:38:46.798597355,1746607126,798311205,mti/imu_base_body,-0.0848714930858635,0.996314317179117,0.002253326272041439,-0.012228391799318662,0.017453292519943295,0.0,0.0,0.0,0.017453292519943295,0.0,0.0,0.0,0.15707963267948966,0.012102922424674034,0.00175530428532511,0.12528306245803833,0.0004363323129985824,0.0,0.0,0.0,0.0004363323129985824,0.0,0.0,0.0,0.0004363323129985824,-0.14205487072467804,0.08081641048192978,9.813135147094727,0.0004,0.0,0.0,0.0,0.0004,0.0,0.0,0.0,0.0004
2025/05/07 10:38:46.848247819,1746607126,847998470,mti/imu_base_body,-0.06431614546797493,0.9978496450426803,0.0036083306602693235,-0.012103688288498888,0.017453292519943295,0.0,0.0,0.0,0.017453292519943295,0.0,0.0,0.0,0.15707963267948966,-0.0035001279320567846,-0.0026283033657819033,0.13626545667648315,0.0004363323129985824,0.0,0.0,0.0,0.0004363323129985824,0.0,0.0,0.0,0.0004363323129985824,-0.13278618454933167,0.056159090250730515,9.859939575195312,0.0004,0.0,0.0,0.0,0.0004,0.0,0.0,0.0,0.0004
2025/05/07 10:38:46.898297223,1746607126,898055937,mti/imu_base_body,-0.06367332951684185,0.9978909037276589,0.003621359216628441,-0.01209698818961413,0.017453292519943295,0.0,0.0,0.0,0.017453292519943295,0.0,0.0,0.0,0.15707963267948966,0.004144860897213221,0.004493711516261101,0.13263340294361115,0.0004363323129985824,0.0,0.0,0.0,0.0004363323129985824,0.0,0.0,0.0,0.0004363323129985824,-0.0898793488740921,0.07710642367601395,9.920503616333008,0.0004,0.0,0.0,0.0,0.0004,0.0,0.0,0.0,0.0004
2025/05/07 10:38:46.948563261,1746607126,948213227,mti/imu_base_body,-0.06306414237396313,0.99792924240798,0.003651824282415423,-0.012116322589047553,0.017453292519943295,0.0,0.0,0.0,0.017453292519943295,0.0,0.0,0.0,0.15707963267948966,0.0014618023997172713,0.005165435373783112,0.12969264388084412,0.0004363323129985824,0.0,0.0,0.0,0.0004363323129985824,0.0,0.0,0.0,0.0004363323129985824,-0.18446587026119232,0.06360012292861938,9.744880676269531,0.0004,0.0,0.0,0.0,0.0004,0.0,0.0,0.0,0.0004
2025/05/07 10:38:46.998192251,1746607126,997904904,mti/imu_base_body,-0.06245111815315241,0.9979675073176948,0.003714539164123133,-0.012120824160332099,0.017453292519943295,0.0,0.0,0.0,0.017453292519943295,0.0,0.0,0.0,0.15707963267948966,-0.007854332216084003,0.004178705625236034,0.12645898759365082,0.0004363323129985824,0.0,0.0,0.0,0.0004363323129985824,0.0,0.0,0.0,0.0004363323129985824,-0.19597594439983368,0.041810210794210434,9.805987358093262,0.0004,0.0,0.0,0.0,0.0004,0.0,0.0,0.0,0.0004
2025/05/07 10:38:47.48062917,1746607127,47818490,mti/imu_base_body,-0.06183400257304206,0.9980056417559947,0.003785323876004996,-0.012122972909151828,0.017453292519943295,0.0,0.0,0.0,0.017453292519943295,0.0,0.0,0.0,0.15707963267948966,-0.005848254542797804,0.004645832348614931,0.1300070881843567,0.0004363323129985824,0.0,0.0,0.0,0.0004363323129985824,0.0,0.0,0.0,0.0004363323129985824,-0.15773232281208038,0.07491685450077057,9.830437660217285,0.0004,0.0,0.0,0.0,0.0004,0.0,0.0,0.0,0.0004
2025/05/07 10:38:47.98079751,1746607127,97820559,mti/imu_base_body,-0.061192412722659295,0.9980449766787358,0.0038268578064678503,-0.012127172417771174,0.017453292519943295,0.0,0.0,0.0,0.017453292519943295,0.0,0.0,0.0,0.15707963267948966,-0.0028541781939566135,0.004581280518323183,0.13227200508117676,0.0004363323129985824,0.0,0.0,0.0,0.0004363323129985824,0.0,0.0,0.0,0.0004363323129985824,-0.10994099825620651,0.06925550848245621,9.85931396484375,0.0004,0.0,0.0,0.0,0.0004,0.0,0.0,0.0,0.0004
2025/05/07 10:38:47.148005958,1746607127,147811683,mti/imu_base_body,-0.060537874474646425,0.9980841360516525,0.003884650673026851,-0.01217097388325543,0.017453292519943295,0.0,0.0,0.0,0.017453292519943295,0.0,0.0,0.0,0.15707963267948966,-0.0031119135674089193,0.009966548532247543,0.133626788854599,0.0004363323129985824,0.0,0.0,0.0,0.0004363323129985824,0.0,0.0,0.0,0.0004363323129985824,-0.14252974092960358,0.07589814811944962,9.817935943603516,0.0004,0.0,0.0,0.0,0.0004,0.0,0.0,0.0,0.0004
2025/05/07 10:38:47.198061153,1746607127,197793677,mti/imu_base_body,-0.059886823283063384,0.9981230600066595,0.0039569504389274585,-0.012176535764715547,0.017453292519943295,0.0,0.0,0.0,0.017453292519943295,0.0,0.0,0.0,0.15707963267948966,-0.009012647904455662,0.0011780117638409138,0.13667668402194977,0.0004363323129985824,0.0,0.0,0.0,0.0004363323129985824,0.0,0.0,0.0,0.0004363323129985824,-0.2026728391647339,0.05046388879418373,9.773950576782227,0.0004,0.0,0.0,0.0,0.0004,0.0,0.0,0.0,0.0004
2025/05/07 10:38:47.248186066,1746607127,247938663,mti/imu_base_body,-0.03858199798726675,0.9991635690784464,0.005853551147831193,-0.012219967131335087,0.017453292519943295,0.0,0.0,0.0,0.017453292519943295,0.0,0.0,0.0,0.15707963267948966,0.0023024268448352814,0.0045012542977929115,0.13283349573612213,0.0004363323129985824,0.0,0.0,0.0,0.0004363323129985824,0.0,0.0,0.0,0.0004363323129985824,-0.15615500509738922,0.07386306673288345,9.855165481567383,0.0004,0.0,0.0,0.0,0.0004,0.0,0.0,0.0,0.0004
2025/05/07 10:38:47.298338404,1746607127,298067219,mti/imu_base_body,-0.037923751246057236,0.9991884005001335,0.005881703728916344,-0.012236623662478076,0.017453292519943295,0.0,0.0,0.0,0.017453292519943295,0.0,0.0,0.0,0.15707963267948966,-0.002908542985096574,0.009414024651050568,0.13743744790554047,0.0004363323129985824,0.0,0.0,0.0,0.0004363323129985824,0.0,0.0,0.0,0.0004363323129985824,-0.15627038478851318,0.09178487956523895,9.835241317749023,0.0004,0.0,0.0,0.0,0.0004,0.0,0.0,0.0,0.0004
2025/05/07 10:38:47.348523939,1746607127,348056449,mti/imu_base_body,-0.03727713755091128,0.9992116011086378,0.005965301574795251,-0.01228846626087225,0.017453292519943295,0.0,0.0,0.0,0.017453292519943295,0.0,0.0,0.0,0.15707963267948966,-0.006394544616341591,0.013895177282392979,0.13250498473644257,0.0004363323129985824,0.0,0.0,0.0,0.0004363323129985824,0.0,0.0,0.0,0.0004363323129985824,-0.16875801980495453,0.09119947254657745,9.821078300476074,0.0004,0.0,0.0,0.0,0.0004,0.0,0.0,0.0,0.0004
2025/05/07 10:38:47.402009117,1746607127,397953384,mti/imu_base_body,-0.036631577915535674,0.9992346869644777,0.006025169517027591,-0.012323359879154418,0.017453292519943295,0.0,0.0,0.0,0.017453292519943295,0.0,0.0,0.0,0.15707963267948966,-0.008586994372308254,0.005611109547317028,0.13430266082286835,0.0004363323129985824,0.0,0.0,0.0,0.0004363323129985824,0.0,0.0,0.0,0.0004363323129985824,-0.16942359507083893,0.08323317021131516,9.81208324432373,0.0004,0.0,0.0,0.0,0.0004,0.0,0.0,0.0,0.0004
2025/05/07 10:38:47.450299598,1746607127,449865927,mti/imu_base_body,-0.035968624057481025,0.9992585246797363,0.0060861527633236006,-0.01231331323527017,0.017453292519943295,0.0,0.0,0.0,0.017453292519943295,0.0,0.0,0.0,0.15707963267948966,-0.0017532091587781906,-0.000357302138581872,0.14142955839633942,0.0004363323129985824,0.0,0.0,0.0,0.0004363323129985824,0.0,0.0,0.0,0.0004363323129985824,-0.18418510258197784,0.08682703226804733,9.768171310424805,0.0004,0.0,0.0,0.0,0.0004,0.0,0.0,0.0,0.0004
2025/05/07 10:38:47.498709800,1746607127,498080661,mti/imu_base_body,-0.03533256534424545,0.9992806970029257,0.00613143104096245,-0.01233304410644863,0.017453292519943295,0.0,0.0,0.0,0.017453292519943295,0.0,0.0,0.0,0.15707963267948966,-0.0031786237377673388,0.005668701604008675,0.1300189346075058,0.0004363323129985824,0.0,0.0,0.0,0.0004363323129985824,0.0,0.0,0.0,0.0004363323129985824,-0.1509496420621872,0.0932583212852478,9.867279052734375,0.0004,0.0,0.0,0.0,0.0004,0.0,0.0,0.0,0.0004
2025/05/07 10:38:47.554207818,1746607127,549032051,mti/imu_base_body,-0.034684521132183344,0.9993025568656013,0.006232625102709869,-0.012350636422133085,0.017453292519943295,0.0,0.0,0.0,0.017453292519943295,0.0,0.0,0.0,0.15707963267948966,-0.013261438347399235,0.008966794237494469,0.1321791410446167,0.0004363323129985824,0.0,0.0,0.0,0.0004363323129985824,0.0,0.0,0.0,0.0004363323129985824,-0.11028800159692764,0.09696564078330994,9.868918418884277,0.0004,0.0,0.0,0.0,0.0004,0.0,0.0,0.0,0.0004
2025/05/07 10:38:47.619519900,1746607127,598049808,mti/imu_base_body,-0.03406456391430612,0.9993233812883445,0.0063078939633298,-0.012352957925351446,0.017453292519943295,0.0,0.0,0.0,0.017453292519943295,0.0,0.0,0.0,0.15707963267948966,-0.005235541146248579,0.0052872225642204285,0.1299188882112503,0.0004363323129985824,0.0,0.0,0.0,0.0004363323129985824,0.0,0.0,0.0,0.0004363323129985824,-0.17298148572444916,0.08712408691644669,9.784965515136719,0.0004,0.0,0.0,0.0,0.0004,0.0,0.0,0.0,0.0004
2025/05/07 10:38:47.649148982,1746607127,648066168,mti/imu_base_body,-0.012674179633686444,0.9998111558765548,0.008049646525206155,-0.012337785304491816,0.017453292519943295,0.0,0.0,0.0,0.017453292519943295,0.0,0.0,0.0,0.15707963267948966,-0.0020782346837222576,0.0029604192823171616,0.1348157376050949,0.0004363323129985824,0.0,0.0,0.0,0.0004363323129985824,0.0,0.0,0.0,0.0004363323129985824,-0.12197259068489075,0.051679886877536774,9.932063102722168,0.0004,0.0,0.0,0.0,0.0004,0.0,0.0,0.0,0.0004
2025/05/07 10:38:47.698855204,1746607127,698395901,mti/imu_base_body,-0.012013789685541232,0.9998184903151313,0.008060344202914375,-0.01239702112176636,0.017453292519943295,0.0,0.0,0.0,0.017453292519943295,0.0,0.0,0.0,0.15707963267948966,0.003795695723965764,0.015656061470508575,0.13689790666103363,0.0004363323129985824,0.0,0.0,0.0,0.0004363323129985824,0.0,0.0,0.0,0.0004363323129985824,-0.11649897694587708,0.06924740225076675,9.829662322998047,0.0004,0.0,0.0,0.0,0.0004,0.0,0.0,0.0,0.0004
2025/05/07 10:38:47.776063495,1746607127,748804073,mti/imu_base_body,-0.011381462740073955,0.9998251038081765,0.008097636767387307,-0.012435930992447572,0.017453292519943295,0.0,0.0,0.0,0.017453292519943295,0.0,0.0,0.0,0.15707963267948966,-0.003256542608141899,0.007940235547721386,0.13496576249599457,0.0004363323129985824,0.0,0.0,0.0,0.0004363323129985824,0.0,0.0,0.0,0.0004363323129985824,-0.13907572627067566,0.04983803257346153,9.756348609924316,0.0004,0.0,0.0,0.0,0.0004,0.0,0.0,0.0,0.0004
2025/05/07 10:38:47.802544479,1746607127,798212648,mti/imu_base_body,-0.010723097800585779,0.9998314835757313,0.008154082080914405,-0.01247118958755626,0.017453292519943295,0.0,0.0,0.0,0.017453292519943295,0.0,0.0,0.0,0.15707963267948966,-0.00275296694599092,0.008206663653254509,0.1336742788553238,0.0004363323129985824,0.0,0.0,0.0,0.0004363323129985824,0.0,0.0,0.0,0.0004363323129985824,-0.1352519392967224,0.05598291754722595,9.862936019897461,0.0004,0.0,0.0,0.0,0.0004,0.0,0.0,0.0,0.0004
2025/05/07 10:38:47.849674125,1746607127,849122135,mti/imu_base_body,-0.010130722190155428,0.999837477601631,0.008199968315564465,-0.012455816743094022,0.017453292519943295,0.0,0.0,0.0,0.017453292519943295,0.0,0.0,0.0,0.15707963267948966,0.0015052707167342305,0.004163068253546953,0.12955892086029053,0.0004363323129985824,0.0,0.0,0.0,0.0004363323129985824,0.0,0.0,0.0,0.0004363323129985824,-0.1623927801847458,0.0554363951086998,9.803317070007324,0.0004,0.0,0.0,0.0,0.0004,0.0,0.0,0.0,0.0004
2025/05/07 10:38:47.902384768,1746607127,898617338,mti/imu_base_body,-0.00946035420429886,0.9998436499822083,0.008211064693890748,-0.012480212545356275,0.017453292519943295,0.0,0.0,0.0,0.017453292519943295,0.0,0.0,0.0,0.15707963267948966,-0.0005003230762667954,0.0025113332085311413,0.1370004564523697,0.0004363323129985824,0.0,0.0,0.0,0.0004363323129985824,0.0,0.0,0.0,0.0004363323129985824,-0.13861536979675293,0.0639544352889061,9.883221626281738,0.0004,0.0,0.0,0.0,0.0004,0.0,0.0,0.0,0.0004
2025/05/07 10:38:47.952428544,1746607127,948067551,mti/imu_base_body,-0.00881073678136135,0.9998493264862437,0.00823802688926438,-0.012483194917412035,0.017453292519943295,0.0,0.0,0.0,0.017453292519943295,0.0,0.0,0.0,0.15707963267948966,0.00559264188632369,0.0079070795327425,0.13427498936653137,0.0004363323129985824,0.0,0.0,0.0,0.0004363323129985824,0.0,0.0,0.0,0.0004363323129985824,-0.1256352663040161,0.07025118172168732,9.834717750549316,0.0004,0.0,0.0,0.0,0.0004,0.0,0.0,0.0,0.0004
2025/05/07 10:38:47.998662024,1746607127,998298698,mti/imu_base_body,-0.008184132655127407,0.9998548310519791,0.008222952003373373,-0.012478776184053388,0.017453292519943295,0.0,0.0,0.0,0.017453292519943295,0.0,0.0,0.0,0.15707963267948966,0.007241080515086651,0.00015871455252636224,0.12937194108963013,0.0004363323129985824,0.0,0.0,0.0,0.0004363323129985824,0.0,0.0,0.0,0.0004363323129985824,-0.16735708713531494,0.06137019395828247,9.706568717956543,0.0004,0.0,0.0,0.0,0.0004,0.0,0.0,0.0,0.0004
2025/05/07 10:38:48.48439677,1746607128,48044180,mti/imu_base_body,0.013658517006905013,0.9998063180967414,0.007064076499931163,-0.012282916193345665,0.017453292519943295,0.0,0.0,0.0,0.017453292519943295,0.0,0.0,0.0,0.15707963267948966,0.016994928941130638,-0.001781278639100492,0.14123916625976562,0.0004363323129985824,0.0,0.0,0.0,0.0004363323129985824,0.0,0.0,0.0,0.0004363323129985824,-0.125396266579628,0.07019887864589691,9.906015396118164,0.0004,0.0,0.0,0.0,0.0004,0.0,0.0,0.0,0.0004
2025/05/07 10:38:48.98480499,1746607128,98194573,mti/imu_base_body,0.01434606262676924,0.9997973606429906,0.0069890303538100804,-0.012271169183572099,0.017453292519943295,0.0,0.0,0.0,0.017453292519943295,0.0,0.0,0.0,0.15707963267948966,0.026688728481531143,0.003309631487354636,0.14709731936454773,0.0004363323129985824,0.0,0.0,0.0,0.0004363323129985824,0.0,0.0,0.0,0.0004363323129985824,-0.12101072072982788,0.07143501192331314,9.778289794921875,0.0004,0.0,0.0,0.0,0.0004,0.0,0.0,0.0,0.0004
2025/05/07 10:38:48.149067479,1746607128,148633165,mti/imu_base_body,0.015053524575348087,0.9997878160552951,0.006897298280893853,-0.012253225765791517,0.017453292519943295,0.0,0.0,0.0,0.017453292519943295,0.0,0.0,0.0,0.15707963267948966,0.022772252559661865,-0.00011195979459444061,0.1452735811471939,0.0004363323129985824,0.0,0.0,0.0,0.0004363323129985824,0.0,0.0,0.0,0.0004363323129985824,-0.1286088079214096,0.04024453088641167,9.781782150268555,0.0004,0.0,0.0,0.0,0.0004,0.0,0.0,0.0,0.0004
2025/05/07 10:38:48.198989545,1746607128,198596868,mti/imu_base_body,0.01576770017079482,0.9997774964085901,0.006810902803562847,-0.012245362767015317,0.017453292519943295,0.0,0.0,0.0,0.017453292519943295,0.0,0.0,0.0,0.15707963267948966,0.026025112718343735,0.0014871041057631373,0.15273553133010864,0.0004363323129985824,0.0,0.0,0.0,0.0004363323129985824,0.0,0.0,0.0,0.0004363323129985824,-0.13557292520999908,0.06544774770736694,9.813719749450684,0.0004,0.0,0.0,0.0,0.0004,0.0,0.0,0.0,0.0004
2025/05/07 10:38:48.248390125,1746607128,248089399,mti/imu_base_body,0.01640015494068131,0.9997676240053321,0.006734973562448286,-0.012262668541854432,0.017453292519943295,0.0,0.0,0.0,0.017453292519943295,0.0,0.0,0.0,0.15707963267948966,0.022291602566838264,0.003145894268527627,0.1341555416584015,0.0004363323129985824,0.0,0.0,0.0,0.0004363323129985824,0.0,0.0,0.0,0.0004363323129985824,-0.13125331699848175,0.09327384829521179,9.769177436828613,0.0004,0.0,0.0,0.0,0.0004,0.0,0.0,0.0,0.0004
2025/05/07 10:38:48.298514868,1746607128,298185937,mti/imu_base_body,0.017098489723865518,0.9997565705290328,0.006670746730473539,-0.012245099887199748,0.017453292519943295,0.0,0.0,0.0,0.017453292519943295,0.0,0.0,0.0,0.15707963267948966,0.017716059461236,0.0007040707860141993,0.14351435005664825,0.0004363323129985824,0.0,0.0,0.0,0.0004363323129985824,0.0,0.0,0.0,0.0004363323129985824,-0.09711442142724991,0.06814432144165039,9.914141654968262,0.0004,0.0,0.0,0.0,0.0004,0.0,0.0,0.0,0.0004
2025/05/07 10:38:48.349299991,1746607128,348910266,mti/imu_base_body,0.01778199342986181,0.9997448696045479,0.0065861265180986,-0.012272707384011376,0.017453292519943295,0.0,0.0,0.0,0.017453292519943295,0.0,0.0,0.0,0.15707963267948966,0.02412393130362034,0.01269802451133728,0.1454363465309143,0.0004363323129985824,0.0,0.0,0.0,0.0004363323129985824,0.0,0.0,0.0,0.0004363323129985824,-0.13301321864128113,0.07224704325199127,9.786103248596191,0.0004,0.0,0.0,0.0,0.0004,0.0,0.0,0.0,0.0004
2025/05/07 10:38:48.399457616,1746607128,398254462,mti/imu_base_body,0.018468472022942217,0.9997327351836702,0.006498755382822048,-0.012293897746019463,0.017453292519943295,0.0,0.0,0.0,0.017453292519943295,0.0,0.0,0.0,0.15707963267948966,0.023478206247091293,0.004284572321921587,0.14569774270057678,0.0004363323129985824,0.0,0.0,0.0,0.0004363323129985824,0.0,0.0,0.0,0.0004363323129985824,-0.1545090526342392,0.08241719007492065,9.697303771972656,0.0004,0.0,0.0,0.0,0.0004,0.0,0.0,0.0,0.0004
2025/05/07 10:38:48.450011973,1746607128,448786762,mti/imu_base_body,0.040849989779977336,0.9990807328389067,0.004156157436040194,-0.012316410208153106,0.017453292519943295,0.0,0.0,0.0,0.017453292519943295,0.0,0.0,0.0,0.15707963267948966,0.017728593200445175,0.004806457087397575,0.13710333406925201,0.0004363323129985824,0.0,0.0,0.0,0.0004363323129985824,0.0,0.0,0.0,0.0004363323129985824,-0.11089810729026794,0.08818622678518295,9.936725616455078,0.0004,0.0,0.0,0.0,0.0004,0.0,0.0,0.0,0.0004
2025/05/07 10:38:48.498386570,1746607128,497996451,mti/imu_base_body,0.0415396184181408,0.9990528712731298,0.0041274691271827105,-0.012279434074688577,0.017453292519943295,0.0,0.0,0.0,0.017453292519943295,0.0,0.0,0.0,0.15707963267948966,0.0132956737652421,-0.003608248196542263,0.14829455316066742,0.0004363323129985824,0.0,0.0,0.0,0.0004363323129985824,0.0,0.0,0.0,0.0004363323129985824,-0.12158588320016861,0.09884633868932724,9.745170593261719,0.0004,0.0,0.0,0.0,0.0004,0.0,0.0,0.0,0.0004
2025/05/07 10:38:48.549188212,1746607128,548047174,mti/imu_base_body,0.04224130183385705,0.9990239352149544,0.004054045066916137,-0.012264338775624788,0.017453292519943295,0.0,0.0,0.0,0.017453292519943295,0.0,0.0,0.0,0.15707963267948966,0.023248758167028427,-0.003260955912992358,0.1434909850358963,0.0004363323129985824,0.0,0.0,0.0,0.0004363323129985824,0.0,0.0,0.0,0.0004363323129985824,-0.11476609110832214,0.097941093146801,9.797250747680664,0.0004,0.0,0.0,0.0,0.0004,0.0,0.0,0.0,0.0004
2025/05/07 10:38:48.650837650,1746607128,598195091,mti/imu_base_body,0.04290205490931859,0.9989959674496132,0.004008989955466255,-0.012263714914577777,0.017453292519943295,0.0,0.0,0.0,0.017453292519943295,0.0,0.0,0.0,0.15707963267948966,0.014844929799437523,0.0026988342870026827,0.14355850219726562,0.0004363323129985824,0.0,0.0,0.0,0.0004363323129985824,0.0,0.0,0.0,0.0004363323129985824,-0.11417584121227264,0.08991227298974991,9.85966682434082,0.0004,0.0,0.0,0.0,0.0004,0.0,0.0,0.0,0.0004
2025/05/07 10:38:48.656575676,1746607128,648147754,mti/imu_base_body,0.04355029409036276,0.9989681992957198,0.003977548932134069,-0.012251031997447207,0.017453292519943295,0.0,0.0,0.0,0.017453292519943295,0.0,0.0,0.0,0.15707963267948966,0.016451220959424973,0.001757676713168621,0.13292191922664642,0.0004363323129985824,0.0,0.0,0.0,0.0004363323129985824,0.0,0.0,0.0,0.0004363323129985824,-0.1436515897512436,0.09147313237190247,9.732707977294922,0.0004,0.0,0.0,0.0,0.0004,0.0,0.0,0.0,0.0004
2025/05/07 10:38:48.698893367,1746607128,697964579,mti/imu_base_body,0.04422230047456177,0.9989387070438392,0.0038945054301250566,-0.012275200111398776,0.017453292519943295,0.0,0.0,0.0,0.017453292519943295,0.0,0.0,0.0,0.15707963267948966,0.018628768622875214,0.008264853619039059,0.14406687021255493,0.0004363323129985824,0.0,0.0,0.0,0.0004363323129985824,0.0,0.0,0.0,0.0004363323129985824,-0.12061800807714462,0.09079629927873611,9.908642768859863,0.0004,0.0,0.0,0.0,0.0004,0.0,0.0,0.0,0.0004
2025/05/07 10:38:48.748590623,1746607128,747982459,mti/imu_base_body,0.04491613242643644,0.9989078535149334,0.003844409803660574,-0.012282579016664146,0.017453292519943295,0.0,0.0,0.0,0.017453292519943295,0.0,0.0,0.0,0.15707963267948966,0.02068214677274227,0.00878683477640152,0.14811575412750244,0.0004363323129985824,0.0,0.0,0.0,0.0004363323129985824,0.0,0.0,0.0,0.0004363323129985824,-0.12892401218414307,0.13143876194953918,9.775779724121094,0.0004,0.0,0.0,0.0,0.0004,0.0,0.0,0.0,0.0004
2025/05/07 10:38:48.799186178,1746607128,798064868,mti/imu_base_body,0.04561154325298766,0.9988767194475942,0.003776179393229325,-0.012273016617081148,0.017453292519943295,0.0,0.0,0.0,0.017453292519943295,0.0,0.0,0.0,0.15707963267948966,0.02160525508224964,0.00033751066075637937,0.14879362285137177,0.0004363323129985824,0.0,0.0,0.0,0.0004363323129985824,0.0,0.0,0.0,0.0004363323129985824,-0.13023117184638977,0.12239769846200943,9.733532905578613,0.0004,0.0,0.0,0.0,0.0004,0.0,0.0,0.0,0.0004
2025/05/07 10:38:48.848764742,1746607128,848145187,mti/imu_base_body,0.06779598787979413,0.9976211134895844,0.0028877463438681797,-0.012144087790274673,0.017453292519943295,0.0,0.0,0.0,0.017453292519943295,0.0,0.0,0.0,0.15707963267948966,0.0020946708973497152,-0.006011395249515772,0.14230111241340637,0.0004363323129985824,0.0,0.0,0.0,0.0004363323129985824,0.0,0.0,0.0,0.0004363323129985824,-0.08395299315452576,0.08666115999221802,9.9365873336792,0.0004,0.0,0.0,0.0,0.0004,0.0,0.0,0.0,0.0004
2025/05/07 10:38:48.913351675,1746607128,898784543,mti/imu_base_body,0.06846113145558413,0.9975765436679809,0.0028668552722398433,-0.012078664831606476,0.017453292519943295,0.0,0.0,0.0,0.017453292519943295,0.0,0.0,0.0,0.15707963267948966,0.013477836735546589,-0.0018984784837812185,0.14622028172016144,0.0004363323129985824,0.0,0.0,0.0,0.0004363323129985824,0.0,0.0,0.0,0.0004363323129985824,-0.16748301684856415,0.10895030200481415,9.726743698120117,0.0004,0.0,0.0,0.0,0.0004,0.0,0.0,0.0,0.0004
2025/05/07 10:38:48.955430614,1746607128,954926769,mti/imu_base_body,0.06914756739713068,0.997529556668634,0.0028064002376756454,-0.012063233946323157,0.017453292519943295,0.0,0.0,0.0,0.017453292519943295,0.0,0.0,0.0,0.15707963267948966,0.015211207792162895,-0.008303250186145306,0.14203615486621857,0.0004363323129985824,0.0,0.0,0.0,0.0004363323129985824,0.0,0.0,0.0,0.0004363323129985824,-0.1304207444190979,0.08308113366365433,9.806879043579102,0.0004,0.0,0.0,0.0,0.0004,0.0,0.0,0.0,0.0004
2025/05/07 10:38:48.999807602,1746607128,998589615,mti/imu_base_body,0.06984938352750247,0.997480762776856,0.002823145917576278,-0.01205078246660509,0.017453292519943295,0.0,0.0,0.0,0.017453292519943295,0.0,0.0,0.0,0.15707963267948966,0.0008230148232541978,0.00672614760696888,0.15079934895038605,0.0004363323129985824,0.0,0.0,0.0,0.0004363323129985824,0.0,0.0,0.0,0.0004363323129985824,-0.10274907946586609,0.08967868983745575,9.894229888916016,0.0004,0.0,0.0,0.0,0.0004,0.0,0.0,0.0,0.0004
2025/05/07 10:38:49.49731108,1746607129,48217686,mti/imu_base_body,0.07051655485111252,0.9974342647800579,0.0028502051807780416,-0.012007467052753266,0.017453292519943295,0.0,0.0,0.0,0.017453292519943295,0.0,0.0,0.0,0.15707963267948966,0.0041642580181360245,-0.004166821017861366,0.14157734811306,0.0004363323129985824,0.0,0.0,0.0,0.0004363323129985824,0.0,0.0,0.0,0.0004363323129985824,-0.12608258426189423,0.12019363790750504,9.738340377807617,0.0004,0.0,0.0,0.0,0.0004,0.0,0.0,0.0,0.0004
2025/05/07 10:38:49.115132329,1746607129,98109083,mti/imu_base_body,0.07121286422592171,0.9973845101002863,0.002850066643971123,-0.012030964253831456,0.017453292519943295,0.0,0.0,0.0,0.017453292519943295,0.0,0.0,0.0,0.15707963267948966,0.004696424584835768,0.010603733360767365,0.15084774792194366,0.0004363323129985824,0.0,0.0,0.0,0.0004363323129985824,0.0,0.0,0.0,0.0004363323129985824,-0.11487621814012527,0.08603394031524658,9.906966209411621,0.0004,0.0,0.0,0.0,0.0004,0.0,0.0,0.0,0.0004
2025/05/07 10:38:49.148555497,1746607129,148187149,mti/imu_base_body,0.07190636516567328,0.9973344796042012,0.0028623041584953405,-0.01205062887082236,0.017453292519943295,0.0,0.0,0.0,0.017453292519943295,0.0,0.0,0.0,0.15707963267948966,0.003394189290702343,0.009032034315168858,0.14058272540569305,0.0004363323129985824,0.0,0.0,0.0,0.0004363323129985824,0.0,0.0,0.0,0.0004363323129985824,-0.1511344164609909,0.09801013767719269,9.771604537963867,0.0004,0.0,0.0,0.0,0.0004,0.0,0.0,0.0,0.0004
2025/05/07 10:38:49.198700688,1746607129,198313299,mti/imu_base_body,0.07259652904987424,0.9972846805174713,0.002893313974959717,-0.012026583443281762,0.017453292519943295,0.0,0.0,0.0,0.017453292519943295,0.0,0.0,0.0,0.15707963267948966,0.0022397972643375397,-0.0008093660580925643,0.14591580629348755,0.0004363323129985824,0.0,0.0,0.0,0.0004363323129985824,0.0,0.0,0.0,0.0004363323129985824,-0.13145989179611206,0.09857035428285599,9.745552062988281,0.0004,0.0,0.0,0.0,0.0004,0.0,0.0,0.0,0.0004
2025/05/07 10:38:49.262083407,1746607129,248074081,mti/imu_base_body,0.09489485224701522,0.9954060867239518,0.00423797466264241,-0.011988707214878687,0.017453292519943295,0.0,0.0,0.0,0.017453292519943295,0.0,0.0,0.0,0.15707963267948966,-0.0012650766875594854,-0.00213182857260108,0.1450333446264267,0.0004363323129985824,0.0,0.0,0.0,0.0004363323129985824,0.0,0.0,0.0,0.0004363323129985824,-0.058200884610414505,0.12197941541671753,9.90114688873291,0.0004,0.0,0.0,0.0,0.0004,0.0,0.0,0.0,0.0004
2025/05/07 10:38:49.301000776,1746607129,298291458,mti/imu_base_body,0.09557084488492834,0.9953413163577991,0.004253599620482335,-0.01199101536039223,0.017453292519943295,0.0,0.0,0.0,0.017453292519943295,0.0,0.0,0.0,0.15707963267948966,0.0030087728518992662,0.0055451542139053345,0.1442432552576065,0.0004363323129985824,0.0,0.0,0.0,0.0004363323129985824,0.0,0.0,0.0,0.0004363323129985824,-0.06601918488740921,0.11484533548355103,9.792526245117188,0.0004,0.0,0.0,0.0,0.0004,0.0,0.0,0.0,0.0004
2025/05/07 10:38:49.348962630,1746607129,348085762,mti/imu_base_body,0.09625339656116066,0.9952757641776917,0.004291384676899237,-0.011959134939719458,0.017453292519943295,0.0,0.0,0.0,0.017453292519943295,0.0,0.0,0.0,0.15707963267948966,-1.8688951968215406e-05,-0.0012429716298356652,0.1479979306459427,0.0004363323129985824,0.0,0.0,0.0,0.0004363323129985824,0.0,0.0,0.0,0.0004363323129985824,-0.0470409020781517,0.13316315412521362,9.824434280395508,0.0004,0.0,0.0,0.0,0.0004,0.0,0.0,0.0,0.0004
2025/05/07 10:38:49.398929341,1746607129,398261642,mti/imu_base_body,0.09697978401799201,0.9952052762852215,0.004341407862422486,-0.011938665069909319,0.017453292519943295,0.0,0.0,0.0,0.017453292519943295,0.0,0.0,0.0,0.15707963267948966,-0.0033053394872695208,0.003035701811313629,0.15018771588802338,0.0004363323129985824,0.0,0.0,0.0,0.0004363323129985824,0.0,0.0,0.0,0.0004363323129985824,-0.08061525225639343,0.12563689053058624,9.832273483276367,0.0004,0.0,0.0,0.0,0.0004,0.0,0.0,0.0,0.0004
2025/05/07 10:38:49.449723697,1746607129,448223794,mti/imu_base_body,0.09766350663344964,0.9951382939614906,0.004389219382768798,-0.011931056813284647,0.017453292519943295,0.0,0.0,0.0,0.017453292519943295,0.0,0.0,0.0,0.15707963267948966,-0.008276726119220257,0.004722339566797018,0.1486092507839203,0.0004363323129985824,0.0,0.0,0.0,0.0004363323129985824,0.0,0.0,0.0,0.0004363323129985824,-0.10332390666007996,0.14024902880191803,9.684775352478027,0.0004,0.0,0.0,0.0,0.0004,0.0,0.0,0.0,0.0004
2025/05/07 10:38:49.498326178,1746607129,497935489,mti/imu_base_body,0.09834495245224728,0.9950707546038562,0.0044933997936116524,-0.011927825349658352,0.017453292519943295,0.0,0.0,0.0,0.017453292519943295,0.0,0.0,0.0,0.15707963267948966,-0.013089590705931187,0.004702979698777199,0.14486946165561676,0.0004363323129985824,0.0,0.0,0.0,0.0004363323129985824,0.0,0.0,0.0,0.0004363323129985824,-0.05138751119375229,0.15375544130802155,9.905346870422363,0.0004,0.0,0.0,0.0,0.0004,0.0,0.0,0.0,0.0004
2025/05/07 10:38:49.548191504,1746607129,547815239,mti/imu_base_body,0.09902148020633267,0.9950031137132309,0.004571081771359845,-0.011943842353338282,0.017453292519943295,0.0,0.0,0.0,0.017453292519943295,0.0,0.0,0.0,0.15707963267948966,-0.005646422039717436,0.007821084931492805,0.141550213098526,0.0004363323129985824,0.0,0.0,0.0,0.0004363323129985824,0.0,0.0,0.0,0.0004363323129985824,-0.05222500115633011,0.1696678102016449,9.817117691040039,0.0004,0.0,0.0,0.0,0.0004,0.0,0.0,0.0,0.0004
2025/05/07 10:38:49.600136487,1746607129,598918130,mti/imu_base_body,0.09970361511231374,0.9949347470253923,0.0046414111495134735,-0.011937151988446158,0.017453292519943295,0.0,0.0,0.0,0.017453292519943295,0.0,0.0,0.0,0.15707963267948966,-0.007988810539245605,0.0030218802858144045,0.147261381149292,0.0004363323129985824,0.0,0.0,0.0,0.0004363323129985824,0.0,0.0,0.0,0.0004363323129985824,-0.07158635556697845,0.13918639719486237,9.741278648376465,0.0004,0.0,0.0,0.0,0.0004,0.0,0.0,0.0,0.0004
2025/05/07 10:38:49.648915559,1746607129,648330701,mti/imu_base_body,0.12203381975465621,0.9924432340420513,0.0060939411728171715,-0.011271110026278022,0.017453292519943295,0.0,0.0,0.0,0.017453292519943295,0.0,0.0,0.0,0.15707963267948966,0.0075219739228487015,0.004354818724095821,0.147471621632576,0.0004363323129985824,0.0,0.0,0.0,0.0004363323129985824,0.0,0.0,0.0,0.0004363323129985824,-0.02793506719172001,0.18252430856227875,10.022135734558105,0.0004,0.0,0.0,0.0,0.0004,0.0,0.0,0.0,0.0004
2025/05/07 10:38:49.698911086,1746607129,698406522,mti/imu_base_body,0.12269466145342517,0.992361523754264,0.006114650346817737,-0.011279950092113685,0.017453292519943295,0.0,0.0,0.0,0.017453292519943295,0.0,0.0,0.0,0.15707963267948966,-0.001353475614450872,0.001890724990516901,0.1432969719171524,0.0004363323129985824,0.0,0.0,0.0,0.0004363323129985824,0.0,0.0,0.0,0.0004363323129985824,-0.0953676849603653,0.1391003280878067,9.683951377868652,0.0004,0.0,0.0,0.0,0.0004,0.0,0.0,0.0,0.0004
2025/05/07 10:38:49.750764966,1746607129,749512242,mti/imu_base_body,0.12339542795845848,0.9922746316977312,0.00615885598839676,-0.011255760347250792,0.017453292519943295,0.0,0.0,0.0,0.017453292519943295,0.0,0.0,0.0,0.15707963267948966,0.0024811297189444304,0.0034753186628222466,0.14983975887298584,0.0004363323129985824,0.0,0.0,0.0,0.0004363323129985824,0.0,0.0,0.0,0.0004363323129985824,-0.09203240275382996,0.0824166014790535,9.786211967468262,0.0004,0.0,0.0,0.0,0.0004,0.0,0.0,0.0,0.0004
2025/05/07 10:38:49.798514609,1746607129,798005661,mti/imu_base_body,0.12404485909304075,0.9921941395749196,0.006164947824327806,-0.011209627295135796,0.017453292519943295,0.0,0.0,0.0,0.017453292519943295,0.0,0.0,0.0,0.15707963267948966,0.0016692446079105139,-0.006554304156452417,0.14314380288124084,0.0004363323129985824,0.0,0.0,0.0,0.0004363323129985824,0.0,0.0,0.0,0.0004363323129985824,-0.05596271902322769,0.11937400698661804,9.955788612365723,0.0004,0.0,0.0,0.0,0.0004,0.0,0.0,0.0,0.0004
2025/05/07 10:38:49.848308993,1746607129,847922876,mti/imu_base_body,0.12473286746623319,0.9921081115266956,0.006166514004323267,-0.011188428022699102,0.017453292519943295,0.0,0.0,0.0,0.017453292519943295,0.0,0.0,0.0,0.15707963267948966,0.00886346586048603,0.00032410077983513474,0.14052759110927582,0.0004363323129985824,0.0,0.0,0.0,0.0004363323129985824,0.0,0.0,0.0,0.0004363323129985824,-0.059023693203926086,0.14940108358860016,9.667465209960938,0.0004,0.0,0.0,0.0,0.0004,0.0,0.0,0.0,0.0004
2025/05/07 10:38:49.898339402,1746607129,897874365,mti/imu_base_body,0.12539045577109426,0.9920250365869403,0.006182503098687297,-0.011195402700737527,0.017453292519943295,0.0,0.0,0.0,0.017453292519943295,0.0,0.0,0.0,0.15707963267948966,0.0024223686195909977,0.0003996222803834826,0.14801254868507385,0.0004363323129985824,0.0,0.0,0.0,0.0004363323129985824,0.0,0.0,0.0,0.0004363323129985824,-0.0723528265953064,0.12887626886367798,9.869014739990234,0.0004,0.0,0.0,0.0,0.0004,0.0,0.0,0.0,0.0004
2025/05/07 10:38:49.948243773,1746607129,947848684,mti/imu_base_body,0.12609077862767742,0.9919362612194325,0.0061822243310387225,-0.01119595129501681,0.017453292519943295,0.0,0.0,0.0,0.017453292519943295,0.0,0.0,0.0,0.15707963267948966,0.003222842002287507,0.004595765843987465,0.1495453119277954,0.0004363323129985824,0.0,0.0,0.0,0.0004363323129985824,0.0,0.0,0.0,0.0004363323129985824,-0.1065060943365097,0.13370907306671143,9.808917045593262,0.0004,0.0,0.0,0.0,0.0004,0.0,0.0,0.0,0.0004
2025/05/07 10:38:49.998347299,1746607129,997938682,mti/imu_base_body,0.12676317576969537,0.9918508746379067,0.00620562346597709,-0.011154818967558804,0.017453292519943295,0.0,0.0,0.0,0.017453292519943295,0.0,0.0,0.0,0.15707963267948966,0.004569189622998238,0.0008503072313033044,0.14627310633659363,0.0004363323129985824,0.0,0.0,0.0,0.0004363323129985824,0.0,0.0,0.0,0.0004363323129985824,-0.09154162555932999,0.17065538465976715,9.71792221069336,0.0004,0.0,0.0,0.0,0.0004,0.0,0.0,0.0,0.0004
2025/05/07 10:38:50.48318482,1746607130,47942641,mti/imu_base_body,0.14860650958932897,0.988816043742407,0.006225668281896046,-0.010962572678644044,0.017453292519943295,0.0,0.0,0.0,0.017453292519943295,0.0,0.0,0.0,0.15707963267948966,0.014330074191093445,0.007132336497306824,0.14831076562404633,0.0004363323129985824,0.0,0.0,0.0,0.0004363323129985824,0.0,0.0,0.0,0.0004363323129985824,-0.07204875349998474,0.09747210144996643,9.993124961853027,0.0004,0.0,0.0,0.0,0.0004,0.0,0.0,0.0,0.0004
2025/05/07 10:38:50.98403128,1746607130,97940259,mti/imu_base_body,0.14922814603494933,0.9887226396556832,0.0062337454943694045,-0.010938129656436254,0.017453292519943295,0.0,0.0,0.0,0.017453292519943295,0.0,0.0,0.0,0.15707963267948966,0.006101634353399277,0.001162813394330442,0.12949883937835693,0.0004363323129985824,0.0,0.0,0.0,0.0004363323129985824,0.0,0.0,0.0,0.0004363323129985824,-0.08407949656248093,0.15910227596759796,9.72559642791748,0.0004,0.0,0.0,0.0,0.0004,0.0,0.0,0.0,0.0004
2025/05/07 10:38:50.148287708,1746607130,147963280,mti/imu_base_body,0.14984411853400276,0.9886297668825836,0.006204210032996066,-0.010928492683000585,0.017453292519943295,0.0,0.0,0.0,0.017453292519943295,0.0,0.0,0.0,0.15707963267948966,0.010274337604641914,-0.00029821463976986706,0.1362472027540207,0.0004363323129985824,0.0,0.0,0.0,0.0004363323129985824,0.0,0.0,0.0,0.0004363323129985824,-0.06067708507180214,0.1791137009859085,9.829394340515137,0.0004,0.0,0.0,0.0,0.0004,0.0,0.0,0.0,0.0004
2025/05/07 10:38:50.198146666,1746607130,197837440,mti/imu_base_body,0.15048737747882796,0.9885321179725715,0.006169746162037918,-0.01094235753859954,0.017453292519943295,0.0,0.0,0.0,0.017453292519943295,0.0,0.0,0.0,0.15707963267948966,0.010987895540893078,0.005967985838651657,0.14106784760951996,0.0004363323129985824,0.0,0.0,0.0,0.0004363323129985824,0.0,0.0,0.0,0.0004363323129985824,-0.07401621341705322,0.16225551068782806,9.960711479187012,0.0004,0.0,0.0,0.0,0.0004,0.0,0.0,0.0,0.0004
2025/05/07 10:38:50.248520414,1746607130,248139521,mti/imu_base_body,0.15113116154105172,0.9884341956907787,0.006130757238891756,-0.01093739530479407,0.017453292519943295,0.0,0.0,0.0,0.017453292519943295,0.0,0.0,0.0,0.15707963267948966,0.018532859161496162,0.004473608452826738,0.14462187886238098,0.0004363323129985824,0.0,0.0,0.0,0.0004363323129985824,0.0,0.0,0.0,0.0004363323129985824,-0.13961036503314972,0.10900285840034485,9.639458656311035,0.0004,0.0,0.0,0.0,0.0004,0.0,0.0,0.0,0.0004
2025/05/07 10:38:50.298947048,1746607130,298255741,mti/imu_base_body,0.1517715362967837,0.9883358820589316,0.006125971188613046,-0.010957074513920622,0.017453292519943295,0.0,0.0,0.0,0.017453292519943295,0.0,0.0,0.0,0.15707963267948966,0.005987289361655712,0.003594539361074567,0.14043009281158447,0.0004363323129985824,0.0,0.0,0.0,0.0004363323129985824,0.0,0.0,0.0,0.0004363323129985824,-0.05686096101999283,0.11189448088407516,9.977750778198242,0.0004,0.0,0.0,0.0,0.0004,0.0,0.0,0.0,0.0004
2025/05/07 10:38:50.358271660,1746607130,348858527,mti/imu_base_body,0.15242872341694846,0.9882343982512084,0.006160110577029364,-0.010968656628320438,0.017453292519943295,0.0,0.0,0.0,0.017453292519943295,0.0,0.0,0.0,0.15707963267948966,0.003038529772311449,0.007490066345781088,0.13977982103824615,0.0004363323129985824,0.0,0.0,0.0,0.0004363323129985824,0.0,0.0,0.0,0.0004363323129985824,-0.042202867567539215,0.15435564517974854,9.853621482849121,0.0004,0.0,0.0,0.0,0.0004,0.0,0.0,0.0,0.0004
2025/05/07 10:38:50.410417143,1746607130,398612798,mti/imu_base_body,0.1530663555920767,0.9881354374433285,0.006204529529988742,-0.010979611457288025,0.017453292519943295,0.0,0.0,0.0,0.017453292519943295,0.0,0.0,0.0,0.15707963267948966,-0.0033268381375819445,0.0040635839104652405,0.14198563992977142,0.0004363323129985824,0.0,0.0,0.0,0.0004363323129985824,0.0,0.0,0.0,0.0004363323129985824,-0.08618894219398499,0.16342124342918396,9.63569164276123,0.0004,0.0,0.0,0.0,0.0004,0.0,0.0,0.0,0.0004
2025/05/07 10:38:50.448963561,1746607130,448116479,mti/imu_base_body,0.1737597528920427,0.98470204664733,0.005908115968191834,-0.01159835200199448,0.017453292519943295,0.0,0.0,0.0,0.017453292519943295,0.0,0.0,0.0,0.15707963267948966,0.010002546943724155,0.005243784282356501,0.13515982031822205,0.0004363323129985824,0.0,0.0,0.0,0.0004363323129985824,0.0,0.0,0.0,0.0004363323129985824,-0.10704455524682999,0.16922627389431,9.900599479675293,0.0004,0.0,0.0,0.0,0.0004,0.0,0.0,0.0,0.0004
2025/05/07 10:38:50.498653195,1746607130,498198691,mti/imu_base_body,0.1743829669780821,0.984592305304002,0.005856100796072916,-0.01158789228195714,0.017453292519943295,0.0,0.0,0.0,0.017453292519943295,0.0,0.0,0.0,0.15707963267948966,0.014164240099489689,0.0033632656559348106,0.13030274212360382,0.0004363323129985824,0.0,0.0,0.0,0.0004363323129985824,0.0,0.0,0.0,0.0004363323129985824,-0.1604865938425064,0.13803528249263763,9.75120735168457,0.0004,0.0,0.0,0.0,0.0004,0.0,0.0,0.0,0.0004
2025/05/07 10:38:50.548739326,1746607130,548224374,mti/imu_base_body,0.17496079772899586,0.9844893372776332,0.005854498088624939,-0.011627076021509473,0.017453292519943295,0.0,0.0,0.0,0.017453292519943295,0.0,0.0,0.0,0.15707963267948966,0.006075109355151653,0.011850881390273571,0.1352350264787674,0.0004363323129985824,0.0,0.0,0.0,0.0004363323129985824,0.0,0.0,0.0,0.0004363323129985824,-0.15794478356838226,0.17370934784412384,9.785296440124512,0.0004,0.0,0.0,0.0,0.0004,0.0,0.0,0.0,0.0004
2025/05/07 10:38:50.601000615,1746607130,598235441,mti/imu_base_body,0.17553533376656166,0.984386493918024,0.00587884071260127,-0.01166260790378025,0.017453292519943295,0.0,0.0,0.0,0.017453292519943295,0.0,0.0,0.0,0.15707963267948966,0.008719773963093758,0.014017521403729916,0.12902098894119263,0.0004363323129985824,0.0,0.0,0.0,0.0004363323129985824,0.0,0.0,0.0,0.0004363323129985824,-0.1140642762184143,0.20269010961055756,9.9381742477417,0.0004,0.0,0.0,0.0,0.0004,0.0,0.0,0.0,0.0004
2025/05/07 10:38:50.653589138,1746607130,647989561,mti/imu_base_body,0.17613138462101052,0.9842798338479403,0.0058271433039594565,-0.011704205768518832,0.017453292519943295,0.0,0.0,0.0,0.017453292519943295,0.0,0.0,0.0,0.15707963267948966,0.013809972442686558,0.009343638084828854,0.13347294926643372,0.0004363323129985824,0.0,0.0,0.0,0.0004363323129985824,0.0,0.0,0.0,0.0004363323129985824,-0.1395343691110611,0.18934780359268188,9.761630058288574,0.0004,0.0,0.0,0.0,0.0004,0.0,0.0,0.0,0.0004
2025/05/07 10:38:50.699558929,1746607130,698209744,mti/imu_base_body,0.1767474098351267,0.9841683723844106,0.005876274428578809,-0.01176593870601583,0.017453292519943295,0.0,0.0,0.0,0.017453292519943295,0.0,0.0,0.0,0.15707963267948966,-0.0013744740281254053,0.017925916239619255,0.13583484292030334,0.0004363323129985824,0.0,0.0,0.0,0.0004363323129985824,0.0,0.0,0.0,0.0004363323129985824,-0.14992912113666534,0.11800235509872437,9.86426830291748,0.0004,0.0,0.0,0.0,0.0004,0.0,0.0,0.0,0.0004
2025/05/07 10:38:50.749575316,1746607130,748450464,mti/imu_base_body,0.17739927130251787,0.9840504280284943,0.005918776947069047,-0.011799225301829112,0.017453292519943295,0.0,0.0,0.0,0.017453292519943295,0.0,0.0,0.0,0.15707963267948966,-0.0008195717819035053,0.012924029491841793,0.13957564532756805,0.0004363323129985824,0.0,0.0,0.0,0.0004363323129985824,0.0,0.0,0.0,0.0004363323129985824,-0.1509982943534851,0.11202074587345123,9.80185604095459,0.0004,0.0,0.0,0.0,0.0004,0.0,0.0,0.0,0.0004
2025/05/07 10:38:50.799522574,1746607130,798158530,mti/imu_base_body,0.1779553632517904,0.9839500783700853,0.005952901365866141,-0.0117768811981136,0.017453292519943295,0.0,0.0,0.0,0.017453292519943295,0.0,0.0,0.0,0.15707963267948966,0.002263950416818261,-0.00023582050926052034,0.1316334754228592,0.0004363323129985824,0.0,0.0,0.0,0.0004363323129985824,0.0,0.0,0.0,0.0004363323129985824,-0.11182195693254471,0.1689385324716568,9.784663200378418,0.0004,0.0,0.0,0.0,0.0004,0.0,0.0,0.0,0.0004
2025/05/07 10:38:50.850365691,1746607130,848906177,mti/imu_base_body,0.19619324257371074,0.9804590767563122,0.005617076729746789,-0.01329130631597696,0.017453292519943295,0.0,0.0,0.0,0.017453292519943295,0.0,0.0,0.0,0.15707963267948966,0.01819152943789959,0.012837694026529789,0.12296956777572632,0.0004363323129985824,0.0,0.0,0.0,0.0004363323129985824,0.0,0.0,0.0,0.0004363323129985824,-0.07159066200256348,0.19961372017860413,9.90463638305664,0.0004,0.0,0.0,0.0,0.0004,0.0,0.0,0.0,0.0004
2025/05/07 10:38:50.899227460,1746607130,898819475,mti/imu_base_body,0.19670152625107423,0.9803569250290771,0.0055536122661853,-0.013340408870306016,0.017453292519943295,0.0,0.0,0.0,0.017453292519943295,0.0,0.0,0.0,0.15707963267948966,0.01546323113143444,0.010954299010336399,0.11929965019226074,0.0004363323129985824,0.0,0.0,0.0,0.0004363323129985824,0.0,0.0,0.0,0.0004363323129985824,-0.1411375105381012,0.14031822979450226,9.77892017364502,0.0004,0.0,0.0,0.0,0.0004,0.0,0.0,0.0,0.0004
2025/05/07 10:38:50.959620230,1746607130,948361601,mti/imu_base_body,0.19722197671002073,0.9802519389508826,0.005530125207709752,-0.01338079970757046,0.017453292519943295,0.0,0.0,0.0,0.017453292519943295,0.0,0.0,0.0,0.15707963267948966,0.012961205095052719,0.007055956404656172,0.11943695694208145,0.0004363323129985824,0.0,0.0,0.0,0.0004363323129985824,0.0,0.0,0.0,0.0004363323129985824,-0.17836785316467285,0.15863387286663055,9.740187644958496,0.0004,0.0,0.0,0.0,0.0004,0.0,0.0,0.0,0.0004
2025/05/07 10:38:50.999105669,1746607130,998325573,mti/imu_base_body,0.19777567891918363,0.98014007558309,0.005512080649541653,-0.013410071996219842,0.017453292519943295,0.0,0.0,0.0,0.017453292519943295,0.0,0.0,0.0,0.15707963267948966,0.00932643935084343,0.010480531491339207,0.12589696049690247,0.0004363323129985824,0.0,0.0,0.0,0.0004363323129985824,0.0,0.0,0.0,0.0004363323129985824,-0.10608020424842834,0.19201229512691498,9.816093444824219,0.0004,0.0,0.0,0.0,0.0004,0.0,0.0,0.0,0.0004
2025/05/07 10:38:51.51316113,1746607131,48370771,mti/imu_base_body,0.198349227843858,0.9800239874641402,0.005475147786111826,-0.013438398913276023,0.017453292519943295,0.0,0.0,0.0,0.017453292519943295,0.0,0.0,0.0,0.15707963267948966,0.014480450190603733,0.010452243499457836,0.12602251768112183,0.0004363323129985824,0.0,0.0,0.0,0.0004363323129985824,0.0,0.0,0.0,0.0004363323129985824,-0.10554066300392151,0.19701533019542694,9.867942810058594,0.0004,0.0,0.0,0.0,0.0004,0.0,0.0,0.0,0.0004
2025/05/07 10:38:51.99063719,1746607131,98312723,mti/imu_base_body,0.1988559125947667,0.9799209138440099,0.0054595445521943625,-0.013473010447020418,0.017453292519943295,0.0,0.0,0.0,0.017453292519943295,0.0,0.0,0.0,0.15707963267948966,0.014686189591884613,0.011344515718519688,0.1212240606546402,0.0004363323129985824,0.0,0.0,0.0,0.0004363323129985824,0.0,0.0,0.0,0.0004363323129985824,-0.14718051254749298,0.12873320281505585,9.887548446655273,0.0004,0.0,0.0,0.0,0.0004,0.0,0.0,0.0,0.0004
2025/05/07 10:38:51.149231694,1746607131,148335863,mti/imu_base_body,0.19937906544400874,0.9798140886022216,0.005424766162160304,-0.013524494495444146,0.017453292519943295,0.0,0.0,0.0,0.017453292519943295,0.0,0.0,0.0,0.15707963267948966,0.009625773876905441,0.012336195446550846,0.11406686156988144,0.0004363323129985824,0.0,0.0,0.0,0.0004363323129985824,0.0,0.0,0.0,0.0004363323129985824,-0.15917611122131348,0.09553205221891403,9.737998008728027,0.0004,0.0,0.0,0.0,0.0004,0.0,0.0,0.0,0.0004
2025/05/07 10:38:51.204506018,1746607131,199899298,mti/imu_base_body,0.19989832468074448,0.9797079389541057,0.0054563336387286904,-0.013536711689066191,0.017453292519943295,0.0,0.0,0.0,0.017453292519943295,0.0,0.0,0.0,0.15707963267948966,0.006255927961319685,0.003736868966370821,0.12291532009840012,0.0004363323129985824,0.0,0.0,0.0,0.0004363323129985824,0.0,0.0,0.0,0.0004363323129985824,-0.1202211007475853,0.17025992274284363,9.772425651550293,0.0004,0.0,0.0,0.0,0.0004,0.0,0.0,0.0,0.0004
2025/05/07 10:38:51.255679108,1746607131,248743777,mti/imu_base_body,0.21615971576245985,0.9762492460724034,0.005266911502951735,-0.013588468190952208,0.017453292519943295,0.0,0.0,0.0,0.017453292519943295,0.0,0.0,0.0,0.15707963267948966,0.0032009414862841368,-0.0012588371755555272,0.10225293040275574,0.0004363323129985824,0.0,0.0,0.0,0.0004363323129985824,0.0,0.0,0.0,0.0004363323129985824,-0.10853157937526703,0.16192752122879028,9.90829086303711,0.0004,0.0,0.0,0.0,0.0004,0.0,0.0,0.0,0.0004
2025/05/07 10:38:51.299319519,1746607131,298670839,mti/imu_base_body,0.21667088618128005,0.9761362427767628,0.005294220265832751,-0.013554846028654328,0.017453292519943295,0.0,0.0,0.0,0.017453292519943295,0.0,0.0,0.0,0.15707963267948966,0.005485299974679947,-0.003579789539799094,0.12395867705345154,0.0004363323129985824,0.0,0.0,0.0,0.0004363323129985824,0.0,0.0,0.0,0.0004363323129985824,-0.1442309319972992,0.13870060443878174,9.8472318649292,0.0004,0.0,0.0,0.0,0.0004,0.0,0.0,0.0,0.0004
2025/05/07 10:38:51.351133094,1746607131,348843318,mti/imu_base_body,0.21712465724844365,0.9760364131020948,0.005279062063238488,-0.013488328928196291,0.017453292519943295,0.0,0.0,0.0,0.017453292519943295,0.0,0.0,0.0,0.15707963267948966,0.0037307669408619404,-0.005190237890928984,0.10528405755758286,0.0004363323129985824,0.0,0.0,0.0,0.0004363323129985824,0.0,0.0,0.0,0.0004363323129985824,-0.13628534972667694,0.1636350452899933,9.769930839538574,0.0004,0.0,0.0,0.0,0.0004,0.0,0.0,0.0,0.0004
2025/05/07 10:38:51.403292705,1746607131,402910662,mti/imu_base_body,0.21760948499197202,0.9759287475436618,0.005285059951845841,-0.013463279715340701,0.017453292519943295,0.0,0.0,0.0,0.017453292519943295,0.0,0.0,0.0,0.15707963267948966,0.0046564918011426926,0.00031665017013438046,0.11373385787010193,0.0004363323129985824,0.0,0.0,0.0,0.0004363323129985824,0.0,0.0,0.0,0.0004363323129985824,-0.09936271607875824,0.1791749745607376,9.782483100891113,0.0004,0.0,0.0,0.0,0.0004,0.0,0.0,0.0,0.0004
2025/05/07 10:38:51.450257425,1746607131,448498124,mti/imu_base_body,0.21809969525000283,0.9758199643804747,0.005260537911970025,-0.013425602005923071,0.017453292519943295,0.0,0.0,0.0,0.017453292519943295,0.0,0.0,0.0,0.15707963267948966,0.009152100421488285,-0.00421209866181016,0.11336788535118103,0.0004363323129985824,0.0,0.0,0.0,0.0004363323129985824,0.0,0.0,0.0,0.0004363323129985824,-0.118734210729599,0.15710477530956268,9.902897834777832,0.0004,0.0,0.0,0.0,0.0004,0.0,0.0,0.0,0.0004
2025/05/07 10:38:51.500943365,1746607131,498364636,mti/imu_base_body,0.21858755023329418,0.9757109803933912,0.0052792475011190715,-0.013405042655518094,0.017453292519943295,0.0,0.0,0.0,0.017453292519943295,0.0,0.0,0.0,0.15707963267948966,0.004399383440613747,-0.0003899175499100238,0.10865262150764465,0.0004363323129985824,0.0,0.0,0.0,0.0004363323129985824,0.0,0.0,0.0,0.0004363323129985824,-0.1646963506937027,0.11302696168422699,9.914234161376953,0.0004,0.0,0.0,0.0,0.0004,0.0,0.0,0.0,0.0004
2025/05/07 10:38:51.549252939,1746607131,548581519,mti/imu_base_body,0.21899171210974,0.9756209488442247,0.0052812631594891905,-0.013360481390269897,0.017453292519943295,0.0,0.0,0.0,0.017453292519943295,0.0,0.0,0.0,0.15707963267948966,0.004116514232009649,-0.003502847161144018,0.09743495285511017,0.0004363323129985824,0.0,0.0,0.0,0.0004363323129985824,0.0,0.0,0.0,0.0004363323129985824,-0.16775768995285034,0.100611113011837,9.7266263961792,0.0004,0.0,0.0,0.0,0.0004,0.0,0.0,0.0,0.0004
2025/05/07 10:38:51.668127042,1746607131,598396118,mti/imu_base_body,0.21944542136300016,0.9755192661879095,0.005310504197071075,-0.013329174175121344,0.017453292519943295,0.0,0.0,0.0,0.017453292519943295,0.0,0.0,0.0,0.15707963267948966,0.00015246176917571574,-0.0003310461761429906,0.10625644773244858,0.0004363323129985824,0.0,0.0,0.0,0.0004363323129985824,0.0,0.0,0.0,0.0004363323129985824,-0.14093296229839325,0.14183451235294342,9.765009880065918,0.0004,0.0,0.0,0.0,0.0004,0.0,0.0,0.0,0.0004
2025/05/07 10:38:51.669687952,1746607131,648165338,mti/imu_base_body,0.2342665015406286,0.9720819892728172,0.005354016876319156,-0.012130411806896294,0.017453292519943295,0.0,0.0,0.0,0.017453292519943295,0.0,0.0,0.0,0.15707963267948966,0.007533036172389984,-0.005746113136410713,0.09888862818479538,0.0004363323129985824,0.0,0.0,0.0,0.0004363323129985824,0.0,0.0,0.0,0.0004363323129985824,-0.10589352250099182,0.16064083576202393,9.929671287536621,0.0004,0.0,0.0,0.0,0.0004,0.0,0.0,0.0,0.0004
2025/05/07 10:38:51.699139070,1746607131,698142420,mti/imu_base_body,0.2346699922121675,0.9719853516301813,0.005367089483077911,-0.012069188952632396,0.017453292519943295,0.0,0.0,0.0,0.017453292519943295,0.0,0.0,0.0,0.15707963267948966,0.003930137027055025,-0.004039708524942398,0.09982652217149734,0.0004363323129985824,0.0,0.0,0.0,0.0004363323129985824,0.0,0.0,0.0,0.0004363323129985824,-0.14264507591724396,0.09864167869091034,9.82313060760498,0.0004,0.0,0.0,0.0,0.0004,0.0,0.0,0.0,0.0004
2025/05/07 10:38:51.749300424,1746607131,748215097,mti/imu_base_body,0.23511722358662035,0.9718773195644255,0.005375377304902124,-0.012061186012017801,0.017453292519943295,0.0,0.0,0.0,0.017453292519943295,0.0,0.0,0.0,0.15707963267948966,0.011894443072378635,0.0002060103288386017,0.10474254190921783,0.0004363323129985824,0.0,0.0,0.0,0.0004363323129985824,0.0,0.0,0.0,0.0004363323129985824,-0.19060374796390533,0.1343349665403366,9.72379207611084,0.0004,0.0,0.0,0.0,0.0004,0.0,0.0,0.0,0.0004
2025/05/07 10:38:51.798986684,1746607131,797944734,mti/imu_base_body,0.23553592158602465,0.9717763668200936,0.005336775581687914,-0.012043311793336411,0.017453292519943295,0.0,0.0,0.0,0.017453292519943295,0.0,0.0,0.0,0.15707963267948966,0.008350443094968796,-0.0028659894596785307,0.10470415651798248,0.0004363323129985824,0.0,0.0,0.0,0.0004363323129985824,0.0,0.0,0.0,0.0004363323129985824,-0.1344444900751114,0.19453293085098267,9.746655464172363,0.0004,0.0,0.0,0.0,0.0004,0.0,0.0,0.0,0.0004
2025/05/07 10:38:51.849094729,1746607131,847922897,mti/imu_base_body,0.23598478240175397,0.9716677301202898,0.005328870577119104,-0.012025300663699173,0.017453292519943295,0.0,0.0,0.0,0.017453292519943295,0.0,0.0,0.0,0.15707963267948966,0.011557329446077347,-0.004611053504049778,0.1072637066245079,0.0004363323129985824,0.0,0.0,0.0,0.0004363323129985824,0.0,0.0,0.0,0.0004363323129985824,-0.10710769891738892,0.17773652076721191,9.932552337646484,0.0004,0.0,0.0,0.0,0.0004,0.0,0.0,0.0,0.0004
2025/05/07 10:38:51.900851712,1746607131,898905288,mti/imu_base_body,0.23640424886474326,0.9715665117191634,0.005271843411771614,-0.011989666033505722,0.017453292519943295,0.0,0.0,0.0,0.017453292519943295,0.0,0.0,0.0,0.15707963267948966,0.01867867074906826,-0.0028659841045737267,0.09931311756372452,0.0004363323129985824,0.0,0.0,0.0,0.0004363323129985824,0.0,0.0,0.0,0.0004363323129985824,-0.12656931579113007,0.07423287630081177,9.943256378173828,0.0004,0.0,0.0,0.0,0.0004,0.0,0.0,0.0,0.0004
2025/05/07 10:38:51.948480904,1746607131,947975728,mti/imu_base_body,0.23683038689003555,0.9714631594971187,0.005290328506022738,-0.011946129485735472,0.017453292519943295,0.0,0.0,0.0,0.017453292519943295,0.0,0.0,0.0,0.15707963267948966,0.00175012880936265,0.00159872614312917,0.1013246551156044,0.0004363323129985824,0.0,0.0,0.0,0.0004363323129985824,0.0,0.0,0.0,0.0004363323129985824,-0.19458335638046265,0.10490243881940842,9.664981842041016,0.0004,0.0,0.0,0.0,0.0004,0.0,0.0,0.0,0.0004
2025/05/07 10:38:51.998738070,1746607131,998129574,mti/imu_base_body,0.23721772560167603,0.9713686440619389,0.005269965775465138,-0.011955561649844581,0.017453292519943295,0.0,0.0,0.0,0.017453292519943295,0.0,0.0,0.0,0.15707963267948966,0.005836923606693745,0.006191422697156668,0.0970623791217804,0.0004363323129985824,0.0,0.0,0.0,0.0004363323129985824,0.0,0.0,0.0,0.0004363323129985824,-0.1328495442867279,0.17380237579345703,9.766695976257324,0.0004,0.0,0.0,0.0,0.0004,0.0,0.0,0.0,0.0004
2025/05/07 10:38:52.51530490,1746607132,50021480,mti/imu_base_body,0.25034762177966613,0.968075415667635,0.005424918336703713,-0.011252915632897443,0.017453292519943295,0.0,0.0,0.0,0.017453292519943295,0.0,0.0,0.0,0.15707963267948966,0.00931949820369482,0.004562341142445803,0.094279944896698,0.0004363323129985824,0.0,0.0,0.0,0.0004363323129985824,0.0,0.0,0.0,0.0004363323129985824,-0.1293383091688156,0.2010369896888733,9.919859886169434,0.0004,0.0,0.0,0.0,0.0004,0.0,0.0,0.0,0.0004
2025/05/07 10:38:52.98726225,1746607132,98052440,mti/imu_base_body,0.25069475498060395,0.9679856702385088,0.0054373494647859625,-0.01123909555601914,0.017453292519943295,0.0,0.0,0.0,0.017453292519943295,0.0,0.0,0.0,0.15707963267948966,0.008325347676873207,0.0013846313813701272,0.08102518320083618,0.0004363323129985824,0.0,0.0,0.0,0.0004363323129985824,0.0,0.0,0.0,0.0004363323129985824,-0.14680573344230652,0.1338145136833191,9.85013484954834,0.0004,0.0,0.0,0.0,0.0004,0.0,0.0,0.0,0.0004
2025/05/07 10:38:52.151679083,1746607132,150395651,mti/imu_base_body,0.2510354561533161,0.9678976308720457,0.005433527566583413,-0.011218408281064442,0.017453292519943295,0.0,0.0,0.0,0.017453292519943295,0.0,0.0,0.0,0.15707963267948966,0.003188228700309992,0.0030920805875211954,0.0844757929444313,0.0004363323129985824,0.0,0.0,0.0,0.0004363323129985824,0.0,0.0,0.0,0.0004363323129985824,-0.20254236459732056,0.12203601747751236,9.752373695373535,0.0004,0.0,0.0,0.0,0.0004,0.0,0.0,0.0,0.0004
2025/05/07 10:38:52.200389171,1746607132,198472753,mti/imu_base_body,0.2513657609767417,0.9678121055827598,0.0054212710011956365,-0.011206797793307827,0.017453292519943295,0.0,0.0,0.0,0.017453292519943295,0.0,0.0,0.0,0.15707963267948966,0.008589617908000946,0.0036829246673732996,0.08869221806526184,0.0004363323129985824,0.0,0.0,0.0,0.0004363323129985824,0.0,0.0,0.0,0.0004363323129985824,-0.20124046504497528,0.14814582467079163,9.673868179321289,0.0004,0.0,0.0,0.0,0.0004,0.0,0.0,0.0,0.0004
2025/05/07 10:38:52.248449699,1746607132,247955251,mti/imu_base_body,0.2517195799658042,0.9677200349930951,0.005439812551009947,-0.011206934202167389,0.017453292519943295,0.0,0.0,0.0,0.017453292519943295,0.0,0.0,0.0,0.15707963267948966,0.004284397698938847,0.0002569604548625648,0.08516568690538406,0.0004363323129985824,0.0,0.0,0.0,0.0004363323129985824,0.0,0.0,0.0,0.0004363323129985824,-0.11850769817829132,0.18564392626285553,9.95034122467041,0.0004,0.0,0.0,0.0,0.0004,0.0,0.0,0.0,0.0004
2025/05/07 10:38:52.298280924,1746607132,297805183,mti/imu_base_body,0.2520288496056734,0.9676394229970463,0.00546072954613076,-0.0112065365393555,0.017453292519943295,0.0,0.0,0.0,0.017453292519943295,0.0,0.0,0.0,0.15707963267948966,0.004245750606060028,0.012487350963056087,0.08260124921798706,0.0004363323129985824,0.0,0.0,0.0,0.0004363323129985824,0.0,0.0,0.0,0.0004363323129985824,-0.13851399719715118,0.1302839070558548,9.981926918029785,0.0004,0.0,0.0,0.0,0.0004,0.0,0.0,0.0,0.0004
2025/05/07 10:38:52.348834577,1746607132,348057252,mti/imu_base_body,0.2523807869379491,0.967547329682706,0.005497234750216827,-0.011219786920771045,0.017453292519943295,0.0,0.0,0.0,0.017453292519943295,0.0,0.0,0.0,0.15707963267948966,0.0019327140180394053,0.004837090149521828,0.09049628674983978,0.0004363323129985824,0.0,0.0,0.0,0.0004363323129985824,0.0,0.0,0.0,0.0004363323129985824,-0.20786499977111816,0.05535135418176651,9.63474178314209,0.0004,0.0,0.0,0.0,0.0004,0.0,0.0,0.0,0.0004
2025/05/07 10:38:52.416395647,1746607132,397946807,mti/imu_base_body,0.25280511822799023,0.9674365306795107,0.0054998820247419995,-0.011219741629714052,0.017453292519943295,0.0,0.0,0.0,0.017453292519943295,0.0,0.0,0.0,0.15707963267948966,0.0055247340351343155,0.0017410180298611522,0.10263624787330627,0.0004363323129985824,0.0,0.0,0.0,0.0004363323129985824,0.0,0.0,0.0,0.0004363323129985824,-0.16423851251602173,0.12557120621204376,9.790739059448242,0.0004,0.0,0.0,0.0,0.0004,0.0,0.0,0.0,0.0004
2025/05/07 10:38:52.485272603,1746607132,447789132,mti/imu_base_body,0.2640174597081807,0.9644348574403049,0.005680885472726191,-0.011309918814204026,0.017453292519943295,0.0,0.0,0.0,0.017453292519943295,0.0,0.0,0.0,0.15707963267948966,0.006904209963977337,0.006115172058343887,0.08147426694631577,0.0004363323129985824,0.0,0.0,0.0,0.0004363323129985824,0.0,0.0,0.0,0.0004363323129985824,-0.1320936530828476,0.17810413241386414,9.91349983215332,0.0004,0.0,0.0,0.0,0.0004,0.0,0.0,0.0,0.0004
2025/05/07 10:38:52.528767609,1746607132,497990958,mti/imu_base_body,0.26436736359123403,0.9643388286639438,0.005692235523092943,-0.011318968752619183,0.017453292519943295,0.0,0.0,0.0,0.017453292519943295,0.0,0.0,0.0,0.15707963267948966,0.00905794557183981,0.005213526077568531,0.08699258416891098,0.0004363323129985824,0.0,0.0,0.0,0.0004363323129985824,0.0,0.0,0.0,0.0004363323129985824,-0.13815940916538239,0.11707397550344467,9.802712440490723,0.0004,0.0,0.0,0.0,0.0004,0.0,0.0,0.0,0.0004
2025/05/07 10:38:52.582422008,1746607132,547983586,mti/imu_base_body,0.26467667758174673,0.9642535219316016,0.005686569586412495,-0.01136066517107286,0.017453292519943295,0.0,0.0,0.0,0.017453292519943295,0.0,0.0,0.0,0.15707963267948966,0.011059521697461605,0.007848910987377167,0.08137990534305573,0.0004363323129985824,0.0,0.0,0.0,0.0004363323129985824,0.0,0.0,0.0,0.0004363323129985824,-0.1995987445116043,0.11708510667085648,9.708667755126953,0.0004,0.0,0.0,0.0,0.0004,0.0,0.0,0.0,0.0004
2025/05/07 10:38:52.647216698,1746607132,597934374,mti/imu_base_body,0.264981248699575,0.9641701209731921,0.005649949252364855,-0.01135754082534814,0.017453292519943295,0.0,0.0,0.0,0.017453292519943295,0.0,0.0,0.0,0.15707963267948966,0.010717282071709633,0.0036854518111795187,0.07721021771430969,0.0004363323129985824,0.0,0.0,0.0,0.0004363323129985824,0.0,0.0,0.0,0.0004363323129985824,-0.160836860537529,0.12426479905843735,9.70610523223877,0.0004,0.0,0.0,0.0,0.0004,0.0,0.0,0.0,0.0004
2025/05/07 10:38:52.702577905,1746607132,648304857,mti/imu_base_body,0.26524497237522354,0.9640976612043681,0.00563334961405784,-0.011360882978886695,0.017453292519943295,0.0,0.0,0.0,0.017453292519943295,0.0,0.0,0.0,0.15707963267948966,0.018785906955599785,0.0029962107073515654,0.07157891988754272,0.0004363323129985824,0.0,0.0,0.0,0.0004363323129985824,0.0,0.0,0.0,0.0004363323129985824,-0.09650633484125137,0.16362103819847107,9.964470863342285,0.0004,0.0,0.0,0.0,0.0004,0.0,0.0,0.0,0.0004
2025/05/07 10:38:52.765480475,1746607132,697979714,mti/imu_base_body,0.2655470982245583,0.9640143743498739,0.005579404052116394,-0.011397145333866716,0.017453292519943295,0.0,0.0,0.0,0.017453292519943295,0.0,0.0,0.0,0.15707963267948966,0.013898666948080063,0.011169363744556904,0.08352771401405334,0.0004363323129985824,0.0,0.0,0.0,0.0004363323129985824,0.0,0.0,0.0,0.0004363323129985824,-0.13257817924022675,0.12515170872211456,9.925012588500977,0.0004,0.0,0.0,0.0,0.0004,0.0,0.0,0.0,0.0004
2025/05/07 10:38:52.771527826,1746607132,749798693,mti/imu_base_body,0.26586611535611254,0.963926188511325,0.005615973860379198,-0.011400554595248757,0.017453292519943295,0.0,0.0,0.0,0.017453292519943295,0.0,0.0,0.0,0.15707963267948966,0.0014038188382983208,0.009816582314670086,0.0819832906126976,0.0004363323129985824,0.0,0.0,0.0,0.0004363323129985824,0.0,0.0,0.0,0.0004363323129985824,-0.2321528196334839,0.06896530091762543,9.629484176635742,0.0004,0.0,0.0,0.0,0.0004,0.0,0.0,0.0,0.0004
2025/05/07 10:38:52.798436451,1746607132,797882359,mti/imu_base_body,0.26617559136072094,0.9638399576062204,0.005633588869222821,-0.011460949431110794,0.017453292519943295,0.0,0.0,0.0,0.017453292519943295,0.0,0.0,0.0,0.15707963267948966,0.006146477069705725,0.012616477906703949,0.08038177341222763,0.0004363323129985824,0.0,0.0,0.0,0.0004363323129985824,0.0,0.0,0.0,0.0004363323129985824,-0.14865069091320038,0.08647018671035767,9.778950691223145,0.0004,0.0,0.0,0.0,0.0004,0.0,0.0,0.0,0.0004
2025/05/07 10:38:52.848935835,1746607132,848131051,mti/imu_base_body,0.2751536414231581,0.9613085076808174,0.005807072502547849,-0.01194590226838259,0.017453292519943295,0.0,0.0,0.0,0.017453292519943295,0.0,0.0,0.0,0.15707963267948966,0.0089650209993124,0.005665643140673637,0.060958851128816605,0.0004363323129985824,0.0,0.0,0.0,0.0004363323129985824,0.0,0.0,0.0,0.0004363323129985824,-0.1175568550825119,0.14362646639347076,9.933408737182617,0.0004,0.0,0.0,0.0,0.0004,0.0,0.0,0.0,0.0004
2025/05/07 10:38:52.898434384,1746607132,897878430,mti/imu_base_body,0.27536938259036026,0.9612462629895895,0.0058271153418999674,-0.01197371066732273,0.017453292519943295,0.0,0.0,0.0,0.017453292519943295,0.0,0.0,0.0,0.15707963267948966,0.0033533843234181404,0.012262375093996525,0.06530323624610901,0.0004363323129985824,0.0,0.0,0.0,0.0004363323129985824,0.0,0.0,0.0,0.0004363323129985824,-0.15130920708179474,0.10819803178310394,9.815691947937012,0.0004,0.0,0.0,0.0,0.0004,0.0,0.0,0.0,0.0004
2025/05/07 10:38:52.948408720,1746607132,947976334,mti/imu_base_body,0.27563859003736263,0.961168931143024,0.005826209027495885,-0.01198785952367913,0.017453292519943295,0.0,0.0,0.0,0.017453292519943295,0.0,0.0,0.0,0.15707963267948966,0.007376364432275295,0.006062965374439955,0.06909496337175369,0.0004363323129985824,0.0,0.0,0.0,0.0004363323129985824,0.0,0.0,0.0,0.0004363323129985824,-0.185725599527359,0.1194961816072464,9.713224411010742,0.0004,0.0,0.0,0.0,0.0004,0.0,0.0,0.0,0.0004
2025/05/07 10:38:53.277749,1746607132,997969795,mti/imu_base_body,0.2758990518234148,0.9610936804612036,0.005859516664229566,-0.012013186294239524,0.017453292519943295,0.0,0.0,0.0,0.017453292519943295,0.0,0.0,0.0,0.15707963267948966,0.00874085072427988,0.007647333666682243,0.07572606950998306,0.0004363323129985824,0.0,0.0,0.0,0.0004363323129985824,0.0,0.0,0.0,0.0004363323129985824,-0.16231800615787506,0.14264725148677826,9.690144538879395,0.0004,0.0,0.0,0.0,0.0004,0.0,0.0,0.0,0.0004
2025/05/07 10:38:53.49885602,1746607133,48756731,mti/imu_base_body,0.2761242055343263,0.9610288360283714,0.005840114299618881,-0.01203713026257381,0.017453292519943295,0.0,0.0,0.0,0.017453292519943295,0.0,0.0,0.0,0.15707963267948966,0.006079280283302069,0.006436209660023451,0.05954357981681824,0.0004363323129985824,0.0,0.0,0.0,0.0004363323129985824,0.0,0.0,0.0,0.0004363323129985824,-0.09443113952875137,0.1452162116765976,9.9673490524292,0.0004,0.0,0.0,0.0,0.0004,0.0,0.0,0.0,0.0004
2025/05/07 10:38:53.98622466,1746607133,98062009,mti/imu_base_body,0.27633813919675065,0.9609668593876338,0.005892507361720023,-0.012050159373910997,0.017453292519943295,0.0,0.0,0.0,0.017453292519943295,0.0,0.0,0.0,0.15707963267948966,-0.00014184768951963633,0.013917919248342514,0.06873885542154312,0.0004363323129985824,0.0,0.0,0.0,0.0004363323129985824,0.0,0.0,0.0,0.0004363323129985824,-0.14689579606056213,0.09393986314535141,9.926237106323242,0.0004,0.0,0.0,0.0,0.0004,0.0,0.0,0.0,0.0004
2025/05/07 10:38:53.148982862,1746607133,147977102,mti/imu_base_body,0.2765786741921393,0.9608969965646943,0.0059051174482928626,-0.012096634366221392,0.017453292519943295,0.0,0.0,0.0,0.017453292519943295,0.0,0.0,0.0,0.15707963267948966,0.00794061180204153,0.0155990831553936,0.06488698720932007,0.0004363323129985824,0.0,0.0,0.0,0.0004363323129985824,0.0,0.0,0.0,0.0004363323129985824,-0.2263014167547226,0.061379726976156235,9.594537734985352,0.0004,0.0,0.0,0.0,0.0004,0.0,0.0,0.0,0.0004
2025/05/07 10:38:53.199718396,1746607133,198132641,mti/imu_base_body,0.2767896170311209,0.9608361050856177,0.005878147986633836,-0.012121651864019879,0.017453292519943295,0.0,0.0,0.0,0.017453292519943295,0.0,0.0,0.0,0.15707963267948966,0.01420603971928358,0.005446180701255798,0.05881941691040993,0.0004363323129985824,0.0,0.0,0.0,0.0004363323129985824,0.0,0.0,0.0,0.0004363323129985824,-0.1552535891532898,0.11798634380102158,9.743552207946777,0.0004,0.0,0.0,0.0,0.0004,0.0,0.0,0.0,0.0004
2025/05/07 10:38:53.248226788,1746607133,247823402,mti/imu_base_body,0.28381130199106996,0.9587802164441144,0.0060325338896135994,-0.012459933883501544,0.017453292519943295,0.0,0.0,0.0,0.017453292519943295,0.0,0.0,0.0,0.15707963267948966,0.0067901043221354485,0.005546259693801403,0.06195635721087456,0.0004363323129985824,0.0,0.0,0.0,0.0004363323129985824,0.0,0.0,0.0,0.0004363323129985824,-0.11078429967164993,0.1570095717906952,9.935800552368164,0.0004,0.0,0.0,0.0,0.0004,0.0,0.0,0.0,0.0004
2025/05/07 10:38:53.298347960,1746607133,297904323,mti/imu_base_body,0.28407794636509565,0.95870065168195,0.006051978785909169,-0.012496175669741443,0.017453292519943295,0.0,0.0,0.0,0.017453292519943295,0.0,0.0,0.0,0.15707963267948966,0.0038578014355152845,0.01221570186316967,0.07051891833543777,0.0004363323129985824,0.0,0.0,0.0,0.0004363323129985824,0.0,0.0,0.0,0.0004363323129985824,-0.16748450696468353,0.11493157595396042,9.799141883850098,0.0004,0.0,0.0,0.0,0.0004,0.0,0.0,0.0,0.0004
2025/05/07 10:38:53.348484485,1746607133,348118235,mti/imu_base_body,0.28428308211011194,0.958639506299668,0.006057059577723942,-0.012519513440063145,0.017453292519943295,0.0,0.0,0.0,0.017453292519943295,0.0,0.0,0.0,0.15707963267948966,0.011493909172713757,0.011358784511685371,0.05692041665315628,0.0004363323129985824,0.0,0.0,0.0,0.0004363323129985824,0.0,0.0,0.0,0.0004363323129985824,-0.2099098563194275,0.11491082608699799,9.700876235961914,0.0004,0.0,0.0,0.0,0.0004,0.0,0.0,0.0,0.0004
2025/05/07 10:38:53.399224301,1746607133,398171065,mti/imu_base_body,0.28443876550832065,0.958592758238493,0.006081015365200064,-0.012551246191057044,0.017453292519943295,0.0,0.0,0.0,0.017453292519943295,0.0,0.0,0.0,0.15707963267948966,0.004932307172566652,0.009077921509742737,0.04993752762675285,0.0004363323129985824,0.0,0.0,0.0,0.0004363323129985824,0.0,0.0,0.0,0.0004363323129985824,-0.16822482645511627,0.14276202023029327,9.698311805725098,0.0004,0.0,0.0,0.0,0.0004,0.0,0.0,0.0,0.0004
2025/05/07 10:38:53.456411619,1746607133,447783983,mti/imu_base_body,0.28462383084423803,0.9585376752959615,0.006132040041477622,-0.01253786419985833,0.017453292519943295,0.0,0.0,0.0,0.017453292519943295,0.0,0.0,0.0,0.15707963267948966,-0.005648892372846603,0.005991939455270767,0.0593285895884037,0.0004363323129985824,0.0,0.0,0.0,0.0004363323129985824,0.0,0.0,0.0,0.0004363323129985824,-0.09743547439575195,0.14363205432891846,9.962202072143555,0.0004,0.0,0.0,0.0,0.0004,0.0,0.0,0.0,0.0004
2025/05/07 10:38:53.498464372,1746607133,498007565,mti/imu_base_body,0.28481541014360706,0.9584803737938696,0.006152587259048091,-0.012557900569467343,0.017453292519943295,0.0,0.0,0.0,0.017453292519943295,0.0,0.0,0.0,0.15707963267948966,0.0076042297296226025,0.0100865438580513,0.05807751044631004,0.0004363323129985824,0.0,0.0,0.0,0.0004363323129985824,0.0,0.0,0.0,0.0004363323129985824,-0.14656056463718414,0.08565375953912735,9.923355102539062,0.0004,0.0,0.0,0.0,0.0004,0.0,0.0,0.0,0.0004
2025/05/07 10:38:53.548169285,1746607133,547787570,mti/imu_base_body,0.28499153629040963,0.9584278215706463,0.006151617110268471,-0.01257349152408029,0.017453292519943295,0.0,0.0,0.0,0.017453292519943295,0.0,0.0,0.0,0.15707963267948966,0.010310645215213299,0.00797412171959877,0.053460948169231415,0.0004363323129985824,0.0,0.0,0.0,0.0004363323129985824,0.0,0.0,0.0,0.0004363323129985824,-0.23712299764156342,0.05880609527230263,9.600683212280273,0.0004,0.0,0.0,0.0,0.0004,0.0,0.0,0.0,0.0004
2025/05/07 10:38:53.598283151,1746607133,597872563,mti/imu_base_body,0.28518665892487344,0.9583692539425333,0.0061820981506426585,-0.012598584498093972,0.017453292519943295,0.0,0.0,0.0,0.017453292519943295,0.0,0.0,0.0,0.15707963267948966,0.004128011874854565,0.009711372666060925,0.055567577481269836,0.0004363323129985824,0.0,0.0,0.0,0.0004363323129985824,0.0,0.0,0.0,0.0004363323129985824,-0.13035576045513153,0.11084580421447754,9.78746223449707,0.0004,0.0,0.0,0.0,0.0004,0.0,0.0,0.0,0.0004
2025/05/07 10:38:53.648248810,1746607133,647818770,mti/imu_base_body,0.29063715426067005,0.9567253029729281,0.0063779536423948235,-0.012886462740171072,0.017453292519943295,0.0,0.0,0.0,0.017453292519943295,0.0,0.0,0.0,0.15707963267948966,0.0013994708424434066,0.0006177322356961668,0.045777492225170135,0.0004363323129985824,0.0,0.0,0.0,0.0004363323129985824,0.0,0.0,0.0,0.0004363323129985824,-0.11908608675003052,0.13207688927650452,9.95188045501709,0.0004,0.0,0.0,0.0,0.0004,0.0,0.0,0.0,0.0004
2025/05/07 10:38:53.698219435,1746607133,697836036,mti/imu_base_body,0.2907852065816094,0.9566797317489895,0.00640229950187519,-0.012917625751669604,0.017453292519943295,0.0,0.0,0.0,0.017453292519943295,0.0,0.0,0.0,0.15707963267948966,0.005572257563471794,0.01163069810718298,0.049730487167835236,0.0004363323129985824,0.0,0.0,0.0,0.0004363323129985824,0.0,0.0,0.0,0.0004363323129985824,-0.15745195746421814,0.0905008316040039,9.818913459777832,0.0004,0.0,0.0,0.0,0.0004,0.0,0.0,0.0,0.0004
2025/05/07 10:38:53.748107365,1746607133,747795278,mti/imu_base_body,0.2909098716175153,0.956641924395075,0.0063959284920288295,-0.012913836915997741,0.017453292519943295,0.0,0.0,0.0,0.017453292519943295,0.0,0.0,0.0,0.15707963267948966,0.00730386096984148,0.003530179848894477,0.04081613942980766,0.0004363323129985824,0.0,0.0,0.0,0.0004363323129985824,0.0,0.0,0.0,0.0004363323129985824,-0.19441360235214233,0.10176001489162445,9.713089942932129,0.0004,0.0,0.0,0.0,0.0004,0.0,0.0,0.0,0.0004
2025/05/07 10:38:53.798198716,1746607133,797795431,mti/imu_base_body,0.2910443330158833,0.9566009885866779,0.006416942520107572,-0.01290611107281506,0.017453292519943295,0.0,0.0,0.0,0.017453292519943295,0.0,0.0,0.0,0.15707963267948966,-0.00034989070263691247,-0.005118426866829395,0.04431537166237831,0.0004363323129985824,0.0,0.0,0.0,0.0004363323129985824,0.0,0.0,0.0,0.0004363323129985824,-0.17587649822235107,0.14346572756767273,9.7202730178833,0.0004,0.0,0.0,0.0,0.0004,0.0,0.0,0.0,0.0004
2025/05/07 10:38:53.848346452,1746607133,847944543,mti/imu_base_body,0.2911711866459025,0.9565631042180578,0.006430325853429517,-0.012845957548915507,0.017453292519943295,0.0,0.0,0.0,0.017453292519943295,0.0,0.0,0.0,0.15707963267948966,0.0074551780708134174,-0.0023955197539180517,0.054826006293296814,0.0004363323129985824,0.0,0.0,0.0,0.0004363323129985824,0.0,0.0,0.0,0.0004363323129985824,-0.10788844525814056,0.13182497024536133,9.975390434265137,0.0004,0.0,0.0,0.0,0.0004,0.0,0.0,0.0,0.0004
2025/05/07 10:38:53.898597964,1746607133,898162639,mti/imu_base_body,0.29133690495306586,0.9565128026374243,0.006433127335892807,-0.012832812464460337,0.017453292519943295,0.0,0.0,0.0,0.017453292519943295,0.0,0.0,0.0,0.15707963267948966,0.0044883424416184425,0.003126005409285426,0.048693589866161346,0.0004363323129985824,0.0,0.0,0.0,0.0004363323129985824,0.0,0.0,0.0,0.0004363323129985824,-0.1607610434293747,0.08330631256103516,9.920113563537598,0.0004,0.0,0.0,0.0,0.0004,0.0,0.0,0.0,0.0004
2025/05/07 10:38:53.948237579,1746607133,947889468,mti/imu_base_body,0.2914890864623657,0.9564669644032852,0.006434429518082164,-0.0127928337469511,0.017453292519943295,0.0,0.0,0.0,0.017453292519943295,0.0,0.0,0.0,0.15707963267948966,0.003713837591931224,-0.0013344918843358755,0.04830733686685562,0.0004363323129985824,0.0,0.0,0.0,0.0004363323129985824,0.0,0.0,0.0,0.0004363323129985824,-0.21177628636360168,0.0524573028087616,9.631003379821777,0.0004,0.0,0.0,0.0,0.0004,0.0,0.0,0.0,0.0004
2025/05/07 10:38:53.998285626,1746607133,997849124,mti/imu_base_body,0.29160005769917147,0.9564329307449502,0.006484243027045013,-0.012783189305931291,0.017453292519943295,0.0,0.0,0.0,0.017453292519943295,0.0,0.0,0.0,0.15707963267948966,0.0006622439832426608,0.006236647255718708,0.038528893142938614,0.0004363323129985824,0.0,0.0,0.0,0.0004363323129985824,0.0,0.0,0.0,0.0004363323129985824,-0.15134216845035553,0.10769636929035187,9.796463966369629,0.0004,0.0,0.0,0.0,0.0004,0.0,0.0,0.0,0.0004
2025/05/07 10:38:54.48265578,1746607134,47880699,mti/imu_base_body,0.29579914144265634,0.9551472552197207,0.006701753578505471,-0.01231565130205833,0.017453292519943295,0.0,0.0,0.0,0.017453292519943295,0.0,0.0,0.0,0.15707963267948966,0.015290465205907822,0.0012049574870616198,0.042949240654706955,0.0004363323129985824,0.0,0.0,0.0,0.0004363323129985824,0.0,0.0,0.0,0.0004363323129985824,-0.12851689755916595,0.11944705247879028,9.958003044128418,0.0004,0.0,0.0,0.0,0.0004,0.0,0.0,0.0,0.0004
2025/05/07 10:38:54.98235230,1746607134,97891625,mti/imu_base_body,0.2959421658148072,0.9551033408994107,0.006661649376582952,-0.012307116770735232,0.017453292519943295,0.0,0.0,0.0,0.017453292519943295,0.0,0.0,0.0,0.15707963267948966,0.012046471238136292,-0.00014946401643101126,0.045207105576992035,0.0004363323129985824,0.0,0.0,0.0,0.0004363323129985824,0.0,0.0,0.0,0.0004363323129985824,-0.14709430932998657,0.10030379891395569,9.822502136230469,0.0004,0.0,0.0,0.0,0.0004,0.0,0.0,0.0,0.0004
2025/05/07 10:38:54.149820713,1746607134,148823719,mti/imu_base_body,0.2960317577456048,0.9550761957310476,0.006681497815431201,-0.012248115810178452,0.017453292519943295,0.0,0.0,0.0,0.017453292519943295,0.0,0.0,0.0,0.15707963267948966,0.004454928915947676,-0.005709197372198105,0.04329376667737961,0.0004363323129985824,0.0,0.0,0.0,0.0004363323129985824,0.0,0.0,0.0,0.0004363323129985824,-0.20003603398799896,0.1052023395895958,9.714667320251465,0.0004,0.0,0.0,0.0,0.0004,0.0,0.0,0.0,0.0004
2025/05/07 10:38:54.198226124,1746607134,197812714,mti/imu_base_body,0.2961582312811792,0.9550378412335518,0.0066547296842738935,-0.012195836551444815,0.017453292519943295,0.0,0.0,0.0,0.017453292519943295,0.0,0.0,0.0,0.15707963267948966,0.007684251759201288,-0.006272812373936176,0.04037320986390114,0.0004363323129985824,0.0,0.0,0.0,0.0004363323129985824,0.0,0.0,0.0,0.0004363323129985824,-0.1984579712152481,0.11767788231372833,9.719828605651855,0.0004,0.0,0.0,0.0,0.0004,0.0,0.0,0.0,0.0004
2025/05/07 10:38:54.248246879,1746607134,247885763,mti/imu_base_body,0.2962693054202629,0.9550043218444815,0.006677702163314898,-0.012110004870966112,0.017453292519943295,0.0,0.0,0.0,0.017453292519943295,0.0,0.0,0.0,0.15707963267948966,0.000940605707000941,-0.013677825219929218,0.0397440567612648,0.0004363323129985824,0.0,0.0,0.0,0.0004363323129985824,0.0,0.0,0.0,0.0004363323129985824,-0.13304568827152252,0.1190807893872261,10.00939655303955,0.0004,0.0,0.0,0.0,0.0004,0.0,0.0,0.0,0.0004
2025/05/07 10:38:54.298258844,1746607134,297901652,mti/imu_base_body,0.2963307964360832,0.9549851854613153,0.006687448122071874,-0.012109197768156109,0.017453292519943295,0.0,0.0,0.0,0.017453292519943295,0.0,0.0,0.0,0.15707963267948966,0.007305450737476349,0.010386005975306034,0.03172814100980759,0.0004363323129985824,0.0,0.0,0.0,0.0004363323129985824,0.0,0.0,0.0,0.0004363323129985824,-0.17212212085723877,0.08547499030828476,9.920955657958984,0.0004,0.0,0.0,0.0,0.0004,0.0,0.0,0.0,0.0004
2025/05/07 10:38:54.348123162,1746607134,347760483,mti/imu_base_body,0.2964102994970894,0.9549604491397068,0.006678365992072667,-0.012119173181826174,0.017453292519943295,0.0,0.0,0.0,0.017453292519943295,0.0,0.0,0.0,0.15707963267948966,0.009946183301508427,0.009329183027148247,0.033541589975357056,0.0004363323129985824,0.0,0.0,0.0,0.0004363323129985824,0.0,0.0,0.0,0.0004363323129985824,-0.25508201122283936,0.0646786168217659,9.60344409942627,0.0004,0.0,0.0,0.0,0.0004,0.0,0.0,0.0,0.0004
2025/05/07 10:38:54.398530546,1746607134,398054315,mti/imu_base_body,0.29650619739164075,0.9549307172595556,0.006638710595407398,-0.012137860772420945,0.017453292519943295,0.0,0.0,0.0,0.017453292519943295,0.0,0.0,0.0,0.15707963267948966,0.012733684852719307,-0.003128213109448552,0.04369626194238663,0.0004363323129985824,0.0,0.0,0.0,0.0004363323129985824,0.0,0.0,0.0,0.0004363323129985824,-0.18426735699176788,0.0921078771352768,9.79733943939209,0.0004,0.0,0.0,0.0,0.0004,0.0,0.0,0.0,0.0004
2025/05/07 10:38:54.449203865,1746607134,447980858,mti/imu_base_body,0.29867446612271814,0.9542579371180313,0.0066619102096027154,-0.011873149788816718,0.017453292519943295,0.0,0.0,0.0,0.017453292519943295,0.0,0.0,0.0,0.15707963267948966,0.0022034195717424154,0.0036205544602125883,0.02605874091386795,0.0004363323129985824,0.0,0.0,0.0,0.0004363323129985824,0.0,0.0,0.0,0.0004363323129985824,-0.1325034350156784,0.09002939611673355,9.973611831665039,0.0004,0.0,0.0,0.0,0.0004,0.0,0.0,0.0,0.0004
2025/05/07 10:38:54.499043455,1746607134,498482030,mti/imu_base_body,0.2986962250840619,0.9542507328512138,0.006710413912287796,-0.011877471051475342,0.017453292519943295,0.0,0.0,0.0,0.017453292519943295,0.0,0.0,0.0,0.15707963267948966,0.0008147862972691655,0.011231447570025921,0.02407481148838997,0.0004363323129985824,0.0,0.0,0.0,0.0004363323129985824,0.0,0.0,0.0,0.0004363323129985824,-0.18200626969337463,0.07921943813562393,9.828302383422852,0.0004,0.0,0.0,0.0,0.0004,0.0,0.0,0.0,0.0004
2025/05/07 10:38:54.548877379,1746607134,548166747,mti/imu_base_body,0.2987134821602016,0.9542450377547049,0.006698486974209546,-0.011907718862363182,0.017453292519943295,0.0,0.0,0.0,0.017453292519943295,0.0,0.0,0.0,0.15707963267948966,0.013252899050712585,0.007822646759450436,0.02732987515628338,0.0004363323129985824,0.0,0.0,0.0,0.0004363323129985824,0.0,0.0,0.0,0.0004363323129985824,-0.22651316225528717,0.07761216908693314,9.682988166809082,0.0004,0.0,0.0,0.0,0.0004,0.0,0.0,0.0,0.0004
2025/05/07 10:38:54.598652732,1746607134,598086896,mti/imu_base_body,0.29875377207890935,0.9542324805794009,0.00668889051431493,-0.01190862794759004,0.017453292519943295,0.0,0.0,0.0,0.017453292519943295,0.0,0.0,0.0,0.15707963267948966,0.014470754191279411,0.005316632334142923,0.021504513919353485,0.0004363323129985824,0.0,0.0,0.0,0.0004363323129985824,0.0,0.0,0.0,0.0004363323129985824,-0.20515888929367065,0.09565094113349915,9.729784965515137,0.0004,0.0,0.0,0.0,0.0004,0.0,0.0,0.0,0.0004
2025/05/07 10:38:54.648359237,1746607134,647987474,mti/imu_base_body,0.2987749818510951,0.9542262824978697,0.006622472435282509,-0.01191028417030254,0.017453292519943295,0.0,0.0,0.0,0.017453292519943295,0.0,0.0,0.0,0.15707963267948966,0.015434364788234234,-0.0024782426189631224,0.027776498347520828,0.0004363323129985824,0.0,0.0,0.0,0.0004363323129985824,0.0,0.0,0.0,0.0004363323129985824,-0.13004136085510254,0.11405238509178162,10.014538764953613,0.0004,0.0,0.0,0.0,0.0004,0.0,0.0,0.0,0.0004
2025/05/07 10:38:54.698199154,1746607134,697829200,mti/imu_base_body,0.2988097998141967,0.9542152822921204,0.006609636610422897,-0.01192523706458192,0.017453292519943295,0.0,0.0,0.0,0.017453292519943295,0.0,0.0,0.0,0.15707963267948966,0.012863483279943466,0.010832720436155796,0.026628457009792328,0.0004363323129985824,0.0,0.0,0.0,0.0004363323129985824,0.0,0.0,0.0,0.0004363323129985824,-0.17464900016784668,0.06404192000627518,9.90427303314209,0.0004,0.0,0.0,0.0,0.0004,0.0,0.0,0.0,0.0004
2025/05/07 10:38:54.748140969,1746607134,747818068,mti/imu_base_body,0.2988776137777034,0.9541939755261353,0.006626051997930795,-0.011921597506019885,0.017453292519943295,0.0,0.0,0.0,0.017453292519943295,0.0,0.0,0.0,0.15707963267948966,0.0046122572384774685,0.00528312474489212,0.029725559055805206,0.0004363323129985824,0.0,0.0,0.0,0.0004363323129985824,0.0,0.0,0.0,0.0004363323129985824,-0.2216014713048935,0.011797499842941761,9.620807647705078,0.0004,0.0,0.0,0.0,0.0004,0.0,0.0,0.0,0.0004
2025/05/07 10:38:54.798434175,1746607134,797888446,mti/imu_base_body,0.29890524889387843,0.9541849087258198,0.0066125730040486885,-0.011961856956750266,0.017453292519943295,0.0,0.0,0.0,0.017453292519943295,0.0,0.0,0.0,0.15707963267948966,0.011511077173054218,0.005516287870705128,0.02473030798137188,0.0004363323129985824,0.0,0.0,0.0,0.0004363323129985824,0.0,0.0,0.0,0.0004363323129985824,-0.1976976841688156,0.059377674013376236,9.79710865020752,0.0004,0.0,0.0,0.0,0.0004,0.0,0.0,0.0,0.0004
2025/05/07 10:38:54.848265274,1746607134,847893435,mti/imu_base_body,0.299291224143729,0.9540679973327945,0.006296555978486063,-0.011805634195101434,0.017453292519943295,0.0,0.0,0.0,0.017453292519943295,0.0,0.0,0.0,0.15707963267948966,0.010065825656056404,0.0007415355648845434,0.021184200420975685,0.0004363323129985824,0.0,0.0,0.0,0.0004363323129985824,0.0,0.0,0.0,0.0004363323129985824,-0.11876484006643295,0.09291806817054749,9.985602378845215,0.0004,0.0,0.0,0.0,0.0004,0.0,0.0,0.0,0.0004
2025/05/07 10:38:54.898194483,1746607134,897822414,mti/imu_base_body,0.29929237718398904,0.9540673287185497,0.006254830253951283,-0.011852524199594438,0.017453292519943295,0.0,0.0,0.0,0.017453292519943295,0.0,0.0,0.0,0.15707963267948966,0.011726225726306438,0.0106922946870327,0.013053449802100658,0.0004363323129985824,0.0,0.0,0.0,0.0004363323129985824,0.0,0.0,0.0,0.0004363323129985824,-0.18108154833316803,0.0532364584505558,9.851093292236328,0.0004,0.0,0.0,0.0,0.0004,0.0,0.0,0.0,0.0004
2025/05/07 10:38:54.948225241,1746607134,947834494,mti/imu_base_body,0.29927796431650383,0.9540719153986013,0.006274290611354641,-0.011836959049438158,0.017453292519943295,0.0,0.0,0.0,0.017453292519943295,0.0,0.0,0.0,0.15707963267948966,0.008570615202188492,0.006066786590963602,0.01884433440864086,0.0004363323129985824,0.0,0.0,0.0,0.0004363323129985824,0.0,0.0,0.0,0.0004363323129985824,-0.2693729102611542,0.06398897618055344,9.641386985778809,0.0004,0.0,0.0,0.0,0.0004,0.0,0.0,0.0,0.0004
2025/05/07 10:38:54.998357220,1746607134,997906946,mti/imu_base_body,0.2992635380739994,0.9540765698053293,0.006246159233139049,-0.011841419795050505,0.017453292519943295,0.0,0.0,0.0,0.017453292519943295,0.0,0.0,0.0,0.15707963267948966,0.014298556372523308,-0.0006603067158721387,0.011694248765707016,0.0004363323129985824,0.0,0.0,0.0,0.0004363323129985824,0.0,0.0,0.0,0.0004363323129985824,-0.19344954192638397,0.07164080440998077,9.722089767456055,0.0004,0.0,0.0,0.0,0.0004,0.0,0.0,0.0,0.0004
2025/05/07 10:38:55.48115804,1746607135,47757547,mti/imu_base_body,0.29925500234476704,0.9540799044624788,0.006193560249002591,-0.011816060423948404,0.017453292519943295,0.0,0.0,0.0,0.017453292519943295,0.0,0.0,0.0,0.15707963267948966,0.01982710137963295,-0.004149206914007664,0.01172956358641386,0.0004363323129985824,0.0,0.0,0.0,0.0004363323129985824,0.0,0.0,0.0,0.0004363323129985824,-0.13067057728767395,0.07898347824811935,10.059074401855469,0.0004,0.0,0.0,0.0,0.0004,0.0,0.0,0.0,0.0004
2025/05/07 10:38:55.98776222,1746607135,98311233,mti/imu_base_body,0.2991681513778635,0.954107190174319,0.006149744623889002,-0.011835011612950034,0.017453292519943295,0.0,0.0,0.0,0.017453292519943295,0.0,0.0,0.0,0.15707963267948966,0.012956160120666027,0.007053150795400143,0.004171581473201513,0.0004363323129985824,0.0,0.0,0.0,0.0004363323129985824,0.0,0.0,0.0,0.0004363323129985824,-0.19166287779808044,0.05801555886864662,9.892047882080078,0.0004,0.0,0.0,0.0,0.0004,0.0,0.0,0.0,0.0004
2025/05/07 10:38:55.152274920,1746607135,148003265,mti/imu_base_body,0.29911500726765344,0.9541246837964008,0.006113370994429195,-0.011786725277802931,0.017453292519943295,0.0,0.0,0.0,0.017453292519943295,0.0,0.0,0.0,0.15707963267948966,0.013170476071536541,-0.010496340692043304,0.007960118353366852,0.0004363323129985824,0.0,0.0,0.0,0.0004363323129985824,0.0,0.0,0.0,0.0004363323129985824,-0.2522277534008026,0.024404752999544144,9.629261016845703,0.0004,0.0,0.0,0.0,0.0004,0.0,0.0,0.0,0.0004
2025/05/07 10:38:55.198496088,1746607135,197986568,mti/imu_base_body,0.29910563224130604,0.954128176739708,0.006067114294559124,-0.011765765467052281,0.017453292519943295,0.0,0.0,0.0,0.017453292519943295,0.0,0.0,0.0,0.15707963267948966,0.015883907675743103,-0.0004174614732619375,0.02211330085992813,0.0004363323129985824,0.0,0.0,0.0,0.0004363323129985824,0.0,0.0,0.0,0.0004363323129985824,-0.15959450602531433,0.05288892984390259,9.830321311950684,0.0004,0.0,0.0,0.0,0.0004,0.0,0.0,0.0,0.0004
2025/05/07 10:38:55.250268095,1746607135,248268416,mti/imu_base_body,0.29750577771083625,0.9546324347286299,0.005713241978021106,-0.011601105932586678,0.017453292519943295,0.0,0.0,0.0,0.017453292519943295,0.0,0.0,0.0,0.15707963267948966,0.012650941498577595,0.007307679858058691,-0.0006343111163005233,0.0004363323129985824,0.0,0.0,0.0,0.0004363323129985824,0.0,0.0,0.0,0.0004363323129985824,-0.1345217376947403,0.08715778589248657,9.929672241210938,0.0004,0.0,0.0,0.0,0.0004,0.0,0.0,0.0,0.0004
2025/05/07 10:38:55.298351754,1746607135,297951700,mti/imu_base_body,0.29741885924707934,0.9546597760625785,0.005691449895910843,-0.011590579381373645,0.017453292519943295,0.0,0.0,0.0,0.017453292519943295,0.0,0.0,0.0,0.15707963267948966,0.006612042430788279,0.004225136712193489,-0.006015616003423929,0.0004363323129985824,0.0,0.0,0.0,0.0004363323129985824,0.0,0.0,0.0,0.0004363323129985824,-0.17865952849388123,0.05132476985454559,9.841024398803711,0.0004,0.0,0.0,0.0,0.0004,0.0,0.0,0.0,0.0004
2025/05/07 10:38:55.347983220,1746607135,347725361,mti/imu_base_body,0.29736247439504954,0.9546766212645108,0.00570920675258766,-0.011640987539180504,0.017453292519943295,0.0,0.0,0.0,0.017453292519943295,0.0,0.0,0.0,0.15707963267948966,0.008715645410120487,0.015551824122667313,0.008154962211847305,0.0004363323129985824,0.0,0.0,0.0,0.0004363323129985824,0.0,0.0,0.0,0.0004363323129985824,-0.23985062539577484,0.04827847331762314,9.673508644104004,0.0004,0.0,0.0,0.0,0.0004,0.0,0.0,0.0,0.0004
2025/05/07 10:38:55.398120043,1746607135,397753480,mti/imu_base_body,0.2972540258962688,0.9547103482506474,0.005715828481531723,-0.011641492015955771,0.017453292519943295,0.0,0.0,0.0,0.017453292519943295,0.0,0.0,0.0,0.15707963267948966,0.010335725732147694,-0.00038898311322554946,-0.0008433698094449937,0.0004363323129985824,0.0,0.0,0.0,0.0004363323129985824,0.0,0.0,0.0,0.0004363323129985824,-0.17821073532104492,0.06701606512069702,9.735638618469238,0.0004,0.0,0.0,0.0,0.0004,0.0,0.0,0.0,0.0004
2025/05/07 10:38:55.450323966,1746607135,449327099,mti/imu_base_body,0.2971809671220666,0.95473334362652,0.005700048788533342,-0.011628619519392792,0.017453292519943295,0.0,0.0,0.0,0.017453292519943295,0.0,0.0,0.0,0.15707963267948966,0.007422207854688168,0.0017126624006778002,0.005374860484153032,0.0004363323129985824,0.0,0.0,0.0,0.0004363323129985824,0.0,0.0,0.0,0.0004363323129985824,-0.11612338572740555,0.09480032324790955,10.047649383544922,0.0004,0.0,0.0,0.0,0.0004,0.0,0.0,0.0,0.0004
2025/05/07 10:38:55.498463235,1746607135,498014171,mti/imu_base_body,0.29713947741614327,0.9547463499370274,0.005705172881208931,-0.01161848721563219,0.017453292519943295,0.0,0.0,0.0,0.017453292519943295,0.0,0.0,0.0,0.15707963267948966,0.009020128287374973,0.0071257492527365685,0.0022432527039200068,0.0004363323129985824,0.0,0.0,0.0,0.0004363323129985824,0.0,0.0,0.0,0.0004363323129985824,-0.18996962904930115,0.04148739576339722,9.860963821411133,0.0004,0.0,0.0,0.0,0.0004,0.0,0.0,0.0,0.0004
2025/05/07 10:38:55.548268208,1746607135,547841013,mti/imu_base_body,0.29702430493150644,0.9547821441651745,0.005718156801331517,-0.011615599257154566,0.017453292519943295,0.0,0.0,0.0,0.017453292519943295,0.0,0.0,0.0,0.15707963267948966,0.004867156036198139,0.003041934920474887,-0.006771796848624945,0.0004363323129985824,0.0,0.0,0.0,0.0004363323129985824,0.0,0.0,0.0,0.0004363323129985824,-0.2356436550617218,0.0010116799967363477,9.643505096435547,0.0004,0.0,0.0,0.0,0.0004,0.0,0.0,0.0,0.0004
2025/05/07 10:38:55.598461581,1746607135,597839951,mti/imu_base_body,0.29694277734431984,0.9548080878819136,0.00573925400598784,-0.011556957289015629,0.017453292519943295,0.0,0.0,0.0,0.017453292519943295,0.0,0.0,0.0,0.15707963267948966,0.002621890977025032,-0.007160464767366648,0.00455183070152998,0.0004363323129985824,0.0,0.0,0.0,0.0004363323129985824,0.0,0.0,0.0,0.0004363323129985824,-0.14094500243663788,0.032917361706495285,9.826828956604004,0.0004,0.0,0.0,0.0,0.0004,0.0,0.0,0.0,0.0004
2025/05/07 10:38:55.648730285,1746607135,648155039,mti/imu_base_body,0.29376282766329703,0.9557969681271703,0.005743299977384221,-0.011071192688352287,0.017453292519943295,0.0,0.0,0.0,0.017453292519943295,0.0,0.0,0.0,0.15707963267948966,-0.005578301846981049,-0.0030553792603313923,-0.002774233231320977,0.0004363323129985824,0.0,0.0,0.0,0.0004363323129985824,0.0,0.0,0.0,0.0004363323129985824,-0.11851392686367035,0.07347221672534943,9.942032814025879,0.0004,0.0,0.0,0.0,0.0004,0.0,0.0,0.0,0.0004
2025/05/07 10:38:55.698717490,1746607135,698110168,mti/imu_base_body,0.29363761664012594,0.9558347974640222,0.005769623238694128,-0.011113122806006563,0.017453292519943295,0.0,0.0,0.0,0.017453292519943295,0.0,0.0,0.0,0.15707963267948966,0.0037260253448039293,0.01694076508283615,-0.008207115344703197,0.0004363323129985824,0.0,0.0,0.0,0.0004363323129985824,0.0,0.0,0.0,0.0004363323129985824,-0.16494570672512054,0.044187311083078384,9.87352180480957,0.0004,0.0,0.0,0.0,0.0004,0.0,0.0,0.0,0.0004
2025/05/07 10:38:55.748434973,1746607135,748031618,mti/imu_base_body,0.29351231388549204,0.9558732664640743,0.00578664481942096,-0.011105620136615658,0.017453292519943295,0.0,0.0,0.0,0.017453292519943295,0.0,0.0,0.0,0.15707963267948966,0.012034539133310318,-0.0003134338476229459,-0.0121005242690444,0.0004363323129985824,0.0,0.0,0.0,0.0004363323129985824,0.0,0.0,0.0,0.0004363323129985824,-0.25722062587738037,0.048866838216781616,9.640060424804688,0.0004,0.0,0.0,0.0,0.0004,0.0,0.0,0.0,0.0004
2025/05/07 10:38:55.799110337,1746607135,798741011,mti/imu_base_body,0.2934038217645263,0.9559070302731181,0.005784987495682993,-0.011067102966576158,0.017453292519943295,0.0,0.0,0.0,0.017453292519943295,0.0,0.0,0.0,0.15707963267948966,0.003051728243008256,-0.0013266329187899828,-0.004493786487728357,0.0004363323129985824,0.0,0.0,0.0,0.0004363323129985824,0.0,0.0,0.0,0.0004363323129985824,-0.2112119495868683,0.05471035838127136,9.702305793762207,0.0004,0.0,0.0,0.0,0.0004,0.0,0.0,0.0,0.0004
2025/05/07 10:38:55.848269958,1746607135,847965682,mti/imu_base_body,0.2932978947780468,0.9559395304405486,0.005784693826435238,-0.011067808148114372,0.017453292519943295,0.0,0.0,0.0,0.017453292519943295,0.0,0.0,0.0,0.15707963267948966,0.010737517848610878,0.003744471352547407,-0.007495194207876921,0.0004363323129985824,0.0,0.0,0.0,0.0004363323129985824,0.0,0.0,0.0,0.0004363323129985824,-0.13282373547554016,0.06077402085065842,10.030267715454102,0.0004,0.0,0.0,0.0,0.0004,0.0,0.0,0.0,0.0004
2025/05/07 10:38:55.898449710,1746607135,897952587,mti/imu_base_body,0.29316272283671124,0.9559811882551046,0.005778076888748758,-0.011054386857320755,0.017453292519943295,0.0,0.0,0.0,0.017453292519943295,0.0,0.0,0.0,0.15707963267948966,0.007602189667522907,0.003991916310042143,-0.005411369726061821,0.0004363323129985824,0.0,0.0,0.0,0.0004363323129985824,0.0,0.0,0.0,0.0004363323129985824,-0.1781391203403473,0.023041298612952232,9.89095401763916,0.0004,0.0,0.0,0.0,0.0004,0.0,0.0,0.0,0.0004
2025/05/07 10:38:55.948252657,1746607135,947756364,mti/imu_base_body,0.2930485602313589,0.9560164760413066,0.005759514546299308,-0.011039333135673634,0.017453292519943295,0.0,0.0,0.0,0.017453292519943295,0.0,0.0,0.0,0.15707963267948966,0.008953657932579517,-0.0010368216317147017,-0.009213609620928764,0.0004363323129985824,0.0,0.0,0.0,0.0004363323129985824,0.0,0.0,0.0,0.0004363323129985824,-0.22915203869342804,-0.011620222590863705,9.63942813873291,0.0004,0.0,0.0,0.0,0.0004,0.0,0.0,0.0,0.0004
2025/05/07 10:38:55.998515133,1746607135,997817583,mti/imu_base_body,0.2929050749669363,0.9560601622897628,0.005803830851351924,-0.011040773910131517,0.017453292519943295,0.0,0.0,0.0,0.017453292519943295,0.0,0.0,0.0,0.15707963267948966,0.005263273138552904,0.0010440463665872812,-0.009381228126585484,0.0004363323129985824,0.0,0.0,0.0,0.0004363323129985824,0.0,0.0,0.0,0.0004363323129985824,-0.18000178039073944,0.026516586542129517,9.7664794921875,0.0004,0.0,0.0,0.0,0.0004,0.0,0.0,0.0,0.0004
2025/05/07 10:38:56.48299716,1746607136,47829586,mti/imu_base_body,0.28851674771204333,0.9573954532491702,0.006234510706446094,-0.010637822320958806,0.017453292519943295,0.0,0.0,0.0,0.017453292519943295,0.0,0.0,0.0,0.15707963267948966,0.012333666905760765,0.0026134466752409935,-0.01953096129000187,0.0004363323129985824,0.0,0.0,0.0,0.0004363323129985824,0.0,0.0,0.0,0.0004363323129985824,-0.029616806656122208,-0.0009590858244337142,9.905912399291992,0.0004,0.0,0.0,0.0,0.0004,0.0,0.0,0.0,0.0004
2025/05/07 10:38:56.98277316,1746607136,97767651,mti/imu_base_body,0.28838144567831897,0.957436353720803,0.00624712255844437,-0.010618089377839665,0.017453292519943295,0.0,0.0,0.0,0.017453292519943295,0.0,0.0,0.0,0.15707963267948966,0.004110067617148161,0.0017206219490617514,-0.010157371871173382,0.0004363323129985824,0.0,0.0,0.0,0.0004363323129985824,0.0,0.0,0.0,0.0004363323129985824,-0.045015204697847366,0.054032281041145325,9.828388214111328,0.0004,0.0,0.0,0.0,0.0004,0.0,0.0,0.0,0.0004
2025/05/07 10:38:56.148147275,1746607136,147784326,mti/imu_base_body,0.28826398643023754,0.9574715235069516,0.0062507850582803875,-0.010634071975484742,0.017453292519943295,0.0,0.0,0.0,0.017453292519943295,0.0,0.0,0.0,0.15707963267948966,0.007282537873834372,0.005769452080130577,-0.004433015361428261,0.0004363323129985824,0.0,0.0,0.0,0.0004363323129985824,0.0,0.0,0.0,0.0004363323129985824,-0.09413085877895355,-0.006897558458149433,9.648266792297363,0.0004,0.0,0.0,0.0,0.0004,0.0,0.0,0.0,0.0004
2025/05/07 10:38:56.198149494,1746607136,197784495,mti/imu_base_body,0.28813800141194906,0.9575098048648676,0.006264371173234761,-0.010593553878407897,0.017453292519943295,0.0,0.0,0.0,0.017453292519943295,0.0,0.0,0.0,0.15707963267948966,0.002773682586848736,-0.007490161340683699,-0.01644378900527954,0.0004363323129985824,0.0,0.0,0.0,0.0004363323129985824,0.0,0.0,0.0,0.0004363323129985824,-0.09666644781827927,-0.01267497893422842,9.617061614990234,0.0004,0.0,0.0,0.0,0.0004,0.0,0.0,0.0,0.0004
2025/05/07 10:38:56.248297218,1746607136,247823562,mti/imu_base_body,0.28798126500463583,0.9575574008801946,0.006279340349182312,-0.010544425573493464,0.017453292519943295,0.0,0.0,0.0,0.017453292519943295,0.0,0.0,0.0,0.15707963267948966,0.0017465625423938036,-0.003242691047489643,-0.015748972073197365,0.0004363323129985824,0.0,0.0,0.0,0.0004363323129985824,0.0,0.0,0.0,0.0004363323129985824,-0.006092781201004982,0.023888230323791504,10.01932144165039,0.0004,0.0,0.0,0.0,0.0004,0.0,0.0,0.0,0.0004
2025/05/07 10:38:56.301599553,1746607136,299190660,mti/imu_base_body,0.2878268461677226,0.9576040460997016,0.006295178348896334,-0.01051514375452392,0.017453292519943295,0.0,0.0,0.0,0.017453292519943295,0.0,0.0,0.0,0.15707963267948966,0.008964362554252148,0.004735378548502922,-0.009143783710896969,0.0004363323129985824,0.0,0.0,0.0,0.0004363323129985824,0.0,0.0,0.0,0.0004363323129985824,-0.045618101954460144,0.04474642872810364,9.908333778381348,0.0004,0.0,0.0,0.0,0.0004,0.0,0.0,0.0,0.0004
2025/05/07 10:38:56.348350045,1746607136,347949268,mti/imu_base_body,0.2877224571634014,0.957635300590123,0.006330042017313721,-0.0105047263447513,0.017453292519943295,0.0,0.0,0.0,0.017453292519943295,0.0,0.0,0.0,0.15707963267948966,0.0014487706357613206,0.0027604219503700733,-0.0105532705783844,0.0004363323129985824,0.0,0.0,0.0,0.0004363323129985824,0.0,0.0,0.0,0.0004363323129985824,-0.10999256372451782,0.010785701684653759,9.598236083984375,0.0004,0.0,0.0,0.0,0.0004,0.0,0.0,0.0,0.0004
2025/05/07 10:38:56.398457108,1746607136,398022419,mti/imu_base_body,0.28763824385807224,0.9576612839099401,0.006322604797521451,-0.0104465610984396,0.017453292519943295,0.0,0.0,0.0,0.017453292519943295,0.0,0.0,0.0,0.15707963267948966,0.002394231501966715,-0.006427623797208071,0.0014952749479562044,0.0004363323129985824,0.0,0.0,0.0,0.0004363323129985824,0.0,0.0,0.0,0.0004363323129985824,-0.08504477888345718,-0.056917786598205566,9.762295722961426,0.0004,0.0,0.0,0.0,0.0004,0.0,0.0,0.0,0.0004
2025/05/07 10:38:56.448154906,1746607136,447762669,mti/imu_base_body,0.2844906656099609,0.9586129664120566,0.006404104840458348,-0.009231968840444806,0.017453292519943295,0.0,0.0,0.0,0.017453292519943295,0.0,0.0,0.0,0.15707963267948966,0.012676031328737736,0.001123481779359281,0.00717639084905386,0.0004363323129985824,0.0,0.0,0.0,0.0004363323129985824,0.0,0.0,0.0,0.0004363323129985824,-0.08559233695268631,-0.03238648548722267,9.956746101379395,0.0004,0.0,0.0,0.0,0.0004,0.0,0.0,0.0,0.0004
2025/05/07 10:38:56.498388597,1746607136,497890416,mti/imu_base_body,0.2844017683544977,0.9586392547140425,0.0064274237043615776,-0.009225058409791181,0.017453292519943295,0.0,0.0,0.0,0.017453292519943295,0.0,0.0,0.0,0.15707963267948966,0.0017531992634758353,0.0031754006631672382,-0.0030472835060209036,0.0004363323129985824,0.0,0.0,0.0,0.0004363323129985824,0.0,0.0,0.0,0.0004363323129985824,-0.10063774138689041,-0.012320230714976788,9.816442489624023,0.0004,0.0,0.0,0.0,0.0004,0.0,0.0,0.0,0.0004
2025/05/07 10:38:56.548281987,1746607136,547887432,mti/imu_base_body,0.2843674478146192,0.9586499058423998,0.0064182196113331475,-0.009182543698686192,0.017453292519943295,0.0,0.0,0.0,0.017453292519943295,0.0,0.0,0.0,0.15707963267948966,0.010175277478992939,-0.00369512801989913,0.005928708240389824,0.0004363323129985824,0.0,0.0,0.0,0.0004363323129985824,0.0,0.0,0.0,0.0004363323129985824,-0.08045554906129837,0.002920923288911581,9.741161346435547,0.0004,0.0,0.0,0.0,0.0004,0.0,0.0,0.0,0.0004
2025/05/07 10:38:56.598319136,1746607136,597883303,mti/imu_base_body,0.2843059454273138,0.9586683005583336,0.006413674459578909,-0.009169715328394026,0.017453292519943295,0.0,0.0,0.0,0.017453292519943295,0.0,0.0,0.0,0.15707963267948966,0.01147945411503315,0.005544736515730619,0.003314763307571411,0.0004363323129985824,0.0,0.0,0.0,0.0004363323129985824,0.0,0.0,0.0,0.0004363323129985824,-0.09297391027212143,0.0037528977263718843,9.742734909057617,0.0004,0.0,0.0,0.0,0.0004,0.0,0.0,0.0,0.0004
2025/05/07 10:38:56.648262480,1746607136,647855178,mti/imu_base_body,0.28427634857256695,0.9586773605779264,0.006408881424800644,-0.009143423673409938,0.017453292519943295,0.0,0.0,0.0,0.017453292519943295,0.0,0.0,0.0,0.15707963267948966,0.004937112797051668,-0.0008640329469926655,0.006263239309191704,0.0004363323129985824,0.0,0.0,0.0,0.0004363323129985824,0.0,0.0,0.0,0.0004363323129985824,-0.1413566768169403,0.009463903494179249,9.793327331542969,0.0004,0.0,0.0,0.0,0.0004,0.0,0.0,0.0,0.0004
2025/05/07 10:38:56.698276615,1746607136,697863726,mti/imu_base_body,0.2842177874639904,0.9586947905202614,0.006385571863963565,-0.009152725842950708,0.017453292519943295,0.0,0.0,0.0,0.017453292519943295,0.0,0.0,0.0,0.15707963267948966,0.012983319349586964,-0.0005420566303655505,0.00872932467609644,0.0004363323129985824,0.0,0.0,0.0,0.0004363323129985824,0.0,0.0,0.0,0.0004363323129985824,-0.10472771525382996,0.011660456657409668,9.890151023864746,0.0004,0.0,0.0,0.0,0.0004,0.0,0.0,0.0,0.0004
2025/05/07 10:38:56.749637008,1746607136,748808413,mti/imu_base_body,0.28418101401203216,0.9587059124433284,0.0063978804628494505,-0.009120956467461687,0.017453292519943295,0.0,0.0,0.0,0.017453292519943295,0.0,0.0,0.0,0.15707963267948966,0.0030786264687776566,-0.00013001136539969593,0.0027811944019049406,0.0004363323129985824,0.0,0.0,0.0,0.0004363323129985824,0.0,0.0,0.0,0.0004363323129985824,-0.07627863436937332,0.027109205722808838,9.738280296325684,0.0004,0.0,0.0,0.0,0.0004,0.0,0.0,0.0,0.0004
2025/05/07 10:38:56.798108065,1746607136,797750355,mti/imu_base_body,0.2841271498135497,0.9587224445999142,0.006360895361761015,-0.009087132077263752,0.017453292519943295,0.0,0.0,0.0,0.017453292519943295,0.0,0.0,0.0,0.15707963267948966,0.018412502482533455,-0.010399619117379189,0.0015949542867019773,0.0004363323129985824,0.0,0.0,0.0,0.0004363323129985824,0.0,0.0,0.0,0.0004363323129985824,-0.11178836226463318,0.029914526268839836,9.794374465942383,0.0004,0.0,0.0,0.0,0.0004,0.0,0.0,0.0,0.0004
2025/05/07 10:38:56.848458901,1746607136,847993540,mti/imu_base_body,0.2829187942388719,0.9590830245729619,0.0059554165468819024,-0.009013370965143814,0.017453292519943295,0.0,0.0,0.0,0.017453292519943295,0.0,0.0,0.0,0.15707963267948966,0.017033902928233147,0.006927582900971174,0.016289494931697845,0.0004363323129985824,0.0,0.0,0.0,0.0004363323129985824,0.0,0.0,0.0,0.0004363323129985824,-0.07585437595844269,0.024230392649769783,10.002347946166992,0.0004,0.0,0.0,0.0,0.0004,0.0,0.0,0.0,0.0004
2025/05/07 10:38:56.898576328,1746607136,898001190,mti/imu_base_body,0.28292104291258297,0.9590823469806533,0.0059385364435380165,-0.009026016410718036,0.017453292519943295,0.0,0.0,0.0,0.017453292519943295,0.0,0.0,0.0,0.15707963267948966,0.011977354064583778,0.004822023678570986,0.012665094807744026,0.0004363323129985824,0.0,0.0,0.0,0.0004363323129985824,0.0,0.0,0.0,0.0004363323129985824,-0.15397895872592926,0.015831487253308296,9.628647804260254,0.0004,0.0,0.0,0.0,0.0004,0.0,0.0,0.0,0.0004
2025/05/07 10:38:56.948250096,1746607136,947987088,mti/imu_base_body,0.2828900494785403,0.9590911078595747,0.005973449679728641,-0.009043485481072689,0.017453292519943295,0.0,0.0,0.0,0.017453292519943295,0.0,0.0,0.0,0.15707963267948966,0.0035432432778179646,0.01060402486473322,0.006398600060492754,0.0004363323129985824,0.0,0.0,0.0,0.0004363323129985824,0.0,0.0,0.0,0.0004363323129985824,-0.10809130221605301,-0.05709272250533104,9.83660888671875,0.0004,0.0,0.0,0.0,0.0004,0.0,0.0,0.0,0.0004
2025/05/07 10:38:56.999469557,1746607136,997996947,mti/imu_base_body,0.2828443849830562,0.9591044739866161,0.005968670110056469,-0.009057419032504985,0.017453292519943295,0.0,0.0,0.0,0.017453292519943295,0.0,0.0,0.0,0.15707963267948966,0.011280791833996773,0.0011488866293802857,0.009757837280631065,0.0004363323129985824,0.0,0.0,0.0,0.0004363323129985824,0.0,0.0,0.0,0.0004363323129985824,-0.10246050357818604,-0.039998944848775864,9.832530975341797,0.0004,0.0,0.0,0.0,0.0004,0.0,0.0,0.0,0.0004
2025/05/07 10:38:57.48113770,1746607137,47795395,mti/imu_base_body,0.28281326924955147,0.9591138063587714,0.005928751865888665,-0.009067033124590635,0.017453292519943295,0.0,0.0,0.0,0.017453292519943295,0.0,0.0,0.0,0.15707963267948966,0.01970929652452469,0.0056518856436014175,0.008843864314258099,0.0004363323129985824,0.0,0.0,0.0,0.0004363323129985824,0.0,0.0,0.0,0.0004363323129985824,-0.06922564655542374,0.00816994346678257,9.838254928588867,0.0004,0.0,0.0,0.0,0.0004,0.0,0.0,0.0,0.0004
2025/05/07 10:38:57.99734392,1746607137,97913282,mti/imu_base_body,0.2828403419466493,0.9591060830074559,0.005894315601930317,-0.009061983733277391,0.017453292519943295,0.0,0.0,0.0,0.017453292519943295,0.0,0.0,0.0,0.15707963267948966,0.015643663704395294,0.0035554624628275633,0.016709797084331512,0.0004363323129985824,0.0,0.0,0.0,0.0004363323129985824,0.0,0.0,0.0,0.0004363323129985824,-0.07913398742675781,0.014948728494346142,9.884961128234863,0.0004,0.0,0.0,0.0,0.0004,0.0,0.0,0.0,0.0004
2025/05/07 10:38:57.148211484,1746607137,147852818,mti/imu_base_body,0.28281880355138667,0.9591123367085218,0.005845607777816829,-0.009103779489264502,0.017453292519943295,0.0,0.0,0.0,0.017453292519943295,0.0,0.0,0.0,0.15707963267948966,0.014232220128178596,0.011319953016936779,0.010258766822516918,0.0004363323129985824,0.0,0.0,0.0,0.0004363323129985824,0.0,0.0,0.0,0.0004363323129985824,-0.14781124889850616,-0.01944565214216709,9.599352836608887,0.0004,0.0,0.0,0.0,0.0004,0.0,0.0,0.0,0.0004
2025/05/07 10:38:57.198184945,1746607137,197825957,mti/imu_base_body,0.2827702437211953,0.9591264101419065,0.0058396818887594525,-0.009133277045679901,0.017453292519943295,0.0,0.0,0.0,0.017453292519943295,0.0,0.0,0.0,0.15707963267948966,0.015856200829148293,0.003949332982301712,0.007667989004403353,0.0004363323129985824,0.0,0.0,0.0,0.0004363323129985824,0.0,0.0,0.0,0.0004363323129985824,-0.10928751528263092,-0.010074813850224018,9.828340530395508,0.0004,0.0,0.0,0.0,0.0004,0.0,0.0,0.0,0.0004
2025/05/07 10:38:57.248107661,1746607137,247781257,mti/imu_base_body,0.28283717131350256,0.9591000888965691,0.005339379221466389,-0.010081916062890162,0.017453292519943295,0.0,0.0,0.0,0.017453292519943295,0.0,0.0,0.0,0.15707963267948966,0.019166607409715652,0.006649489514529705,0.027336901053786278,0.0004363323129985824,0.0,0.0,0.0,0.0004363323129985824,0.0,0.0,0.0,0.0004363323129985824,-0.09931439906358719,-0.019678354263305664,9.932992935180664,0.0004,0.0,0.0,0.0,0.0004,0.0,0.0,0.0,0.0004
2025/05/07 10:38:57.298287947,1746607137,297834767,mti/imu_base_body,0.2828593239807429,0.9590935353156234,0.0053006351986994785,-0.01010428718052419,0.017453292519943295,0.0,0.0,0.0,0.017453292519943295,0.0,0.0,0.0,0.15707963267948966,0.014350544661283493,0.007872887887060642,0.01986764371395111,0.0004363323129985824,0.0,0.0,0.0,0.0004363323129985824,0.0,0.0,0.0,0.0004363323129985824,-0.13539665937423706,0.011829787865281105,9.700174331665039,0.0004,0.0,0.0,0.0,0.0004,0.0,0.0,0.0,0.0004
2025/05/07 10:38:57.348218403,1746607137,347832847,mti/imu_base_body,0.28290535191757527,0.9590800422559995,0.005266699121585181,-0.010114162495510802,0.017453292519943295,0.0,0.0,0.0,0.017453292519943295,0.0,0.0,0.0,0.15707963267948966,0.016985414549708366,0.0050318194553256035,0.022463597357273102,0.0004363323129985824,0.0,0.0,0.0,0.0004363323129985824,0.0,0.0,0.0,0.0004363323129985824,-0.10532664507627487,0.023867448791861534,9.813090324401855,0.0004,0.0,0.0,0.0,0.0004,0.0,0.0,0.0,0.0004
2025/05/07 10:38:57.398241814,1746607137,397864913,mti/imu_base_body,0.28295456569504895,0.9590655320185637,0.0052570219218963,-0.010118436973572155,0.017453292519943295,0.0,0.0,0.0,0.017453292519943295,0.0,0.0,0.0,0.15707963267948966,0.010989910922944546,0.0030486024916172028,0.01832646317780018,0.0004363323129985824,0.0,0.0,0.0,0.0004363323129985824,0.0,0.0,0.0,0.0004363323129985824,-0.0842137485742569,0.006832316983491182,9.913656234741211,0.0004,0.0,0.0,0.0,0.0004,0.0,0.0,0.0,0.0004
2025/05/07 10:38:57.448241815,1746607137,447822907,mti/imu_base_body,0.28294599456071234,0.9590680013723533,0.005260353616512734,-0.010122331031845079,0.017453292519943295,0.0,0.0,0.0,0.017453292519943295,0.0,0.0,0.0,0.15707963267948966,0.0063040186651051044,0.004606577102094889,0.012880193069577217,0.0004363323129985824,0.0,0.0,0.0,0.0004363323129985824,0.0,0.0,0.0,0.0004363323129985824,-0.13810835778713226,-0.02583506889641285,9.768471717834473,0.0004,0.0,0.0,0.0,0.0004,0.0,0.0,0.0,0.0004
2025/05/07 10:38:57.501045925,1746607137,498734048,mti/imu_base_body,0.2829750780524743,0.9590593146155897,0.005263927279150668,-0.0101305142944983,0.017453292519943295,0.0,0.0,0.0,0.017453292519943295,0.0,0.0,0.0,0.15707963267948966,0.009567865170538425,0.007275340147316456,0.024052316322922707,0.0004363323129985824,0.0,0.0,0.0,0.0004363323129985824,0.0,0.0,0.0,0.0004363323129985824,-0.10110851377248764,-0.030254604294896126,9.901668548583984,0.0004,0.0,0.0,0.0,0.0004,0.0,0.0,0.0,0.0004
2025/05/07 10:38:57.550956261,1746607137,549607677,mti/imu_base_body,0.2829941619666768,0.9590531963467263,0.005279128212179943,-0.010168661427410635,0.017453292519943295,0.0,0.0,0.0,0.017453292519943295,0.0,0.0,0.0,0.15707963267948966,0.005342936608940363,0.01299959421157837,0.017514239996671677,0.0004363323129985824,0.0,0.0,0.0,0.0004363323129985824,0.0,0.0,0.0,0.0004363323129985824,-0.07977170497179031,0.016282955184578896,9.73731803894043,0.0004,0.0,0.0,0.0,0.0004,0.0,0.0,0.0,0.0004
2025/05/07 10:38:57.598725518,1746607137,598084414,mti/imu_base_body,0.2830391432739776,0.9590399411034707,0.005287106615375105,-0.010162738145885867,0.017453292519943295,0.0,0.0,0.0,0.017453292519943295,0.0,0.0,0.0,0.15707963267948966,0.004807680379599333,0.0006300532259047031,0.021423472091555595,0.0004363323129985824,0.0,0.0,0.0,0.0004363323129985824,0.0,0.0,0.0,0.0004363323129985824,-0.08707384020090103,0.00873133260756731,9.747174263000488,0.0004,0.0,0.0,0.0,0.0004,0.0,0.0,0.0,0.0004
2025/05/07 10:38:57.649473729,1746607137,648889425,mti/imu_base_body,0.2842354687790355,0.9586799583432518,0.005565042341823606,-0.01058140173496475,0.017453292519943295,0.0,0.0,0.0,0.017453292519943295,0.0,0.0,0.0,0.15707963267948966,0.009440513327717781,0.004486816003918648,0.014305253513157368,0.0004363323129985824,0.0,0.0,0.0,0.0004363323129985824,0.0,0.0,0.0,0.0004363323129985824,-0.07957456260919571,0.032509416341781616,9.952186584472656,0.0004,0.0,0.0,0.0,0.0004,0.0,0.0,0.0,0.0004
2025/05/07 10:38:57.698315653,1746607137,697772907,mti/imu_base_body,0.28429221822924655,0.9586631619555986,0.005565293206764603,-0.010578472248429659,0.017453292519943295,0.0,0.0,0.0,0.017453292519943295,0.0,0.0,0.0,0.15707963267948966,0.011289224959909916,0.008529851213097572,0.026019355282187462,0.0004363323129985824,0.0,0.0,0.0,0.0004363323129985824,0.0,0.0,0.0,0.0004363323129985824,-0.10829603672027588,0.01806684210896492,9.835176467895508,0.0004,0.0,0.0,0.0,0.0004,0.0,0.0,0.0,0.0004
2025/05/07 10:38:57.748103154,1746607137,747757830,mti/imu_base_body,0.28431883037676575,0.9586552541843772,0.005557771042063121,-0.010583831958171228,0.017453292519943295,0.0,0.0,0.0,0.017453292519943295,0.0,0.0,0.0,0.15707963267948966,0.011341182515025139,0.006685975473374128,0.019119473174214363,0.0004363323129985824,0.0,0.0,0.0,0.0004363323129985824,0.0,0.0,0.0,0.0004363323129985824,-0.1437513381242752,-0.02859848365187645,9.723942756652832,0.0004,0.0,0.0,0.0,0.0004,0.0,0.0,0.0,0.0004
2025/05/07 10:38:57.798136883,1746607137,797762292,mti/imu_base_body,0.28442377656576723,0.9586241175711762,0.005504618980813451,-0.010612054693889851,0.017453292519943295,0.0,0.0,0.0,0.017453292519943295,0.0,0.0,0.0,0.15707963267948966,0.016781186684966087,0.00240528816357255,0.02985197864472866,0.0004363323129985824,0.0,0.0,0.0,0.0004363323129985824,0.0,0.0,0.0,0.0004363323129985824,-0.1162167489528656,0.008714910596609116,9.915136337280273,0.0004,0.0,0.0,0.0,0.0004,0.0,0.0,0.0,0.0004
2025/05/07 10:38:57.848109430,1746607137,847733614,mti/imu_base_body,0.2844728471641919,0.9586095284292,0.005499907840904544,-0.01061707326839134,0.017453292519943295,0.0,0.0,0.0,0.017453292519943295,0.0,0.0,0.0,0.15707963267948966,0.010105134919285774,0.006140506826341152,0.028073271736502647,0.0004363323129985824,0.0,0.0,0.0,0.0004363323129985824,0.0,0.0,0.0,0.0004363323129985824,-0.12423834949731827,0.05680437758564949,9.87984848022461,0.0004,0.0,0.0,0.0,0.0004,0.0,0.0,0.0,0.0004
2025/05/07 10:38:57.898152181,1746607137,897752560,mti/imu_base_body,0.2845408894183741,0.9585892384334289,0.005496282407387185,-0.01062756267060154,0.017453292519943295,0.0,0.0,0.0,0.017453292519943295,0.0,0.0,0.0,0.15707963267948966,0.015221571549773216,0.0028177269268780947,0.026300039142370224,0.0004363323129985824,0.0,0.0,0.0,0.0004363323129985824,0.0,0.0,0.0,0.0004363323129985824,-0.12968477606773376,0.03557734191417694,9.778069496154785,0.0004,0.0,0.0,0.0,0.0004,0.0,0.0,0.0,0.0004
2025/05/07 10:38:57.948145709,1746607137,947776576,mti/imu_base_body,0.284591734305011,0.9585740433045995,0.00545846637104823,-0.010656144369039094,0.017453292519943295,0.0,0.0,0.0,0.017453292519943295,0.0,0.0,0.0,0.15707963267948966,0.013176953420042992,0.00945695023983717,0.0220657866448164,0.0004363323129985824,0.0,0.0,0.0,0.0004363323129985824,0.0,0.0,0.0,0.0004363323129985824,-0.13200260698795319,-0.03353280946612358,9.818994522094727,0.0004,0.0,0.0,0.0,0.0004,0.0,0.0,0.0,0.0004
2025/05/07 10:38:57.998230988,1746607137,997866248,mti/imu_base_body,0.2846561592937683,0.9585549664713849,0.005444117015214854,-0.010658743785601167,0.017453292519943295,0.0,0.0,0.0,0.017453292519943295,0.0,0.0,0.0,0.15707963267948966,0.01035399455577135,0.005979941226541996,0.02526743896305561,0.0004363323129985824,0.0,0.0,0.0,0.0004363323129985824,0.0,0.0,0.0,0.0004363323129985824,-0.09937747567892075,-0.024523716419935226,9.8506498336792,0.0004,0.0,0.0,0.0,0.0004,0.0,0.0,0.0,0.0004
2025/05/07 10:38:58.48180675,1746607138,47764816,mti/imu_base_body,0.286654793802833,0.9579618340009302,0.005182030762552842,-0.010549897848102119,0.017453292519943295,0.0,0.0,0.0,0.017453292519943295,0.0,0.0,0.0,0.15707963267948966,0.014302030205726624,0.00230203615501523,0.034312982112169266,0.0004363323129985824,0.0,0.0,0.0,0.0004363323129985824,0.0,0.0,0.0,0.0004363323129985824,-0.1309984177350998,-0.011484771966934204,9.915384292602539,0.0004,0.0,0.0,0.0,0.0004,0.0,0.0,0.0,0.0004
